time,seconds_elapsed,z,y,x
1725629101823434500,0.0254345703125,0.11229133118391037,0.3945160351812839,-0.5140725715951994
1725629101833468700,0.03546875,0.6914741979300976,0.3415601055413484,-0.26121030181292443
1725629101843502600,0.045502685546875,1.270567048305273,0.27406536293923855,0.022646898757107556
1725629101853536500,0.05553662109375,1.5130892719894646,0.17482289842069149,0.19879362966008482
1725629101863570700,0.06557080078125,1.5822539936304092,0.16061083319485187,0.32051640419717875
1725629101873604600,0.0756044921875,1.6896815181702374,0.18332418478429316,0.33720530786532904
1725629101883638500,0.085638427734375,1.7427257106155156,0.2724152576446533,0.3638470484122634
1725629101893672700,0.095672607421875,1.781293049418926,0.39457214928269385,0.3600670184168964
1725629101903706600,0.10570654296875,1.9545874230980873,0.5114607451289892,0.32778628560230133
1725629101913739800,0.11573974609375,2.070396991536021,0.6369587638884783,0.39155009804777796
1725629101923773400,0.1257734375,2.1468542082726954,0.7329834354043007,0.596623684760183
1725629101933807600,0.1358076171875,2.1059359224289653,0.8900345302909612,0.8081800576206296
1725629101943841800,0.145841796875,2.0754466761410235,1.0363456199765204,0.8546210524085909
1725629101953875500,0.15587548828125,1.9814134707033633,0.938271614715457,0.6062894117932767
1725629101963909600,0.16590966796875,1.7731757939368484,0.6442120960175991,0.09748663382716477
1725629101973943800,0.17594384765625,1.6966233001321553,0.8807371251136064,-0.6290676453124732
1725629101983977500,0.1859775390625,1.4283014492809771,0.2623807703644037,-0.569685701213032
1725629101994011600,0.19601171875,0.9986164855629205,0.09517594573199749,-0.2620129599653184
1725629102004045800,0.2060458984375,0.9031284051418303,0.8212538395315409,-0.4123814352829009
1725629102014079500,0.21607958984375,0.8756564608484506,1.3486831381648778,-0.4779426525391638
1725629102024113700,0.22611376953125,0.7771475713014602,1.566060399198532,-0.7416555482901632
1725629102034147800,0.23614794921875,0.42341129027605057,1.3521283101826906,-0.8962234480589628
1725629102044181500,0.246181396484375,-0.4340601100623607,0.958846200710535,-1.0073569875098765
1725629102054215700,0.256215576171875,-1.3979016348421573,0.4652174648702144,-0.843804255644232
1725629102064249600,0.26624951171875,-1.9948715026915071,0.3674824823051691,-0.8749236165292561
1725629102074283500,0.276283447265625,-2.239940488249063,0.4709019402474165,-1.2568218699388205
1725629102084317700,0.286317626953125,-2.295238597100973,0.2845107691079378,-1.645566335981339
1725629102094350600,0.2963505859375,-2.1536071896642444,0.20073183118104934,-1.8415541875056922
1725629102104384800,0.306384765625,-1.8822183524578808,0.026525018832087514,-1.6147895049236713
1725629102114418400,0.31641845703125,-1.3739724777221678,-0.18957330830693245,-1.2429355295360087
1725629102124452600,0.32645263671875,-0.7121586740404368,-0.42552550595104693,-1.1045017490968108
1725629102134486800,0.33648681640625,-0.2650719091445207,-0.5905412961065769,-0.7140123390831052
1725629102144520400,0.3465205078125,-0.00803834502696991,-0.6486170529782772,-0.3024664047762751
1725629102154554600,0.3565546875,0.17898177166581153,-0.5905600008070468,-0.3559412437237799
1725629102164588800,0.3665888671875,0.14547580790519712,-0.5155050520837307,-0.5969163840964437
1725629102174622500,0.37662255859375,0.019883096599578855,-0.5829641388505696,-0.6466137503318489
1725629102184656600,0.38665673828125,0.007852467066049576,-0.6829243962496518,-0.8295049505263566
1725629102194690800,0.39669091796875,-0.04877893621623516,-0.7077052017629146,-0.9441187333084642
1725629102204724500,0.406724365234375,-0.021465981876850126,-0.728659726986289,-0.6746918438248336
1725629102214758700,0.416758544921875,0.33722353764176366,-0.7136608952969312,-0.36940482866987584
1725629102224792800,0.426792724609375,0.8491735275924205,-0.6258955180823803,-0.23659473333135245
1725629102234826500,0.436826416015625,0.9716098206937313,-0.5355576600313187,-0.05939736086428165
1725629102244860700,0.446860595703125,1.1348556785672903,-0.39036359167695045,0.08445113810002804
1725629102254894800,0.456894775390625,1.3522422919511794,-0.27346330539286134,0.2363480650939047
1725629102264928500,0.466928466796875,1.4928320813804865,-0.20993688189983367,0.4019835945829749
1725629102274962000,0.4769619140625,1.4473948568075894,-0.39199733035862444,0.1492681859254837
1725629102284995800,0.486995849609375,1.3677987575232982,-0.4799024083048105,-0.3965424264423549
1725629102295029800,0.49702978515625,1.0758405950188636,-0.534316720059514,-0.7077857196532189
1725629102305064000,0.50706396484375,0.9798825589984654,-0.5429401714980602,-0.7713624120287597
1725629102315097900,0.517097900390625,0.9922679933190345,-0.4384364254504442,-0.5714014190897345
1725629102325131800,0.5271318359375,1.1040765094220637,-0.27210370747745033,-0.2878410825744271
1725629102335166000,0.537166015625,1.2501391773045063,-0.12793430599570274,0.002712473829090595
1725629102345199900,0.547199951171875,1.2972668391823767,-0.05500643242895603,0.21103344496488569
1725629102355233800,0.55723388671875,1.1531745945900678,-0.0016997896552085876,0.26547186824753877
1725629102365267700,0.567267822265625,1.1840671609818936,-0.0692944855004549,0.212624659679085
1725629102375302000,0.577302001953125,1.4193828142881393,-0.15154782129526137,0.24947394251823424
1725629102385335800,0.587335693359375,1.2777327021509408,-0.23679449368715286,0.3904126915156841
1725629102395369700,0.59736962890625,1.1260422575145959,-0.23354922815561294,0.48498745648413893
1725629102405404000,0.60740380859375,1.1086989085257053,-0.24312545027434823,0.41577027400359506
1725629102415437800,0.617437744140625,1.10212537535429,-0.29594167918264863,0.22484569721817968
1725629102425471700,0.6274716796875,1.0172048661768436,-0.20909926203191279,0.16098945724889635
1725629102435506000,0.637505859375,0.8377227437734603,-0.09191489810943602,0.3003105419166386
1725629102445538800,0.647538818359375,0.6970674878925085,0.08675240077972411,0.6634685851514339
1725629102455572700,0.65757275390625,0.8947364243716001,0.12808628168702124,0.9062722561255097
1725629102465607000,0.66760693359375,1.3699796086937188,0.029369886869192122,1.124487867679447
1725629102475640800,0.677640869140625,1.9660013820379971,-0.10893851362466811,1.058313267765194
1725629102485674800,0.6876748046875,2.351366142514348,-0.4355640848845243,0.9219577549047767
1725629102495709000,0.697708984375,2.457337623026967,-0.5321060582727194,0.6368631945595145
1725629102505742800,0.707742919921875,2.190682828605175,-0.457163337752223,0.49204950382485985
1725629102515776800,0.71777685546875,1.5414444288581608,-0.0919680896013975,0.415808706317842
1725629102525811000,0.72781103515625,0.7245844403713941,0.4247241264402866,-0.07720365118980407
1725629102535844900,0.737844970703125,-0.03655892159044742,0.602234656509757,-0.42456192161589856
1725629102545878800,0.747878662109375,-0.3708177642077207,0.604418430289626,-0.6964569547787308
1725629102555913000,0.757912841796875,-0.23194822269976137,0.5893009406566619,-0.9662795655816793
1725629102565947000,0.76794677734375,0.19494857160449028,0.5836901150375604,-1.1573095024377107
1725629102575980800,0.777980712890625,0.42354923744201656,0.5435439826101064,-1.2341478274464606
1725629102586015000,0.788014892578125,0.4942325469523668,0.35686171956956386,-1.2649293346792458
1725629102596049000,0.798048828125,0.6181435887813568,0.06174480077326298,-1.3959052003279329
1725629102606082800,0.808082763671875,0.5092413155138492,-0.02823006918430328,-1.4177330012544989
1725629102616116700,0.81811669921875,0.39241467898786064,-0.00343465062379837,-1.5477698324874043
1725629102626150000,0.82814990234375,0.28324060304164883,0.12307634457051753,-1.6407584973081946
1725629102636184000,0.83818408203125,-0.007416413736343383,0.42262744642198086,-1.4069631854370235
1725629102646217700,0.8482177734375,-0.33005203857719895,0.6221580851197243,-1.096215274527669
1725629102656252000,0.858251953125,-0.45597675831615925,0.7623281878322362,-0.661575318750739
1725629102666285800,0.868285888671875,-0.2864940518796444,0.6702583914220333,-0.11851239765584468
1725629102676319700,0.87831982421875,0.6926116775274276,0.9553355622410774,-0.03472469190061092
1725629102686354000,0.88835400390625,1.2226374223947525,1.1942477787345647,-0.4748655831813812
1725629102696387800,0.898387939453125,1.1172031174987553,0.31875732210278507,-0.134662737467885
1725629102706421800,0.908421875,1.1200357105761767,0.3056885816931724,-0.9043845426827669
1725629102716456000,0.9184560546875,1.0466256064504385,0.5414724370330571,-1.5116858349323272
1725629102726489900,0.92848974609375,0.733766110214591,0.8648112417072057,-1.07717155136168
1725629102736523800,0.938523681640625,-0.08269698790907859,1.2985568789929152,0.17217852139174938
1725629102746558000,0.948557861328125,-1.0383113670915365,1.3300918349415063,1.6701941428899765
1725629102756591900,0.958591796875,-1.4819441921412944,0.9764543381154537,2.621946585947275
1725629102766625800,0.968625732421875,-1.8883119931578636,0.14705986222624778,3.2630262291580436
1725629102776660000,0.978659912109375,-2.152032487693429,-0.5100245748460293,3.0507682108342644
1725629102786694000,0.98869384765625,-2.0396201604783535,-0.4481044175058603,2.146791664430499
1725629102796727800,0.998727783203125,-1.8018202891409396,0.047616029916703696,0.7597703200429677
1725629102806760700,1.0087607421875,-2.306369062924385,0.775740042591095,-0.7422025146484375
1725629102816795000,1.018794921875,-2.6300205868095157,1.0799059447616337,-1.9996441239207983
1725629102826829000,1.0288291015625,-2.837064669877291,0.8893114767134189,-3.135755940029025
1725629102836862700,1.03886279296875,-2.9181577297210692,0.36931641973406076,-4.088458815678954
1725629102846897000,1.04889697265625,-2.6156641446769235,-0.24000702599287033,-4.344422120216489
1725629102856931000,1.05893115234375,-2.147729237541556,-0.5140101373508572,-3.7015643614172933
1725629102866964700,1.06896484375,-1.5539830079138277,-0.6634264995753765,-2.6418092242807147
1725629102876999000,1.0789990234375,-1.0415952110677957,-0.9455100415363907,-1.3782441636919975
1725629102887033000,1.089033203125,-0.41451369807124133,-1.0270508451476692,-0.1825982085973024
1725629102897066800,1.099066650390625,0.2394762801170349,-1.2112369074583054,0.6577122135818004
1725629102907101000,1.109100830078125,0.5736088660061359,-1.4419307461827993,1.478451673850417
1725629102917134800,1.119134765625,0.322149887150526,-1.4052806391775607,2.247563238212466
1725629102927168800,1.129168701171875,-3.5674195103436706,-1.146684063526988,2.231649629765749
1725629102937203000,1.139202880859375,-4.394381206128001,-2.3387290715202687,2.248426577043533
1725629102947236900,1.14923681640625,-4.095131133049726,-2.222889692465961,1.9832839407503604
1725629102957270800,1.159270751953125,-2.70220728662014,-1.1597796919435261,1.6234645404189825
1725629102967305000,1.169304931640625,-1.1299918719232083,-0.39022389094531534,1.0557494086265564
1725629102977337900,1.179337890625,-0.688162881425023,-0.18668313982337711,0.7973153300613165
1725629102987372000,1.1893720703125,-1.0229197366923093,-0.26736995695382354,0.5328828878641129
1725629102997405700,1.19940576171875,-0.8600129015147685,0.1280582246363163,0.14037293180823326
1725629103007440000,1.20943994140625,-0.31911680306494233,1.0286246703356503,-0.5405792875856161
1725629103017474000,1.21947412109375,0.5778337902247905,1.3930658852487803,-1.6313345431417225
1725629103027507700,1.2295078125,2.349819497594237,0.9164555042266845,-3.47857218311131
1725629103037542000,1.2395419921875,4.6133395988732575,1.0821119303733109,-7.042557627353072
1725629103047576000,1.249576171875,5.712504955378175,0.9864522927775978,-7.130655597522854
1725629103057609700,1.259609619140625,3.867513633030653,0.0889206847295165,-4.932677351212501
1725629103067644000,1.269643798828125,1.4752981782555579,-0.6905635128259658,-1.5850193666905164
1725629103077678000,1.279677978515625,-0.6414145742535591,-0.09115560417473316,0.5258902524977922
1725629103087711700,1.289711669921875,-1.6277929250121115,0.024727029499411583,1.7598785054683683
1725629103097746000,1.299745849609375,-1.2967173886060714,0.12524404399842023,2.2392022371023894
1725629103107780000,1.309780029296875,-1.048310198536515,0.4789195347473025,1.3919512020051479
1725629103117813800,1.319813720703125,-0.9345885422885417,0.1452472598463297,-0.030181203252077102
1725629103127848000,1.329847900390625,-0.878261090388894,-0.4528331995934248,-0.8234908048033713
1725629103137881900,1.3398818359375,-0.5249491722553968,-1.0251672233581541,0.12703648037314413
1725629103147915000,1.3499150390625,0.35928806993365286,-1.0916484050035475,1.0044593663722277
1725629103157949000,1.359948974609375,1.3667910417854785,-0.9635556935757398,0.7119973459988832
1725629103167982800,1.36998291015625,2.034064864438772,-1.0615694930821657,0.2950707415670156
1725629103178017000,1.38001708984375,1.821072102099657,-1.329987790045142,0.03342120808660984
1725629103188051000,1.390051025390625,0.9130728760510682,-1.1379565671920775,0.1703729332745075
1725629103198084900,1.4000849609375,0.39204409210979935,-0.7004962932974099,0.09453355617523193
1725629103208119000,1.410119140625,0.0517617514193058,-0.3164882081270218,-0.04054185374677181
1725629103218152700,1.420152587890625,-0.33879648604691026,0.23990824179351328,-0.5958224513798952
1725629103228187000,1.430186767578125,-0.74738254763484,0.3673679160147905,-1.14188689237833
1725629103238221000,1.440220947265625,-0.8864128326624632,0.15366963575482367,-1.2630372373223304
1725629103248254700,1.450254638671875,-0.7548749492168426,0.1643260543256998,-0.6106523562431335
1725629103258289000,1.460288818359375,-0.28111118979752064,0.4276081574440002,0.14585808522105217
1725629103268323000,1.470322998046875,0.2714531346142292,0.8667933554351329,0.458241196116805
1725629103278356700,1.480356689453125,0.9048018913120031,1.035330305454135,0.06934826151430606
1725629103288391000,1.490390869140625,1.3020745317250488,1.2806255009829997,-0.4222843320727348
1725629103298424800,1.5004248046875,1.7314207650080322,1.751509321051836,-0.32069793477654457
1725629103308458800,1.510458740234375,1.9533546664327381,2.151808031287789,0.8209951885953545
1725629103318492000,1.520491943359375,1.4184721291840077,2.3657927272737025,2.0750775505676864
1725629103328525800,1.53052587890625,1.0683365029990672,2.0706910060465336,3.130951754617691
1725629103338559700,1.540559814453125,1.3810580520689486,1.3935171361476182,2.6733830509349703
1725629103348594000,1.550593994140625,2.4070763392984866,0.9640765025794505,0.9529428218856454
1725629103358627800,1.5606279296875,3.5151433796614406,-0.6540893469095229,-0.15590601650476454
1725629103368661800,1.570661865234375,3.3523604631245134,-3.1284213593572376,-1.7009961083889007
1725629103378696000,1.580696044921875,1.6619547223329543,-4.70399309874475,-4.107652468709648
1725629103388729900,1.590729736328125,-1.056587613016367,-4.178850449743867,-5.13210452953577
1725629103398763800,1.600763671875,-2.651933727931976,-1.2342863591343163,-4.24992801926881
1725629103408798000,1.6107978515625,-2.7236452114462852,1.23241472004354,-2.4969454107940194
1725629103418832000,1.620831787109375,-1.527691797837615,1.805048019015789,-0.9519678393736482
1725629103428865800,1.63086572265625,0.20392448974251745,1.355214001238346,-0.628784809783101
1725629103438899700,1.640899658203125,0.7501146029472351,0.5831476787239313,-1.0038269136875868
1725629103448934000,1.650933837890625,-0.2245446684449911,-0.17390753714144228,-0.9066907737985253
1725629103458967800,1.6609677734375,-1.1400859804362058,0.1862415335357189,-0.3252820476964116
1725629103469001700,1.671001708984375,-1.4517366854041813,0.7570318349897861,0.4965490072011947
1725629103479035000,1.681034912109375,-1.9669635050684213,0.3212573222249746,0.6724184920653701
1725629103489069000,1.691069091796875,-2.0179092639297247,0.5806202060729265,0.6816176975652575
1725629103499102700,1.701102783203125,-0.826042827373743,1.2763619983196257,1.4458765611991284
1725629103509137000,1.711136962890625,0.6088491062134503,0.9366595033437013,1.6121894054278731
1725629103519170800,1.7211708984375,1.7089976285368202,0.10161036269366741,0.312470496918261
1725629103529204700,1.731204833984375,2.4120503283187746,-0.8076917626470327,-0.24228841492831707
1725629103539239000,1.741239013671875,2.3852739650741217,-1.0896411568343638,-0.32110096261948345
1725629103549272800,1.75127294921875,1.8183929460182784,-1.032182070556283,-0.3388251276195049
1725629103559306800,1.761306640625,1.1739549322903156,-0.818021433481574,-0.3150429777547717
1725629103569341000,1.7713408203125,0.4404039261311292,-0.45244916871190066,-0.509957939350605
1725629103579374800,1.781374755859375,0.04052811748236418,-0.16438626008033752,-0.5250371427997946
1725629103589408800,1.79140869140625,0.43571956770718095,-0.39069267750084397,-0.6548863425061107
1725629103599443000,1.80144287109375,1.6046189701735973,-0.5752408511221409,-1.1252855939283966
1725629103609476900,1.811476806640625,1.7087117973327637,-1.0168389554738997,-1.5264152020305395
1725629103619510800,1.8215107421875,-0.08189560839831829,-1.1357616874963044,-1.2659502021595834
1725629103629545000,1.831544921875,-1.759375816643238,-0.9396060781896114,-0.06227437760531902
1725629103639579000,1.841578857421875,-2.529423200550675,-0.48182080914676184,0.7161962589934467
1725629103649612000,1.851612060546875,-2.6298604278117415,-0.4946154087901115,1.4031193694904445
1725629103659645700,1.861645751953125,-2.413368132919073,-0.6451449929535389,1.510686594761908
1725629103669679900,1.871679931640625,-1.824246055960655,-0.9594073417246342,1.5490037581965326
1725629103679714000,1.881714111328125,-0.9477332705438136,-0.6437210976302623,2.003044872274995
1725629103689747700,1.891747802734375,-0.35053748498409987,-0.12652969989478588,1.9820307258188723
1725629103699782000,1.901781982421875,0.0830973854035139,0.010863339319825171,1.6004869849354029
1725629103709816000,1.911816162109375,0.46773587743192907,-0.12214403215646744,1.4052555047363042
1725629103719849700,1.921849609375,0.958728711810708,-0.5948650045245886,1.4499158997178077
1725629103729884000,1.9318837890625,1.5110294168502092,-0.5965040039032697,0.7213900282442569
1725629103739917800,1.941917724609375,2.282727782835066,0.0662707537651062,-0.3290700418025255
1725629103749951700,1.95195166015625,3.1302059046864508,-0.1627361547857523,-0.3740039930284023
1725629103759986000,1.96198583984375,2.929646507462859,-0.6414946537524462,-0.659156567171216
1725629103770019800,1.972019775390625,2.017324742040038,-0.31383681683540343,-1.9623463666617869
1725629103780053800,1.9820537109375,-0.033219548034667964,0.22698329376876353,-1.0492799203515053
1725629103790088000,1.992087890625,-1.715218110486865,0.9181775057137012,-0.40832711839079855
1725629103800121900,2.002121826171875,-3.5579531783401963,1.4778192211657761,-0.824526577591896
1725629103810155000,2.012155029296875,-4.340100165364146,2.1459721647411585,-0.45178106019198894
1725629103820188700,2.022188720703125,-3.719769587932527,1.6252292120039462,0.1381277832299471
1725629103830222800,2.032222900390625,-2.815295321139693,0.5061281519293784,-0.2452577861279249
1725629103840257000,2.042257080078125,-2.247073116607964,0.2954208701789379,-0.45553719785511493
1725629103850290700,2.052290771484375,-1.735128679615259,0.6083475864320993,0.12740239107608795
1725629103860324900,2.062324951171875,-1.1480687958836555,1.0591963342100381,1.0130857404202223
1725629103870359000,2.072359130859375,-0.6095633919626474,1.1370575725257397,1.4377747955471276
1725629103880392700,2.082392822265625,0.050957157038152213,0.8838947123616934,1.1475012251287697
1725629103890427000,2.092427001953125,1.0130588524132966,0.17086334713995455,1.4341776478379964
1725629103900461000,2.1024609375,1.560012351205945,-0.7667401590555906,1.2897954803884029
1725629103910494700,2.11249462890625,1.3361299460619687,-1.6948451845437287,0.6567641190767288
1725629103920529000,2.12252880859375,0.7899760732144117,-1.6319740100890396,-0.09927461322247981
1725629103930563000,2.13256298828125,-0.0956891559511423,-1.1329618276447058,-0.32242344339489937
1725629103940596700,2.1425966796875,-1.5647075232848524,-1.1160796664267778,-0.8319856614261865
1725629103950631000,2.152630859375,-3.1989281432569023,-1.3836749565690756,-1.4319249004751442
1725629103960665000,2.1626650390625,-5.044668822667003,-1.1890759290546178,-1.8705612324118612
1725629103970698800,2.17269873046875,-7.488422741499543,-1.5438976672291755,-1.5348369934171437
1725629103980732000,2.18273193359375,-8.081865019744635,-0.016106500670313835,-1.781508153474331
1725629103990765800,2.192765869140625,-6.8965539961814875,4.7468379687368865,-1.0566180081546306
1725629104000800000,2.202800048828125,-6.926752735090255,7.500092136505246,-0.3391039445608854
1725629104010834000,2.212833984375,-7.133694526827335,8.73451352019608,0.012045242580771446
1725629104020867800,2.222867919921875,-7.657419710245728,9.101392191389202,0.35917233459949494
1725629104030902000,2.232902099609375,-8.978890431836247,9.030168199130893,-0.47735856904089446
1725629104040935700,2.242935791015625,-10.483573110008239,9.296016937866806,-1.6672797167479991
1725629104050969900,2.252969970703125,-10.145457591962813,9.878335764551162,-2.8900808052718636
1725629104061004000,2.263004150390625,-8.055538153833151,10.864738665229082,-3.75474182485342
1725629104071037700,2.27303759765625,-6.518716708600521,11.647752498215436,-4.18177247467041
1725629104081071900,2.28307177734375,-5.119144510197639,12.680981447476148,-4.769590483292937
1725629104091106000,2.29310595703125,-3.6617663117751476,12.220333774739503,-3.6812633316665884
1725629104101139700,2.3031396484375,-2.4001484397314488,10.448292537790536,-1.0983493639469146
1725629104111174000,2.313173828125,-1.75692900801301,10.971150875246524,-1.2051999653816223
1725629104121208000,2.3232080078125,-0.5403022242099046,10.890232002925872,0.5780220062732696
1725629104131241000,2.333240966796875,0.7383160286039113,11.062474237203597,1.5996750840306282
1725629104141275000,2.34327490234375,1.45377199062407,10.945774441927671,0.6265139422416687
1725629104151308800,2.353308837890625,2.0912236525960264,9.916038595479726,-1.4709142640829085
1725629104161343000,2.363343017578125,3.04730842576921,8.046822932457923,-3.5738241166889666
1725629104171377000,2.373376953125,3.769227738584578,5.915757829469442,-4.7651370110154145
1725629104181410800,2.383410888671875,4.492229001417756,4.273951576673984,-5.4385190874159335
1725629104191445000,2.393445068359375,4.531489583182335,3.0540321810662743,-5.412352380502224
1725629104201479000,2.40347900390625,4.573471698865294,1.451442963154614,-5.492019206935167
1725629104211512800,2.413512939453125,4.667883674487471,-0.3505086242157966,-5.453966247394681
1725629104221547000,2.423547119140625,4.552845090422034,-1.9693629674255846,-5.270771826469898
1725629104231581000,2.433580810546875,4.952101013606787,-3.0082971425905822,-5.3731286236166955
1725629104241614800,2.44361474609375,6.614264994776248,-4.193384002009034,-5.908970361286402
1725629104251649000,2.45364892578125,7.8790370930671685,-6.087665132704377,-6.2386120654970405
1725629104261683000,2.463682861328125,9.486310961663722,-7.137226208084821,-6.321454599356651
1725629104271716900,2.473716796875,11.40982753919363,-8.113339769938587,-5.6013125253468745
1725629104281751000,2.4837509765625,13.097919742345809,-8.546119192540646,-5.256496632879972
1725629104291784000,2.493783935546875,15.617356386411188,-8.693471315711736,-6.201454593491554
1725629104301818000,2.503818115234375,22.056814264857767,-9.08496829533279,-8.516984283471107
1725629104311852300,2.513852294921875,39.64193319776058,-5.4175037719160315,-19.17397451675534
1725629104321886000,2.523885986328125,21.217134541797638,0.10151636426728218,-12.378769601982832
1725629104331920100,2.533920166015625,12.5986001013875,-3.562433246363699,-4.506813407087326
1725629104341954300,2.543954345703125,8.14000799663365,-9.95763901836872,-1.2151900289982556
1725629104351988000,2.553988037109375,6.257857448714971,-8.52809136841893,-1.1474357586771249
1725629104362022100,2.564022216796875,4.5126919437319035,-4.400305920001864,-1.0454261675328016
1725629104372056000,2.57405615234375,-0.869603736680746,-2.6700904391303655,0.30269466057419775
1725629104382090000,2.584090087890625,-1.839177667632699,-0.008999993133358657,0.7969231158733368
1725629104392124200,2.594124267578125,-2.393836333975196,3.871062557683885,0.48313013817965983
1725629104402158000,2.604157958984375,-4.412607183170318,7.457744110119342,1.0780810674220322
1725629104412192000,2.61419189453125,-1.1629922242492436,-2.271307248023897,1.0117594602525233
1725629104422226200,2.62422607421875,-4.81673334273994,-5.93474777662158,-2.28815711440742
1725629104432260000,2.634260009765625,-3.7297239957138895,-0.1134277878679335,-1.948526515623927
1725629104442294000,2.6442939453125,-2.2880144910663365,1.0346498489093034,-0.5442798956692219
1725629104452328200,2.654328125,-0.1631312915831804,1.1229312858872116,-1.133106789073348
1725629104462361000,2.664361083984375,1.1870768641918896,1.2640009677879511,-0.6704653121709824
1725629104472395300,2.674395263671875,1.0503858357667923,1.5035897683687507,0.40668753449022765
1725629104482429000,2.684428955078125,0.7209238720372318,2.032806096549332,0.8958803337097168
1725629104492463000,2.694463134765625,0.15473229655027387,2.4462905977033076,1.386760647624731
1725629104502497300,2.704497314453125,0.2862684264302254,2.312162843894958,2.5840391723573206
1725629104512531000,2.714531005859375,0.12875146759748457,2.086365252779424,3.4888995158582925
1725629104522565000,2.724565185546875,-0.15734335583150386,2.364317247893661,4.3293835410386325
1725629104532599300,2.734599365234375,0.2620937701165676,2.6387790628045797,3.885825534790754
1725629104542633000,2.744633056640625,0.7931856829106807,2.7732389711767436,2.0375497839450833
1725629104552667100,2.754667236328125,0.7801391543328762,2.7597733404040334,-0.19699206013083456
1725629104562701300,2.764701416015625,0.9421715447634458,1.9869236124269662,-1.7125217110097408
1725629104572735000,2.77473486328125,1.6905530403077602,1.2055199911162255,-3.130457249099016
1725629104582769200,2.78476904296875,2.051405875340104,0.3455167342126369,-3.173384536677599
1725629104592803300,2.79480322265625,2.2061130374491214,-0.26412819855362174,-1.558891238221526
1725629104602837000,2.8048369140625,2.1767117325283585,-1.8340590094447136,-1.729640019071102
1725629104612870100,2.8148701171875,1.5573879940517246,-2.037321820408106,-3.656944298446178
1725629104622904000,2.824904052734375,0.12896722924001514,0.061065586337447166,-4.515983971014618
1725629104632938200,2.834938232421875,-0.23324410772919654,0.4996688927873969,-6.143773388895392
1725629104642972200,2.84497216796875,-0.05589191002659499,-1.8557097002387046,-9.173834911787509
1725629104653006000,2.855006103515625,-1.6090648436665533,-1.6192364013299345,-10.281040951406956
1725629104663040300,2.865040283203125,-2.4294997680306434,1.241073827317357,-9.807964005208015
1725629104673074000,2.875073974609375,-1.9607804325193166,3.9689223356723784,-7.99664172822833
1725629104683108000,2.885108154296875,-1.140033373466134,3.479530506749451,-5.470915628629923
1725629104693142300,2.895142333984375,0.4335293641865253,2.329983162745833,-3.536194935518503
1725629104703176000,2.905176025390625,-0.13103957853466272,1.7898671087577938,-0.8387140928983687
1725629104713210000,2.915210205078125,-0.5995427870772778,1.5907561567768453,2.798549938043952
1725629104723244300,2.925244384765625,0.7097805467322469,3.345791021606326,6.317796661370992
1725629104733278000,2.93527783203125,1.7355439824178813,4.816963644364476,9.215537041485309
1725629104743312100,2.94531201171875,1.8329048709735274,5.48164394339323,10.773957739585638
1725629104753346300,2.95534619140625,3.1170252283349633,6.693502782142162,11.750472867977619
1725629104763380000,2.9653798828125,4.822919045637548,7.005444579011201,10.183808073145151
1725629104773413000,2.9754130859375,5.6882262541681525,5.584620918264985,6.546814675837755
1725629104783447000,2.985447021484375,5.268699111849069,3.8384225631028412,2.922489036923647
1725629104793481200,2.995481201171875,3.6714290431335566,2.962166382795572,0.2544505618870258
1725629104803515100,3.00551513671875,2.55675485959053,3.002171060925722,-1.2065630704283714
1725629104813549000,3.015549072265625,2.0009411779940125,2.739653220178187,-2.1579601241767405
1725629104823583200,3.025583251953125,1.0947066235303877,2.490713238406181,-2.12778593518734
1725629104833617200,3.0356171875,0.48465194091945885,0.9937398194372653,-0.6180775378078222
1725629104843651000,3.045651123046875,0.08374298983067274,0.36934360000193117,0.032276714226603505
1725629104853685200,3.055685302734375,-0.6904588834077119,-0.2154667512372136,-0.4741197332501411
1725629104863719200,3.06571923828125,-1.9988716782435774,-1.590680168931186,-2.6242875961154697
1725629104873753000,3.075753173828125,-3.5917248072996735,-3.8776632711231707,-5.366728108924627
1725629104883787300,3.085787353515625,-5.381301408678293,-4.960613990408182,-7.596619496846198
1725629104893821200,3.0958212890625,-7.105937920373678,-4.144400483131409,-8.03655112929046
1725629104903855000,3.105855224609375,-8.194808677357434,-2.6562141817301512,-7.334335757115483
1725629104913889300,3.11588916015625,-7.991714208698272,-0.4372568602770567,-4.999219323134422
1725629104923923000,3.1259228515625,-6.545517037242651,0.7162982580631971,-2.406232289689779
1725629104933956000,3.1359560546875,-6.817863321304321,0.3265370161935687,-0.7150771918356418
1725629104943990300,3.145990234375,-5.915257478731871,-1.8706945034027098,1.6219202335864304
1725629104954024200,3.156024169921875,-4.840606385758519,-4.259842387300729,2.6357465632408856
1725629104964058000,3.16605810546875,-2.603555773732066,-4.61536788983047,1.8526777851969003
1725629104974092000,3.176092041015625,0.46272506353259085,-3.594722235549986,1.542462665989995
1725629104984126200,3.186126220703125,3.0371593721985817,-3.640029111741483,3.300347951814532
1725629104994160000,3.19616015625,5.335513470971584,-3.599981471252441,5.07143641808331
1725629105004194000,3.206194091796875,7.223230420845747,-1.1269926901072262,5.218559993195534
1725629105014228200,3.216228271484375,7.763525046271085,1.0868768066875636,5.841279219329357
1725629105024262100,3.22626220703125,8.535655081671475,5.701964272141456,8.858305904081464
1725629105034296000,3.236296142578125,7.473364288577437,7.6970900418549775,8.983362024292349
1725629105044330200,3.246330322265625,-0.2691431041061878,1.2616070583887398,7.4516908014297485
1725629105054364200,3.2563642578125,-5.541037212604284,-6.584846008068323,4.104447242927551
1725629105064398000,3.266398193359375,-6.06237111697197,-7.117410916024446,3.2610219035983086
1725629105074432300,3.276432373046875,-2.151018342214823,-0.8167137118838727,4.00282635883987
1725629105084466200,3.286466064453125,-0.3544365382492542,5.729966377788782,6.70741907929182
1725629105094499000,3.2964990234375,-0.4187155336752534,7.707877977851033,9.306732393148542
1725629105104533200,3.306533203125,-1.196647825613618,4.08368239505738,11.606858177769183
1725629105114567200,3.316567138671875,-2.0326500292047855,0.6225726572699845,8.061890737730264
1725629105124601000,3.32660107421875,0.21636209264174103,4.082201508849859,-0.46803193776905533
1725629105134635300,3.33663525390625,3.17847338424921,4.552073521527648,-14.054543590831756
1725629105144669000,3.3466689453125,5.5381327233344315,1.2026156479768455,-17.224157961320877
1725629105154703000,3.356703125,7.0353457962781185,-2.0531221777386963,-11.402986294996738
1725629105164737300,3.3667373046875,6.843624370026588,-5.825273256424069,-6.12665741892159
1725629105174771000,3.37677099609375,5.2041655571401115,-5.8036827713847154,-1.70924078964293
1725629105184805000,3.38680517578125,1.544331382471323,-1.6683203118421137,3.981201971530914
1725629105194839300,3.39683935546875,-1.2920178326129912,3.9144568782523272,5.978376490467786
1725629105204873000,3.406873046875,-1.8396834251977503,8.405286826527119,7.561939228609204
1725629105214907100,3.4169072265625,-2.890623241585493,9.924866045057772,7.143616785904765
1725629105224941000,3.426941162109375,-4.500942469227314,11.340241377270221,6.092666301992535
1725629105234975000,3.43697509765625,-4.574623791509866,10.731619650071858,4.668399222794175
1725629105245008100,3.447008056640625,-4.79263642783761,8.713533860531449,2.89077755536437
1725629105255042000,3.4570419921875,-3.8081551428720353,7.13905634612143,0.006347907721996307
1725629105265076200,3.467076171875,-2.6218881337583064,5.017172328454256,-4.811909283584356
1725629105275110000,3.47710986328125,0.23204700689911842,1.769515810124576,-9.476135020086168
1725629105285144300,3.487144287109375,6.208820738345384,-4.324070237061381,-20.38872907694578
1725629105295178500,3.497178466796875,9.612627311068772,-7.710649780651926,-22.101899607253074
1725629105305212200,3.507212158203125,14.246941308909653,-8.496975514665246,-8.64920839561522
1725629105315246300,3.517246337890625,16.235968761748076,-11.155931104058027,0.18120412389039992
1725629105325280500,3.527280517578125,5.687582695567608,-4.750466680628061,-3.6825130394667385
1725629105335314200,3.537314208984375,-0.04400777629166841,-1.4289382858797908,-3.5816724921017884
1725629105345348400,3.547348388671875,-2.0549165138095615,-0.8899251516323536,-0.6688952863752842
1725629105355382500,3.557382568359375,-3.0164205355525016,-0.2850959485847503,2.003674402350187
1725629105365416200,3.567416259765625,-3.3330279861450194,0.35314277211166917,3.858074189034104
1725629105375450400,3.577450439453125,-3.2558032921671867,0.23620324979573487,4.464361920326948
1725629105385484500,3.587484619140625,-2.7652362819850445,-0.11850224158801138,3.944836526685953
1725629105395518200,3.597518310546875,-2.1133941294804215,-0.23580745541118084,3.455658925035596
1725629105405551400,3.60755126953125,-1.3356301798462866,-0.22454781025014817,2.9594027633011337
1725629105415585300,3.617585205078125,-0.032816520191729065,0.7373965756714344,1.914872667825222
1725629105425619500,3.627619384765625,0.31626579754799605,0.816140953497216,0.3938245457857847
1725629105435653400,3.6376533203125,0.20380407823324204,0.10228705637883394,-0.4554331529587507
1725629105445687300,3.647687255859375,-0.010976736566424368,0.3378487934006378,-0.5971230125844478
1725629105455721500,3.657721435546875,-0.8421966743171214,0.7456571120817214,-0.37804537737369537
1725629105465755400,3.66775537109375,-1.6177458705112338,-0.35871874561309813,-0.8480547526955604
1725629105475789300,3.677789306640625,-1.5192577314913271,-1.554612391858548,-0.7215992870807647
1725629105485823500,3.687823486328125,-0.6539210046052932,-1.9804497402377426,1.136737839052081
1725629105495857400,3.697857421875,0.4562966379202902,-2.1671276193641127,2.122261034286022
1725629105505891300,3.707891357421875,1.4403177580282092,-1.4635342368341981,1.7757313236385583
1725629105515925500,3.717925537109375,2.104475348357111,-1.042787197331339,0.8426870881825685
1725629105525959200,3.727959228515625,2.256730441138893,0.5786256347222253,-0.4352209705352783
1725629105535993300,3.737993408203125,2.0400502224586905,1.707631747011095,-2.612876559785008
1725629105546027500,3.748027587890625,0.3869615281485021,0.6227868845425546,-4.059527904748917
1725629105556061200,3.758061279296875,-1.796013648688793,-1.1590130914852022,-3.702724637368321
1725629105566094300,3.76809423828125,-2.65740952899456,-1.3759585369728504,-1.2373171051323413
1725629105576128500,3.77812841796875,-1.9805917790569363,-0.8570475489031523,1.0540180547893048
1725629105586162400,3.788162353515625,-0.9387070835232734,-0.38949546707291155,1.5942431221097706
1725629105596196400,3.7981962890625,-0.4534720820188522,-0.22161451501091942,1.4257400743603705
1725629105606230300,3.808230224609375,-0.4893126262068748,-0.24495630069701,0.862617531055212
1725629105616264400,3.818264404296875,-0.605108750641346,-0.13332275756839662,0.2976683568447828
1725629105626298400,3.82829833984375,-0.6926129927016794,0.0015098931062966583,-0.11622633254528045
1725629105636332300,3.838332275390625,-0.7754290769457817,0.17621069951727986,-0.2836380779266357
1725629105646366500,3.848366455078125,-0.5727753377914429,0.13574965592175722,-0.31829730337560175
1725629105656400400,3.858400390625,-0.25609438357129694,-0.24786336551643906,-0.5258242015242577
1725629105666434300,3.868434326171875,-0.2511737321734428,-0.3703930359896272,-0.58740241355896
1725629105676468500,3.878468505859375,-0.3697521808028221,-0.39817247532960026,-0.46637423368990416
1725629105686502400,3.88850244140625,-0.28829554834365845,-0.2726259047206491,-0.36161505157649515
1725629105696536300,3.898536376953125,-0.16543971465602517,0.08665252060182392,-0.3244908973187208
1725629105706570500,3.908570556640625,-0.11154212025180459,0.3856657161843031,-0.2600099495798349
1725629105716603400,3.918603271484375,-0.11854936866536736,0.3663693334314972,-0.24342414095997808
1725629105726637300,3.92863720703125,-0.07462006443738937,0.39353476905897256,-0.027412907582521438
1725629105736671500,3.93867138671875,-0.06382379900440573,0.2802721086248755,0.010213935500383376
1725629105746705400,3.948705322265625,-0.11231237397193908,0.2538288497921079,0.038511224702000614
1725629105756739300,3.9587392578125,-0.16638415589928626,0.11478270960822701,-0.0020949264526367185
1725629105766772200,3.968772216796875,-0.09269698839783667,-0.19433292392417786,-0.20242694466114042
1725629105776806400,3.978806396484375,0.10989596047997474,-0.18869849823378027,-0.1408674373269081
1725629105786840300,3.98884033203125,0.2074175925552845,-0.187188751257956,0.15078209761977196
1725629105796874200,3.998874267578125,0.37905543119907376,-0.30818032544367013,0.236251472851634
1725629105806908400,4.008908447265625,0.5932451482377946,-0.12596468642316758,0.34797231067121026
1725629105816942300,4.0189423828125,0.5942248069249093,0.07480013371203094,0.5237158310681581
1725629105826976300,4.028976318359375,0.5539559249006212,-0.012577303630858658,0.5759025299012661
1725629105837010400,4.039010498046875,0.7015702061392366,0.0032666371131315824,0.41100656673312186
1725629105847044400,4.04904443359375,0.722057552242279,0.16126871258169412,0.21300620634257791
1725629105857078300,4.059078369140625,0.5679729059457779,0.2235589453432709,0.11279285096526145
1725629105867112400,4.069112548828125,0.5067195419512689,0.23535664290376007,0.019049568384885786
1725629105877146400,4.079146484375,0.6120036247216165,0.1618805060707964,-0.15997370433509348
1725629105887180300,4.08918017578125,0.8537212540246546,0.12002166970763355,-0.2722019071549177
1725629105897214500,4.09921435546875,1.0014100618042052,0.16436651420025153,-0.2355243276208639
1725629105907248400,4.109248291015625,0.7322808400928974,0.21198990543950347,-0.21628888127505777
1725629105917282300,4.1192822265625,0.2607246737204492,0.09015926834745332,-0.27243571591079235
1725629105927315500,4.1293154296875,0.05649740163907408,0.05612964603891596,-0.17127426602840423
1725629105937349400,4.139349365234375,0.15440584107488392,0.060475694152899086,-0.05925532204508781
1725629105947383300,4.14938330078125,0.47871875147819515,-0.05784519951883703,-0.06878419789075851
1725629105957417500,4.15941748046875,0.683381930758804,-0.21401158399283884,-0.01806464900076389
1725629105967451400,4.169451416015625,0.8782466234721242,-0.30516967238560316,0.05415419951379299
1725629105977485300,4.1794853515625,0.9379377065859734,-0.37096889964882285,0.059817047581076616
1725629105987519200,4.189519287109375,1.0826828621290623,-0.6921871685050428,-0.052826165780425066
1725629105997553400,4.199553466796875,1.3358870772168039,-0.7245363634459674,-0.12571955255568026
1725629106007587300,4.20958740234375,0.7870984719514846,-0.44517300369646395,-0.11549918731451034
1725629106017621200,4.219621337890625,0.3904802037939429,-0.6622602322749793,-0.382495927041769
1725629106027655400,4.229655517578125,0.5509878688752651,-0.6932143926609308,-0.5544552527248859
1725629106037689300,4.239689453125,0.5253180055677891,-0.6629266602944582,-0.5343704960733652
1725629106047723300,4.24972314453125,0.4426841460227966,-0.6413925816174596,-0.481238625344634
1725629106057757400,4.25975732421875,0.3228010445356369,-0.6211972772635519,-0.40159517978727816
1725629106067791400,4.269791259765625,0.17648951645866034,-0.578864302316308,-0.4808434885472059
1725629106077825300,4.2798251953125,-0.004137099804729223,-0.49109512570947406,-0.44784605883061884
1725629106087859500,4.289859375,-0.024342852487415075,-0.4367999102897942,-0.5256085129469633
1725629106097893400,4.299893310546875,-0.0014133739292621612,-0.3835097802594304,-0.7227443654626607
1725629106107927300,4.30992724609375,-0.15299860462546347,-0.4698154601849615,-0.9166092334836721
1725629106117961500,4.31996142578125,-0.46774975982680916,-0.4743478429175913,-0.8523369600594043
1725629106127995100,4.3299951171875,-0.597492503483966,-0.3789969790101051,-0.45652387080490586
1725629106138029300,4.340029296875,-0.5429717356801033,-0.2599189833607525,-0.1571276672542095
1725629106148063500,4.3500634765625,-0.4701952532827854,-0.018281433556601404,-0.05544423932433128
1725629106158097200,4.36009716796875,-0.4180710982918739,0.12770057030506432,0.006875146466493606
1725629106168131300,4.37013134765625,-0.342167496849969,0.18155337571948765,-0.18678689245879648
1725629106178165500,4.38016552734375,-0.3644493982195854,0.20700228975266216,-0.42800855493843554
1725629106188199200,4.39019921875,-0.491395935286954,0.14636654619984327,-0.6075467914432287
1725629106198232300,4.400232421875,-0.596841309566237,0.08048018864244222,-0.4966413616597652
1725629106208266200,4.410266357421875,-0.44993342303130773,-0.07966872612908482,-0.22765841655135152
1725629106218300400,4.420300537109375,-0.47459440155718474,-0.3476747890293598,-0.09900982480645179
1725629106228334300,4.430334228515625,-0.6889782894611358,-0.39513168286159633,-0.2785205887824297
1725629106238368300,4.4403681640625,-0.6400619906008244,-0.3109989630609751,-0.3596259235858917
1725629106248402400,4.45040234375,-0.4825041152358055,-0.2521361474648118,-0.1616974593877792
1725629106258436400,4.460436279296875,-0.44050797102749345,-0.3305282777868211,0.3524234448611736
1725629106268470300,4.47047021484375,-0.5524672937780618,-0.5076166369214654,1.15850426518023
1725629106278504200,4.480504150390625,-0.6141495507091284,-0.503852754343301,1.9627923568636179
1725629106288537900,4.490537841796875,-0.32150515950620173,-0.4782620937518775,2.4287556716650722
1725629106298572000,4.500572021484375,0.02736263870000839,-0.5906812890991568,2.3307938946068285
1725629106308606200,4.510606201171875,0.3714379419326782,-0.5029816705971956,1.8518419188946484
1725629106318639900,4.520639892578125,0.11611768453903495,-0.2992385287709534,1.1290607285529375
1725629106328674000,4.530674072265625,-0.1181972672920674,-0.13381357329264282,0.2516185533314943
1725629106338708000,4.5407080078125,-0.08760098043307661,0.036374358803778886,-0.3210948251396417
1725629106348742000,4.550741943359375,0.20614874166324734,0.3604695348031819,-0.4671978250324726
1725629106358775000,4.560775146484375,0.7962889096230268,0.43861236653923985,-0.369651643037796
1725629106368809000,4.57080908203125,1.0370558871377258,0.362064841170609,-0.12518413050472735
1725629106378843100,4.580843017578125,0.959283569214493,0.3622789223127067,-0.39486733283698555
1725629106388877000,4.590876953125,0.6449084077186882,0.2046260621406138,-0.9849234757751226
1725629106398911000,4.600910888671875,0.3192272777020931,0.11623320067748427,-1.0607377184331417
1725629106408945200,4.610945068359375,0.09127090111747384,-0.04227919893339276,-0.9605237785339354
1725629106418978800,4.620978759765625,-0.15138576260134576,-0.26932036036923523,-0.43404841962456703
1725629106429013000,4.631012939453125,-0.14587328279018402,-0.3648565177157521,-0.012733809366822241
1725629106439047200,4.641047119140625,-0.07594868269264697,-0.5104917539663613,-0.06364975761175155
1725629106449080800,4.651080810546875,-0.18262670403942466,-0.7096629117019474,0.15509703820943832
1725629106459115000,4.661114990234375,-0.09448913251161575,-0.7028992627859115,0.31424130598306654
1725629106469149200,4.671149169921875,0.13847089757919312,-0.754820004159212,0.24533494301736353
1725629106479182800,4.681182861328125,0.2779191157579422,-0.6929391559161245,0.28276480222344397
1725629106489217000,4.691217041015625,0.24756284819990396,-0.6035714580714703,0.49201194829344747
1725629106499251200,4.701251220703125,0.33965222609341145,-0.591146422392875,0.3481839075952768
1725629106509284900,4.711284912109375,0.42910219539403915,-0.38456133513897656,0.13434300399422644
1725629106519319000,4.721319091796875,0.4175479512006044,-0.24513430587872861,0.1974573395550251
1725629106529352000,4.73135205078125,0.42916663893237705,-0.15526815699264407,0.37877193808257575
1725629106539386000,4.74138623046875,0.5681580532543361,-0.06927811888754368,0.5640536866754293
1725629106549420000,4.751419921875,0.5895045004047453,0.04513634193018078,0.6631704789876938
1725629106559454000,4.761453857421875,0.5629666220910847,0.0893634600609541,0.7275187402576208
1725629106569488100,4.771488037109375,0.5580594146966934,0.07647592143714428,0.9330424818903207
1725629106579522000,4.78152197265625,0.6231603940300643,0.124706429990381,0.901890972301364
1725629106589556000,4.791555908203125,0.717585375264287,0.07027458257898687,0.5295762475341558
1725629106599590100,4.801590087890625,0.7541589099019765,0.122710872258991,0.09766367089450359
1725629106609624000,4.8116240234375,0.7831634705901146,0.03778247203603387,-0.48775312180519104
1725629106619658000,4.821657958984375,0.804636466729641,0.06853679900094867,-0.9997200628906487
1725629106629692200,4.831692138671875,0.6493110265918076,-0.02735555137209594,-1.3352069859981537
1725629106639725800,4.841725830078125,0.46023967645764347,-0.11752440953180193,-1.4851047019988297
1725629106649760000,4.851760009765625,0.2602063489347696,-0.19483100963942707,-1.4588549929767847
1725629106659794200,4.861794189453125,0.16126447479799388,-0.2939923717457801,-1.3257289635568856
1725629106669827800,4.871827880859375,0.15447525304928422,-0.3651744245585054,-1.1962918517827987
1725629106679862000,4.881862060546875,0.1872831515431404,-0.5361074028685688,-1.1975269465357063
1725629106689896200,4.891896240234375,0.26324527823925015,-0.6218807294830679,-1.0821312195956707
1725629106699929000,4.90192919921875,0.4143956246495247,-0.6282791252832859,-0.7664636802017688
1725629106709963000,4.911962890625,0.5048191151574254,-0.638417730525136,-0.23502456140518188
1725629106719997000,4.921996826171875,0.4620511097937822,-0.46446774248145517,0.30359073263108727
1725629106730031000,4.932031005859375,0.3109311585217714,-0.4125676785700023,0.5644651900857687
1725629106740065000,4.94206494140625,0.2600578803747892,-0.5907262242194264,0.6486182220220565
1725629106750099000,4.952098876953125,0.10778846680670975,-0.642802886806801,0.8812631948143244
1725629106760133000,4.962133056640625,-0.01971300072968006,-0.5115994960125535,1.09151338044703
1725629106770167000,4.9721669921875,0.0484700163975358,-0.5936156620506197,0.802155755829811
1725629106780201000,4.982200927734375,0.046133390143513676,-0.2168487436475232,0.5628156693130731
1725629106790235100,4.992235107421875,-0.11822510514706372,0.40247251061107964,0.7035428213864564
1725629106800269000,5.00226904296875,-0.28058687366247176,0.9455498620901256,0.4653238478541374
1725629106810303000,5.012302978515625,-0.4004682215839624,1.4157878585360943,-0.20299743802547454
1725629106820337200,5.022337158203125,-0.6605117811724543,1.578285674521327,-0.8015344090610742
1725629106830371000,5.03237109375,-0.8374529869213699,1.6499749462038278,-1.238444063335657
1725629106840405000,5.042405029296875,-0.8077905468463897,1.7925203997455537,-1.3673416614055633
1725629106850439200,5.052439208984375,-0.7802072511330247,1.2858029036208987,-1.3830933572888373
1725629106860472000,5.06247216796875,-0.7680626398310065,0.7047748473994433,-0.899389803135395
1725629106870506000,5.072506103515625,-0.7972226833418011,-0.06623284660724457,-0.2963350624144077
1725629106880540200,5.0825400390625,-0.956361982679367,-0.4330828990606591,0.43699674803614613
1725629106890574000,5.092573974609375,-1.0908397189691663,-0.50374980542548,1.0344038382589817
1725629106900608000,5.10260791015625,-0.9773886963561177,-0.403301289585419,1.3200100013881921
1725629106910642200,5.11264208984375,-0.7188146247982978,-0.3785695108456537,1.0432049843519926
1725629106920676000,5.122676025390625,-0.5650152251839637,-0.3646689227217808,0.37171500530838963
1725629106930710000,5.1327099609375,-0.6696709469228983,-0.7435173235740512,-0.12219605460464954
1725629106940744000,5.142743896484375,-0.5548042122930288,-0.6206047912631184,0.03244739461839199
1725629106950778000,5.152778076171875,-0.4756149402439594,-0.34829624539595094,0.42110242881178855
1725629106960812000,5.16281201171875,-0.1655108801960945,-0.32465777831822634,0.511992660048604
1725629106970846000,5.172845947265625,0.13126082006990908,-0.07008574547600001,0.6188181270420551
1725629106980880100,5.182880126953125,0.11943828032910823,0.1704232204233296,0.6223620832592248
1725629106990914000,5.1929140625,0.09066197543889283,0.3282442950354889,0.37482290819585323
1725629107000948000,5.202947998046875,0.19655103836506604,0.37652770281974224,0.22478899859488008
1725629107010982100,5.212982177734375,0.24671967537403106,0.34687647825852036,0.23959143092930316
1725629107021016000,5.22301611328125,0.2507198509261012,0.07647741927448659,-0.03376899861097336
1725629107031049000,5.233049072265625,0.31057576921284197,0.03384860318582505,-0.08787468280792236
1725629107041083100,5.243083251953125,0.3582715863674879,0.04889770375769585,0.08962357230186462
1725629107051117000,5.253116943359375,0.31006781969070435,0.07158880698271096,0.1199444762855768
1725629107061151000,5.26315087890625,0.18589023588001727,0.0015642171094194053,0.0176198278427124
1725629107071185200,5.27318505859375,0.08143851228058338,0.029374015055038033,0.019010405418276786
1725629107081219000,5.283218994140625,0.08473930739164352,0.09125658033117652,0.03209142078757286
1725629107091253000,5.2932529296875,0.17223668131977318,0.1944721131991595,0.24112463184595107
1725629107101287200,5.303287109375,0.21819033098220825,0.3311766586929559,0.31873452574908734
1725629107111321000,5.313321044921875,0.2812380310475826,0.3093938659518957,0.13504969095885752
1725629107121355000,5.32335498046875,0.31548166143298145,0.1772938916441053,0.07428221078515053
1725629107131389200,5.33338916015625,0.37310645966678857,0.20899163693897424,-0.05512275228500366
1725629107141423000,5.343423095703125,0.6513298190683126,0.1554756622634828,-0.5926818152666091
1725629107151457000,5.35345703125,0.9116028034985065,-0.03129347534291446,-1.0777823767364025
1725629107161491200,5.3634912109375,0.9477262562811374,-0.030533012364432215,-1.319109253156185
1725629107171525000,5.373525146484375,0.4747539395004511,0.14583229319266974,-1.1815005253642796
1725629107181559000,5.38355908203125,-0.4951090375259518,0.01630932976603508,-0.875616713359952
1725629107191592000,5.393592041015625,-1.1677663067832589,-0.1564728566072881,-0.6589800415605306
1725629107201626000,5.403626220703125,-1.1104445831492542,-0.3036129444628954,-0.5107470439016819
1725629107211660000,5.413659912109375,-0.6646434741497039,-0.430786495219171,-0.4053244294434786
1725629107221694000,5.42369384765625,-0.24076661218851803,-0.4213048195160925,-0.44154140572845935
1725629107231728000,5.43372802734375,0.04933160166293382,-0.43335064661875367,-0.6764940709412097
1725629107241762000,5.443761962890625,0.19485066418796776,-0.5160147551715374,-0.7967892603605985
1725629107251796000,5.4537958984375,0.19238865798860788,-0.42042073015794157,-0.688866061258316
1725629107261830100,5.463830078125,0.25522972956597806,-0.30565292585790155,-0.33293431601524354
1725629107271864000,5.473864013671875,0.4439262550383806,-0.25651918485462666,0.1308294429153204
1725629107281898000,5.48389794921875,0.6046025546848773,-0.12127148710563779,0.607428718021512
1725629107291932200,5.49393212890625,0.6338304027348757,0.027108225547522305,0.924393896010518
1725629107301966000,5.503966064453125,0.5467039079457521,0.14882818707302212,0.5788023429960012
1725629107312000000,5.514,0.43606852727532386,0.25145824820324775,0.018688333857059477
1725629107322034200,5.5240341796875,0.27440438563525676,0.24713351687192917,-0.3590373100429773
1725629107332068000,5.534068115234375,0.11651157922744751,0.21282281259968874,-0.5822568673640489
1725629107342102000,5.54410205078125,0.08153086673915386,0.2452555941708386,-0.5467740505725145
1725629107352136200,5.55413623046875,0.06638999623060227,0.20331775602102278,-0.44647301691174507
1725629107362169000,5.564169189453125,0.0017635025411844253,0.007732640078663825,-0.4689344395667314
1725629107372203000,5.574203125,-0.005201952557265758,-0.14227233568876982,-0.016871055302023888
1725629107382237200,5.5842373046875,-0.15966975295245647,-0.2769099387153983,0.7540320686519145
1725629107392271000,5.59427099609375,-0.4471174522951245,-0.4786988777339458,1.2776900320529938
1725629107402305000,5.604304931640625,-0.6463204664736986,-0.6126153268791735,1.1366384703308343
1725629107412339200,5.614339111328125,-0.6937982569634914,-0.715764151186496,0.43983752442002294
1725629107422373000,5.624373046875,-0.6963496950119733,-0.8475393505193293,0.09167699770033359
1725629107432407000,5.634406982421875,-0.7065870113879442,-0.9860983647733926,0.0703057083696127
1725629107442441200,5.644441162109375,-0.6767705497950315,-0.9843893688984214,0.07288754155635833
1725629107452475100,5.65447509765625,-0.9499521156370639,-0.8561616329140961,0.1231342122375965
1725629107462509000,5.664509033203125,-1.1266174270540474,-0.6827003782354295,0.45052842978239055
1725629107472543200,5.674543212890625,-0.8073615077793598,-0.4489619111180305,0.7328127550125122
1725629107482577200,5.6845771484375,-0.44237844107449054,-0.17865926171317695,0.7779939589977264
1725629107492611000,5.694611083984375,-0.19862346072494982,-0.05019610953778028,0.6213029295951128
1725629107502645000,5.70464501953125,0.030895489001274107,0.06941095148697494,0.5043021055459976
1725629107512679200,5.71467919921875,0.2155295873403549,0.03610094868987798,0.1851438014268875
1725629107522713000,5.724713134765625,0.49104631813168526,0.05652575095072388,-0.2017617587506771
1725629107532746000,5.73474609375,0.5097346519887447,0.2917820752851665,-0.4635848952323198
1725629107542780200,5.7447802734375,0.49997021382153034,0.36619974901825186,-0.6583341448724269
1725629107552814000,5.75481396484375,0.6879547916322946,0.3572676700219512,-0.27082652714848515
1725629107562848000,5.764847900390625,0.7320680741250515,0.3120530021585524,0.48278351669907565
1725629107572882200,5.774882080078125,0.6292009893685578,0.29892624795138834,0.2708838102936745
1725629107582916000,5.784916015625,0.6215630418360233,0.28558585099354383,-0.3331967663437128
1725629107592950000,5.794949951171875,0.5668120454728603,0.06934869990572333,0.16374328600168228
1725629107602984200,5.804984130859375,0.3138812404990196,-0.18669738754443824,0.6550947245597839
1725629107613018000,5.81501806640625,-0.11695932299494742,-0.2605215523637831,-0.03296294292509556
1725629107623052000,5.825052001953125,-0.2313245378434658,-0.37162747315540906,-0.30690438722372054
1725629107633086200,5.835086181640625,-0.12209785492718218,-0.705771091895178,0.41969957627654075
1725629107643120000,5.8451201171875,-0.09767477681040763,-0.9423579341810197,0.59249359921813
1725629107653154000,5.855154052734375,-0.10586685109436511,-1.0193861557386814,0.18084288936257362
1725629107663188200,5.865188232421875,-0.009950900650024413,-1.0148278348471969,0.20355039573311803
1725629107673222100,5.87522216796875,0.12457096704244613,-1.054114135574922,0.4121586593776941
1725629107683256000,5.885256103515625,0.22096564091444015,-0.9376192882865667,0.42869303007125853
1725629107693289000,5.8952890625,0.33739772516489025,-0.7168875291932374,0.6127601421773433
1725629107703323100,5.9053232421875,0.49379474005699153,-0.5544510880064218,0.6653723729461432
1725629107713357300,5.915357421875,0.6154279000818729,-0.33805845409594476,0.19715046556293964
1725629107723391000,5.925390869140625,0.6221259364157915,-0.1672897264368832,-0.034976036313176154
1725629107733425200,5.935425048828125,0.5050619840025902,-0.06119586165361106,0.03677051851451397
1725629107743459300,5.945459228515625,0.3393178795725107,0.05090265037193894,0.2660977450609207
1725629107753493000,5.955492919921875,0.15991817475557327,0.12182495626993477,0.39539281801581383
1725629107763527200,5.965527099609375,0.03301204276382923,0.08177161669246852,-0.11331424449086189
1725629107773561300,5.975561279296875,-0.033463585923612114,0.05918751750588417,-0.6887368819206953
1725629107783595000,5.985594970703125,-0.1924193453878164,0.044387788585200906,-1.0754752688378095
1725629107793629200,5.995629150390625,-0.32484161045253274,-0.06414280182570219,-1.360262516799569
1725629107803663000,6.0056630859375,-0.3491770102858543,-0.12618548956699668,-1.0635855090796946
1725629107813697000,6.015697021484375,-0.30035218910127875,-0.19878281600512562,-0.534109799310565
1725629107823731200,6.025731201171875,-0.10707885723263025,-0.3244152747992426,-0.2958873186469078
1725629107833765000,6.03576513671875,0.1735270133912563,-0.39052455439232286,-0.27542554537653924
1725629107843799000,6.045799072265625,0.30285598861575125,-0.3832673498056829,-0.36135377029180527
1725629107853833200,6.055833251953125,0.22905454708486794,-0.4234252457361668,-0.3644312780410051
1725629107863866000,6.0658662109375,0.12047113050818442,-0.5651210967112332,-0.3663105159163475
1725629107873900300,6.075900390625,0.03685527418851852,-0.6468285621263087,-0.4880968206763267
1725629107883934000,6.085933837890625,-0.04268704908192158,-0.5634850930072367,-0.6302829393863678
1725629107893968100,6.095968017578125,-0.05073299289345741,-0.575246111819148,-0.8697592195034026
1725629107904002300,6.106002197265625,-0.0656523296058178,-0.6413153516627847,-0.8278110060900449
1725629107914036000,6.116035888671875,-0.05049976865947246,-0.6748449154946953,-0.5418488691300153
1725629107924070100,6.126070068359375,-0.07858136928379535,-0.717425946918875,-0.351104178956151
1725629107934104300,6.136104248046875,-0.15081541536748408,-0.6579283405505121,-0.17317688477933404
1725629107944138000,6.146137939453125,-0.2437158173829317,-0.7247516866970807,-0.08578677061796187
1725629107954172200,6.156172119140625,-0.27018706020116806,-0.7190571283172815,-0.016100655451416968
1725629107964206300,6.166206298828125,0.04640811543166637,-1.0325994191855192,0.0045984337061643595
1725629107974240000,6.176239990234375,0.40223172412514685,-1.3115420327723026,0.11509177555739879
1725629107984274200,6.186274169921875,0.2552192081719637,-0.9543704435359686,0.7000514721393585
1725629107994308400,6.196308349609375,-0.0477706359565258,-0.480744412086904,1.259173547631502
1725629108004342000,6.206342041015625,-0.2751917366206646,-0.1442522574596107,1.5031629212588071
1725629108014376200,6.216376220703125,-0.3014683336496353,0.3619717925922945,1.6143611965090034
1725629108024409000,6.2264091796875,-0.1877104370445013,0.6376702731586993,1.3161451426535844
1725629108034443300,6.236443359375,-0.020989012014865874,0.7795298633281141,0.7825064679861068
1725629108044477200,6.246477294921875,0.08767126919031143,0.8825425671003758,0.17717384546101092
1725629108054511000,6.256510986328125,0.0875529035076499,0.8172814287692308,-0.49385143868029113
1725629108064545300,6.266545166015625,0.07729717469215393,0.6371807360760867,-0.9710931033432483
1725629108074579200,6.2765791015625,0.06660130089372396,0.2107745200340636,-0.9839642753541469
1725629108084613000,6.286613037109375,-0.13692103778868914,0.3100508320232853,-0.2781751363456249
1725629108094647300,6.296647216796875,-0.4634679908543825,0.37287228558473284,0.35856384731233115
1725629108104681000,6.306680908203125,-0.6337935778558254,0.3119100500239059,0.8185434115290642
1725629108114715100,6.316715087890625,-0.49958092224299905,0.5991011077243834,1.2300041517704725
1725629108124749000,6.3267490234375,-0.4945633863419294,-0.3967705726424232,0.4589496366471052
1725629108134783000,6.336782958984375,-0.765502726215124,-0.7132568445406854,-0.09242693928480147
1725629108144817200,6.346817138671875,-0.800344907015562,-0.736470766063407,-0.18699264416396616
1725629108154851000,6.35685107421875,-0.5216027844369411,-0.8516874101094901,-0.051233928152918815
1725629108164885000,6.366885009765625,-0.22795564593225717,-0.7901027683340013,0.24015081837773322
1725629108174919200,6.376919189453125,0.027850129956007,-0.8117950332473963,0.16233108111619948
1725629108184953000,6.386953125,0.2738017435669899,-0.5803756201947108,0.2605249133646488
1725629108194986000,6.396986083984375,0.3654074295967817,-0.12673826461154966,0.5330564908653498
1725629108205020200,6.407020263671875,0.22479279798716306,-0.02131411578338593,0.41453240277171133
1725629108215054000,6.41705419921875,0.06140080964118242,0.015928751216921954,0.23447511082887648
1725629108225088000,6.427087890625,0.06410860729515552,0.1465051509529352,0.11878420033454894
1725629108235122200,6.4371220703125,0.1071872860431671,0.15492697887215762,-0.23396599226295947
1725629108245156000,6.447156005859375,0.13619886099398135,0.02811758525315672,-0.6253595115095376
1725629108255190000,6.45718994140625,0.12459902409315109,0.09998115405663847,-0.8231301547974348
1725629108265224200,6.46722412109375,0.14106734381318092,0.15999496631883084,-1.0581395186334848
1725629108275258000,6.477258056640625,0.362061041778326,0.17859525656625627,-1.1224123765796423
1725629108285292000,6.4872919921875,0.6449579459488392,0.4934467303369194,-0.6916390331029891
1725629108295326000,6.497325927734375,0.757712802991271,0.7656768406730144,-0.378486106878519
1725629108305360100,6.507360107421875,0.8290414246678351,0.804951158702001,-0.11343874765336513
1725629108315394000,6.51739404296875,0.8710749782770871,0.7339291918218135,0.016271920365095137
1725629108325428000,6.527427978515625,0.7914660195112228,0.6994237686950713,-0.17970774785280227
1725629108335462100,6.537462158203125,0.4646972403883934,0.540902601255849,-0.2530307582169771
1725629108345496000,6.54749609375,-0.10316402187645435,0.19242679804190993,-0.250278244638443
1725629108355530000,6.557530029296875,-0.4013397437214851,-0.10286913058310747,-0.31382454187572
1725629108365563000,6.56756298828125,-0.3514338493019342,-0.3380097195833921,-0.47386955788135526
1725629108375597000,6.57759716796875,-0.04652677337527275,-0.504541028868407,-0.46458092053234573
1725629108385631000,6.587630859375,0.2331622746646404,-0.4936301971450448,-0.24569267041385173
1725629108395665000,6.597664794921875,0.38258535889089107,-0.5003809865795076,-0.153062902033329
1725629108405699000,6.607698974609375,0.42763270736336706,-0.4946905198529362,-0.1686082616895437
1725629108415733000,6.61773291015625,0.43214638539552686,-0.33656521986350413,-0.3349468248814344
1725629108425767000,6.627766845703125,0.32499592423141,-0.313900091329962,-0.5950497134417295
1725629108435801000,6.637801025390625,0.27113457018435,-0.2729850203566253,-0.7054875257134438
1725629108445835000,6.6478349609375,0.1636322268426418,-0.13196721477359533,-0.5834042838335037
1725629108455869000,6.657868896484375,0.04635960011482238,-0.11547931357026099,-0.12290274156928062
1725629108465903000,6.667903076171875,-0.05448153177201748,-0.06958996131569146,0.24494623596072196
1725629108475936800,6.677936767578125,-0.09389175114035606,-0.03783113348335027,0.17978198213279245
1725629108485971000,6.687970947265625,-0.07227262452840805,-0.03649608548730612,0.016610943061113357
1725629108496005000,6.698005126953125,-0.3016688246577978,0.1352709324941039,-0.578944381815195
1725629108506038800,6.708038818359375,-0.4755576570987701,0.13491890418604016,-1.3393085760980843
1725629108516073000,6.718072998046875,-0.5019499894618987,-0.00007788754180073738,-1.2916069137245416
1725629108526105900,6.72810595703125,-0.46265959708094595,-0.04155716826915741,-0.45170974852144713
1725629108536140000,6.73814013671875,-0.4103372891694307,-0.0820738875746727,0.30288755279779433
1725629108546174000,6.748174072265625,-0.43846097536981105,-0.05986497837603092,0.5450672466546297
1725629108556207900,6.758207763671875,-0.3328442996442318,-0.028409955795854328,0.5779027638077735
1725629108566242000,6.768241943359375,-0.17149053912758827,-0.07150894667953252,0.4798766893416643
1725629108576276000,6.77827587890625,-0.1634539476662874,-0.27584172496199605,0.01144727668762207
1725629108586310000,6.788309814453125,-0.17474983318448065,-0.5127601372897624,-0.19373802677094934
1725629108596344000,6.798343994140625,-0.2767886504232883,-0.688720515307784,-0.11419979515373706
1725629108606378000,6.8083779296875,-0.5142003992259502,-0.8908157437965273,0.07394201904535293
1725629108616412000,6.818411865234375,-1.1155822382986544,-0.9803286953307687,0.2816173857539892
1725629108626446000,6.828446044921875,-1.3868284521639347,-0.9795239548191428,0.36804537688493727
1725629108636480000,6.83847998046875,-1.084018056255579,-0.8176473394721746,0.6145861885607242
1725629108646514000,6.848513916015625,-0.6826315507829189,-0.7236477440431713,0.9056476944863796
1725629108656548000,6.858548095703125,-0.25132161621153354,-0.5731213747501372,1.3295149118363856
1725629108666582000,6.86858203125,0.35749767938554283,-0.47225116289928554,1.6464537863403559
1725629108676616000,6.878615966796875,0.9258686447381973,-0.24100217451006173,1.8626959058642387
1725629108686649000,6.888649169921875,1.252429918590188,0.194453919955343,1.686213549798727
1725629108696683000,6.89868310546875,1.1696452523976564,0.39635757139474154,0.6807137344628572
1725629108706717000,6.908717041015625,1.1097761823683976,0.37291692844405766,-0.25422435191571713
1725629108716751000,6.918751220703125,1.0663128882169723,0.428082204696536,-0.34491350762248035
1725629108726785000,6.928784912109375,1.268621759456396,0.2935489388272166,0.14581950677633285
1725629108736819000,6.93881884765625,1.191091360530257,0.28149069063439963,0.6576759732246399
1725629108746853000,6.94885302734375,0.9818389537632465,0.34609146536067126,0.27779753520488737
1725629108756887000,6.958886962890625,0.7805892361879349,0.41302287499159573,-0.29586452229321003
1725629108766921000,6.9689208984375,0.554789014723897,0.406595472292602,-0.2024976718097925
1725629108776955000,6.978954833984375,0.21174948427975177,0.3198540312983095,-0.024926351463794707
1725629108786989000,6.988989013671875,-0.17685878816246986,0.2459226797774434,-0.09482815520763396
1725629108797023000,6.99902294921875,-0.5147147784888744,0.13794322044327853,-0.14596797533631323
1725629108807057000,7.009056884765625,-0.9005342969954013,0.06842647049427032,-0.1163239477008581
1725629108817091000,7.019091064453125,-1.107087966197729,0.010835282269120216,-0.02275777525305748
1725629108827125000,7.029125,-0.9797183083474635,-0.11574746298715471,-0.01854921764731407
1725629108837159000,7.039158935546875,-0.6289823781818151,-0.22966814893856644,-0.07894201928973198
1725629108847193000,7.049193115234375,-0.20321780277788637,-0.2784083605796099,-0.18677227941155433
1725629108857226000,7.05922607421875,0.2595411630243063,-0.2428286592848599,-0.315760478374362
1725629108867260000,7.069260009765625,0.5618798497676849,-0.3042646863698959,-0.20026888984441757
1725629108877294000,7.079294189453125,0.5923270104795694,-0.3218250391103327,0.10008651412725449
1725629108887328000,7.089327880859375,0.49486207702755924,-0.30167861539945007,0.12179214997887611
1725629108897362000,7.09936181640625,0.3459755838960409,-0.20211729419007896,-0.25178163493871686
1725629108907396000,7.10939599609375,0.25570786847174165,-0.17783362454399465,-0.6466980676144362
1725629108917430000,7.119429931640625,0.17201543978452682,-0.19226093995571136,-0.8144283774256705
1725629108927464000,7.1294638671875,0.14379413842856884,-0.29111615872234103,-0.9487661207228898
1725629108937498000,7.139498046875,0.055338440862298006,-0.3774807292282581,-0.9777285958349704
1725629108947532000,7.149531982421875,-0.09776771579086779,-0.4177195083752274,-0.7666565724253654
1725629108957566000,7.15956591796875,-0.2339870350509882,-0.46542336270585655,-0.6392284623861313
1725629108967600000,7.16960009765625,-0.36977147002518174,-0.5320582736082374,-0.46869361654818054
1725629108977634000,7.179634033203125,-0.4232172290086746,-0.49897185043394565,-0.2113695450514555
1725629108987668000,7.18966796875,-0.3462602460563183,-0.3324934403799474,-0.2594341955184936
1725629108997702000,7.199701904296875,-0.1799848112285137,-0.27965521883554756,-0.4641729242533445
1725629109007736000,7.209736083984375,-0.004140753066539764,-0.19600575250722466,-0.4806587796300649
1725629109017769200,7.219769287109375,0.18512918837964534,-0.14009747586771845,-0.392787019431591
1725629109027803000,7.229802978515625,0.3626543314963579,-0.18541158551760017,-0.3199152599662542
1725629109037837000,7.239837158203125,0.45027124015092845,-0.19081154486499727,-0.2688642871648073
1725629109047871200,7.249871337890625,0.4765642037928104,-0.2871892676021904,-0.38638942734897136
1725629109057905000,7.25990478515625,0.48560792647004125,-0.4892779202196747,-0.3559399285495281
1725629109067939000,7.26993896484375,0.5740495955109596,-0.5383285129841416,-0.1338227795124054
1725629109077973000,7.279972900390625,0.6532973197489976,-0.5579368842955679,0.12739829942286013
1725629109088007000,7.2900068359375,0.5323562336415052,-0.7138024957247078,0.3175280725687742
1725629109098041000,7.300041015625,0.3630272564619779,-0.7993756235919892,0.4140601090848446
1725629109108075000,7.310074951171875,0.3030769378900528,-0.7071672954939305,0.5030845464497804
1725629109118109000,7.32010888671875,0.333300811240077,-0.7986136262435466,0.4085562509715557
1725629109128143000,7.33014306640625,0.5598240862816571,-1.2785560012325643,0.13738894756138323
1725629109138177000,7.340177001953125,0.41349370737373825,-0.9116872669115662,0.4427192173361778
1725629109148211000,7.3502109375,-0.20827274807989596,0.10176664923392235,1.0581675756841897
1725629109158245000,7.3602451171875,-0.7515975349813699,0.8593883398756385,1.2916010685056447
1725629109168279000,7.370279052734375,-1.0007260250627994,1.4385253216534852,1.1825322064995765
1725629109178313000,7.38031298828125,-0.8592910169810056,1.573865519991517,0.5566606538146734
1725629109188345900,7.390345947265625,-0.546692802029848,1.2784149853266775,-0.4770125320822
1725629109198380000,7.400380126953125,-0.19904548552930354,1.019474710804969,-1.1372680004060267
1725629109208414000,7.4104140625,0.04516249928474426,0.8763694314233959,-1.1856091297268867
1725629109218448000,7.42044775390625,0.08992343203127384,0.676070292571187,-0.8822942914277314
1725629109228482000,7.43048193359375,-0.1636462553679943,0.4947557671088725,-0.23937691139578818
1725629109238516000,7.440515869140625,-0.5264414566397667,0.4252197279375046,0.6220569628328084
1725629109248550000,7.4505498046875,-0.8123860579431057,0.3259202725347131,1.1243880605667829
1725629109258584000,7.460583984375,-0.7422691501438617,0.2088489770652726,1.2404723542928695
1725629109268618000,7.470617919921875,-0.5162696067154408,-0.2253304119952023,0.7321931618094444
1725629109278652000,7.48065185546875,-0.2825730790436268,-0.6215010094504803,0.025992519390583037
1725629109288686600,7.4906865234375,-0.24354805960059164,-0.6842744956843555,-0.30322189931869503
1725629109298720500,7.500720458984375,-0.33901042105853557,-0.5342152689790353,-0.22200199822485445
1725629109308754700,7.510754638671875,-0.4175046965807676,-0.38425910078939046,-0.10567512791454792
1725629109318788600,7.52078857421875,-0.2949965072870254,-0.28067875319700686,-0.006603928309679031
1725629109328822500,7.530822509765625,-0.018969488885998725,-0.14881233191676438,0.30574469579458236
1725629109338856700,7.540856689453125,0.26197803478240966,-0.03798537419699132,0.6933072585761547
1725629109348889600,7.5508896484375,0.4079863421291113,-0.10221863078512251,0.8121060719579458
1725629109358923800,7.560923828125,0.5493699122846126,-0.021141060771420597,0.8322849366337061
1725629109368957400,7.57095751953125,0.581309357380867,0.1496692410070449,0.6408037488788366
1725629109378991600,7.58099169921875,0.558578470134735,0.16101766043007373,0.1627045906037092
1725629109389025800,7.59102587890625,0.49389995399713515,0.1875639412458986,-0.258075766646862
1725629109399059500,7.6010595703125,0.4068862719327211,0.4111211330235004,-0.49020986730754373
1725629109409093600,7.61109375,0.40970366744101044,0.4821898616548627,-0.7057084749877452
1725629109419127800,7.6211279296875,0.3879582841008901,0.383346406391263,-0.8380325403749942
1725629109429161500,7.631161376953125,0.4661000929236412,0.43557299884334205,-0.822335205027461
1725629109439195600,7.641195556640625,0.6356593717277049,0.5367850098691881,-0.7825958998352289
1725629109449229800,7.651229736328125,0.5811579662114381,0.5418243192106486,-0.6832464678108692
1725629109459263500,7.661263427734375,0.03886252235770225,0.28962694307789205,-0.646030543616414
1725629109469297700,7.671297607421875,-0.4940910926550626,0.10909998779669404,-0.5205348629444837
1725629109479331800,7.681331787109375,-0.5793219829559326,0.11739026175811886,-0.4903419692546129
1725629109489365500,7.691365478515625,-0.1399485689163208,0.22858459148555993,-0.7309557289689779
1725629109499399700,7.701399658203125,0.27188509629070756,0.3978440105602145,-0.8563672384887934
1725629109509432600,7.7114326171875,0.4203671002745628,0.5578704679958522,-0.8424643853425979
1725629109519466800,7.721466796875,0.39623745214641093,0.559591446569562,-0.8767138609468936
1725629109529500700,7.731500732421875,0.3087842096209526,0.5763417981013655,-0.8793407023191452
1725629109539534600,7.74153466796875,0.3068646397352218,0.6925812823891639,-0.7568126392811536
1725629109549568800,7.75156884765625,0.29268180060386656,0.6722257459722459,-0.6609422815442085
1725629109559602700,7.761602783203125,0.18994857136011123,0.49039106909334657,-0.6737935798108577
1725629109569636600,7.77163671875,0.15979776324629782,0.36937531031444665,-0.47454058901071544
1725629109579670800,7.7816708984375,0.19164193127453327,0.192382812769711,-0.31827216893434523
1725629109589704400,7.791704345703125,0.2642728677213192,-0.13555661756768822,-0.4416992266386747
1725629109599738600,7.801738525390625,0.3295493497520685,-0.198034701051563,-0.745605016568303
1725629109609772800,7.811772705078125,0.41836920445561404,-0.24020561730489134,-0.8256389227479696
1725629109619806500,7.821806396484375,0.16250234602987765,-0.12248524680957197,-0.67198039290905
1725629109629840600,7.831840576171875,-0.21763971136212348,0.2545537300005555,-0.45244156992733475
1725629109639874800,7.841874755859375,-0.33980829343795776,0.3397315749399364,-0.25553017381727694
1725629109649908500,7.851908447265625,-0.37314299228489395,0.4254214610546827,0.11468787093162536
1725629109659942700,7.861942626953125,-0.42143034559190273,0.5653820126697421,0.5294289480179548
1725629109669976800,7.871976806640625,-0.7623895626306534,0.573051962775737,0.21750936298072338
1725629109680009700,7.882009765625,-1.0166448942065238,0.5439081397473812,-0.36322190225124357
1725629109690043600,7.892043701171875,-1.0848509999483824,0.4283277038902044,-0.5696545754224062
1725629109700077600,7.90207763671875,-1.207540975549817,0.20403174950927494,-0.5980407119512557
1725629109710111700,7.91211181640625,-1.2827239345669745,-0.013111410507559776,-0.3692249420583248
1725629109720144400,7.922144287109375,-1.1577408795922994,-0.3630917000003159,0.13544073610305785
1725629109730178600,7.932178466796875,-1.0018553213536738,-0.7245077218733728,0.5416799423038959
1725629109740212700,7.942212646484375,-0.6467664566755295,-0.9148216194145381,1.0224076955169439
1725629109750246400,7.952246337890625,-0.2899006454527378,-1.0884646604008972,1.5627169339895248
1725629109760280600,7.962280517578125,-0.18961656292676923,-1.092146563784033,1.5988953318297863
1725629109770314800,7.972314697265625,0.07453238615393638,-0.8430242111824452,1.2241653626143931
1725629109780348400,7.982348388671875,0.7709761891901492,-0.5928866901889444,1.0892261462926864
1725629109790382600,7.992382568359375,1.467793501713872,-0.5048569629497826,1.3433102129548786
1725629109800416800,8.002416748046874,1.892414167779684,-0.372030500998348,1.712817479085922
1725629109810450400,8.012450439453126,1.897235304325819,-0.2604595930434763,1.177622807148099
1725629109820484600,8.022484619140625,1.7378057898700237,-0.14495061498731374,0.12304653395414351
1725629109830518800,8.032518798828125,1.5535270808398722,-0.008258709779381751,-0.2023375128120184
1725629109840552400,8.042552490234375,1.1918716972529888,0.10817103638350963,-0.08223638466000556
1725629109850586600,8.052586669921874,0.8988847762227058,0.20486761581152677,0.22344284468293188
1725629109860620800,8.062620849609376,0.5964397064954042,0.31755934448987244,0.5747065981149673
1725629109870654500,8.072654541015625,0.25477614057958126,0.35092648430168627,0.7454080326914787
1725629109880687600,8.0826875,-0.23018355111479757,0.3217136876903474,0.5297486814916134
1725629109890721500,8.092721435546874,-0.8028156810432672,0.3490298569001257,-0.32808395337462426
1725629109900755700,8.102755615234376,-1.0520417862802742,0.3383319372750819,-0.8813625635355711
1725629109910789600,8.11278955078125,-1.0082248563855887,0.2264410035856068,-0.6013444296717644
1725629109920823600,8.122823486328125,-1.0056570517241954,0.14961144640520213,-0.38204935231804843
1725629109930857700,8.132857666015624,-1.0469956088066101,0.11015651111230254,-0.5500695849865674
1725629109940891400,8.142891357421876,-0.9568483048915862,-0.03377645126506686,-0.6586240677297115
1725629109950925600,8.152925537109375,-0.7639818002581595,-0.11792919094040989,-0.678586074784398
1725629109960959700,8.162959716796875,-0.6697767453849315,-0.12851239814460277,-0.6495920354902744
1725629109970993400,8.172993408203125,-0.38678047249317166,-0.17868088902309537,-0.23543489577174184
1725629109981027600,8.183027587890624,0.038376200145483014,-0.2959370030075312,0.38229718959927556
1725629109991061800,8.193061767578126,0.2598760940670967,-0.3872375686109066,0.628538726067543
1725629110001095400,8.203095458984375,0.4794494038403034,-0.3199327956229448,0.7787532529324293
1725629110011129600,8.213129638671875,0.5914578264296054,-0.15238719472885132,0.8604489548444747
1725629110021163800,8.223163818359374,0.5943535478711128,-0.07303527946397662,0.5519061527639627
1725629110031197400,8.233197509765626,0.6397282286018133,-0.025086948852986096,0.22768530455827712
1725629110041231600,8.243231689453125,0.6870861921042204,0.046171237935870885,0.05873509756326675
1725629110051264500,8.253264404296875,0.7068108832716942,0.06918364553712308,-0.08788754228949547
1725629110061298700,8.263298583984374,0.5762871453046798,0.030332521356269716,-0.24847850174009797
1725629110071332600,8.27333251953125,0.4032090447247028,-0.0663997139070183,-0.3767319566875696
1725629110081366500,8.283366455078125,0.21178981629014013,-0.17487426328174768,-0.5417208588361739
1725629110091400700,8.293400634765625,0.035225627160072326,-0.16875278472676872,-0.5604010093867778
1725629110101434600,8.3034345703125,-0.19562953960597515,-0.2294045295663178,-0.49725452512204643
1725629110111468500,8.313468505859374,-0.40070203033983703,-0.379359455646947,-0.5746031377404928
1725629110121502700,8.323502685546876,-0.4795511106491089,-0.5303942128535359,-0.7449258021324873
1725629110131536600,8.33353662109375,-0.4898094698131084,-0.6989861079301685,-0.8168827848404645
1725629110141570600,8.343570556640625,-0.3906301336586475,-0.7109690258644521,-0.6726438252538443
1725629110151604700,8.353604736328125,-0.240477566114068,-0.682358140669018,-0.562166850015521
1725629110161638700,8.363638671875,-0.18856559256911276,-0.7597928972009569,-0.41812078265249725
1725629110171672600,8.373672607421875,-0.2704337284386158,-0.7320547762520611,-0.16157997048795222
1725629110181706800,8.383706787109375,-0.29250702855885025,-0.5868901531878858,-0.1014841059654951
1725629110191740400,8.393740478515625,-0.2836187887042761,-0.5107638489060103,-0.13154022153317926
1725629110201774600,8.403774658203124,-0.38558395618498326,-0.404565939226374,-0.02609597976505756
1725629110211808800,8.413808837890626,-0.554721794706583,-0.1473900440286845,0.09627835401594638
1725629110221841700,8.423841552734375,-0.3655547291129827,-0.3668536828823387,-0.1500777487426996
1725629110231875600,8.43387548828125,-0.11421207011342048,-0.22025720038414,-0.2574351306557655
1725629110241909500,8.443909423828124,-0.3122948480904102,0.30066052439808844,-0.0780085378319025
1725629110251943700,8.453943603515626,-0.6278939984232187,0.6315859848089516,-0.014236030623316765
1725629110261977600,8.4639775390625,-0.7854787617951631,0.6064867609962821,-0.09383680608272552
1725629110272011500,8.474011474609375,-0.772086196258664,0.5190962815087289,-0.2587356918603182
1725629110282045700,8.484045654296875,-0.5624345610409974,0.6457241080157459,-0.3051321168541908
1725629110292078800,8.494078857421876,-0.3388163597911596,0.6067707290368154,-0.20470307289957998
1725629110302112800,8.50411279296875,-0.18031857322752476,0.6279659676808863,0.18825170431435106
1725629110312147000,8.51414697265625,-0.16951251705288886,0.5942519871927797,0.5445195496439933
1725629110322180900,8.524180908203125,-0.02474281159043312,0.3396823655033484,0.7730261074572801
1725629110332214800,8.53421484375,0.15539572889506817,0.11590740278922021,1.0344921010643242
1725629110342248700,8.544248779296876,0.2835001307606697,0.0768589294053614,1.1952268528997898
1725629110352283000,8.554282958984375,0.46352936565279956,0.06994045068721752,1.1771528515487908
1725629110362316800,8.56431689453125,0.552890487626195,-0.11857130650253966,0.8634060510843992
1725629110372350700,8.574350830078124,0.48444823504090306,-0.10427343528992496,0.5154273106724023
1725629110382385000,8.584385009765626,0.362148720061779,-0.2231542917988263,0.25248247668445106
1725629110392417800,8.594417724609375,0.3959568816393614,-0.024008124657312873,0.6033686289757489
1725629110402451700,8.60445166015625,0.4052963723927736,-0.03089996424699202,0.7461638194948434
1725629110412486000,8.61448583984375,0.2316904485464096,-0.3426217434234917,0.3020727292835712
1725629110422519800,8.624519775390626,0.05602525408267975,-0.3843499574106186,-0.0985690953016281
1725629110432553700,8.6345537109375,-0.16837036128044128,-0.38312527445387096,-0.36207390125989913
1725629110442588000,8.644587890625,-0.4665086737245321,-0.273750488303788,-0.33206454744338987
1725629110452621800,8.654621826171875,-0.6836661545276641,-0.0480676461417228,-0.11246493418514728
1725629110462655700,8.66465576171875,-0.7217781507790089,0.006684007808566093,-0.15502105036377906
1725629110472690000,8.67468994140625,-0.5736188028782606,0.008233575338125229,-0.4867863225996494
1725629110482723800,8.684723876953125,-0.26213059499561786,-0.12432152232602238,-1.0851987904727458
1725629110492757800,8.6947578125,0.21857669995129106,-0.04706957501508295,-1.3878653939962386
1725629110502792000,8.7047919921875,0.6387871483594179,0.477035401501134,-1.1645441298663615
1725629110512825600,8.71482568359375,0.7623065605223178,0.7254973174326121,-0.9173328715831041
1725629110522859800,8.72485986328125,0.43471652814447875,0.6640180357277393,-0.3755079678505659
1725629110532894000,8.73489404296875,-0.26703531817197795,0.34911768131405113,-0.003323591464757919
1725629110542927600,8.744927734375,-0.46859366330504415,0.08966741144359111,-0.0822872380644083
1725629110552960800,8.754960693359376,-0.16599369527697563,0.14164214802645145,-0.30281331851780413
1725629110562994700,8.76499462890625,0.17511691293120382,0.13765190934650598,-0.6745014358192681
1725629110573028900,8.77502880859375,0.3677110303640365,0.05394157967641949,-0.935966260382533
1725629110583062800,8.785062744140625,0.2674012288749218,0.06650821578279137,-1.1767208898723125
1725629110593096700,8.7950966796875,0.10721125144064426,0.08910875464752316,-1.3615461268693207
1725629110603131000,8.805130859375,-0.0655430240124464,0.011339286268502472,-1.1657792246192693
1725629110613164800,8.815164794921875,-0.03906125980019569,-0.042736002790182824,-0.48818274539411066
1725629110623198700,8.82519873046875,0.13256021223068237,-0.09613280806541442,0.2535293553888798
1725629110633233000,8.83523291015625,0.2670078456431627,-0.15051394820287822,0.6958873381972313
1725629110643266600,8.8452666015625,0.43850656807720656,0.015141308899968862,0.77106795912683
1725629110653300700,8.85530078125,0.606520371004939,0.12905790319815277,0.6093336748600006
1725629110663335000,8.8653349609375,0.5717208603024483,0.2226180842965841,0.30640637457370756
1725629110673368600,8.87536865234375,0.4484364259392023,0.36570261315107344,-0.0860907220005989
1725629110683402800,8.88540283203125,0.3879080152183771,0.3693694650955498,-0.27472762624025343
1725629110693437000,8.89543701171875,-0.04530395358204841,0.521809997446835,-0.775803170955181
1725629110703470600,8.905470703125,-0.4717249470680952,0.7002179147474468,-1.5486270338386297
1725629110713504800,8.9155048828125,-0.5772334862440824,0.6202237560562789,-1.5523013384371995
1725629110723537700,8.92553759765625,-0.5905979947298765,0.4381497174635529,-0.6493634874314069
1725629110733571800,8.93557177734375,-0.759475136488676,0.15541370294317602,0.059680853980779644
1725629110743605800,8.945605712890625,-1.0539964274793863,-0.09968436306715012,0.1240624329984188
1725629110753639700,8.9556396484375,-1.1577367879390716,-0.4665308855563402,-0.019951485660672185
1725629110763673900,8.965673828125,-1.0852993282377719,-0.9948802216440439,0.1848521250039339
1725629110773707800,8.975707763671876,-0.9278186097621918,-1.3643195371054113,0.5513140320897102
1725629110783741700,8.98574169921875,-0.5446095660150051,-1.5473162435010075,0.8238689904659986
1725629110793775900,8.99577587890625,-0.17757015130221843,-1.7925770983688532,1.038619994649291
1725629110803809800,9.005809814453125,0.14445581720769404,-1.7429207947961984,1.2470634231209754
1725629110813843700,9.01584375,0.35827743158638475,-1.4708449982389806,1.3414040870726107
1725629110823878000,9.0258779296875,0.22186755819022655,-1.1627392724014818,1.271173197504878
1725629110833911800,9.035911865234375,0.23582652543783186,-0.6740170133031904,1.313639297312498
1725629110843945700,9.04594580078125,0.5198281759798526,-0.11523849055171012,1.4872428830713034
1725629110853980000,9.05597998046875,0.7102379351109266,0.31142434886619447,1.5655910281211136
1725629110864013600,9.066013671875,0.8399813363552093,0.6291248553924262,1.2527063974440098
1725629110874047700,9.0760478515625,0.8685866685926914,0.903015300156176,0.48236733711361884
1725629110884082000,9.08608203125,0.9321586847931146,1.0978588770162314,-0.28814649526178837
1725629110894114800,9.09611474609375,0.8606009305357932,1.1278211768206208,-0.7229793432623147
1725629110904148700,9.106148681640626,0.7515846754997968,0.9702926736805587,-0.6298112302213907
1725629110914183000,9.116182861328125,0.5615934340417384,0.6619225978184491,-0.23400457070767877
1725629110924216800,9.126216796875,0.36851240987479683,0.4018109414298087,0.10277063864469528
1725629110934250800,9.136250732421875,0.1377180333852768,0.2549257051181048,0.2154389864474535
1725629110944284700,9.14628466796875,-0.24120471134483812,0.1202333762295544,-0.07329962948858737
1725629110954318800,9.15631884765625,-0.7664432219356297,-0.020995441755652426,-0.4541477893233299
1725629110964352800,9.166352783203125,-1.3119278172194957,-0.13325352825708686,-0.5353226822316647
1725629110974386700,9.17638671875,-1.4610299989283084,-0.15007285337187348,-0.327099618512392
1725629110984420900,9.1864208984375,-1.3840379446625708,-0.07065364502444862,-0.2539332600146532
1725629110994454800,9.196454833984374,-1.1437006638020277,-0.02328523319326341,-0.23149229562580584
1725629111004488700,9.20648876953125,-0.7491986571460962,0.018242416720464824,-0.19040099130272864
1725629111014523000,9.21652294921875,-0.36537235828340053,0.1859093059066683,-0.009406126248836516
1725629111024556800,9.226556884765625,-0.18131284496188163,0.23333149375170467,0.36262218279242514
1725629111034590700,9.2365908203125,-0.13321136961579322,0.1763710777107626,0.5126654447436333
1725629111044625000,9.246625,-0.008685410758852959,0.17693850233517586,0.25568741020560265
1725629111054658800,9.256658935546875,0.19973405231535435,0.14691051688343285,0.010385200414061546
1725629111064691700,9.266691650390625,0.3391863621473312,0.12969042894802987,-0.013217793491482733
1725629111074726000,9.276725830078124,0.4433218594044447,0.020238339778035876,0.11127543213963507
1725629111084759800,9.286759765625,0.507093197569251,-0.06387319110408425,0.36544074734449383
1725629111094793700,9.296793701171875,0.4965069216251373,-0.18370229738168417,0.6379308237910271
1725629111104828000,9.306827880859375,0.3870949452698231,-0.3835468973994255,0.6915022549808025
1725629111114861800,9.31686181640625,0.2096913827061653,-0.40836503924839196,0.5206447530597448
1725629111124895700,9.326895751953124,0.0024970775127410886,-0.4203784253861755,-0.029765023666620254
1725629111134930000,9.336929931640626,-0.023682488882541656,-0.5001636175017804,-0.4777005143463611
1725629111144963800,9.3469638671875,0.030505612900853154,-0.4046693996008485,-0.30405367396771904
1725629111154997800,9.356997802734375,0.03858545898199081,-0.2730113969068974,0.11450374653637409
1725629111165031700,9.36703173828125,0.011546353147923946,-0.18150018422752617,0.41627895417809485
1725629111175065900,9.37706591796875,-0.10995149005949496,-0.0958902314811945,0.4448948078095913
1725629111185099800,9.387099853515625,-0.2069680952221155,-0.11218925904892384,0.09102408674955367
1725629111195133700,9.3971337890625,-0.2751326999098062,-0.1746677078589797,-0.39189620807170866
1725629111205167900,9.40716796875,-0.3931257498666644,-0.25226919925995167,-0.8600789524883031
1725629111215201800,9.417201904296874,-0.5152206821843981,-0.2759345178119838,-1.0812713878959417
1725629111225234700,9.427234619140625,-0.5046954887777566,-0.20995244479514658,-0.8832418014109135
1725629111235268900,9.437268798828125,-0.4078191688686609,-0.02140599531792104,-0.5909890398740768
1725629111245302800,9.447302734375,-0.2553746909946203,0.03086838179863989,-0.43693478871583935
1725629111255336700,9.457336669921874,-0.30888474738597865,0.01750511542186141,-0.20244857197105884
1725629111265371000,9.467370849609376,-0.4971165779560804,0.11546608876250683,-0.0818038384616375
1725629111275404800,9.47740478515625,-0.5642915870845318,0.11383337299413979,-0.13215747664868832
1725629111285438700,9.487438720703125,-0.47241000672280786,-0.20012308816555888,-0.33341070135533807
1725629111295473000,9.497472900390624,-0.4693693238526582,-0.4689428786015138,-0.7100158167928456
1725629111305507000,9.507507080078126,-0.8478267891585827,0.15174217482358215,-0.5701262845873832
1725629111315541000,9.517541015625,-1.1992635610699653,0.4214938027495518,-0.3273889568477869
1725629111325575000,9.527574951171875,-1.2222890473484993,0.4831130409143865,-0.1602829164147377
1725629111335608800,9.53760888671875,-0.9335954395979642,0.5780198873814195,-0.0220031574934721
1725629111345642800,9.547642822265624,-0.6338368324756622,0.6377759254902601,0.15456395424604416
1725629111355677000,9.557677001953126,-0.44741351263225076,0.6652122139483689,0.4539923065006733
1725629111365710800,9.5677109375,-0.2693020940601826,0.7362706403814255,0.7893821989744901
1725629111375744800,9.577744873046875,-0.10446049142777919,0.8273719570856541,1.0817477732360363
1725629111385779000,9.587779052734374,0.15315028805583714,0.5407105858150869,1.0184195026636123
1725629111395811800,9.597811767578126,0.32319238194078204,0.321968977625668,0.862913883653283
1725629111405845800,9.607845703125,0.41911037821173663,0.274124801508896,0.9667775782316923
1725629111415880000,9.6178798828125,0.29266952564418314,0.08723515192852355,0.8496680331110954
1725629111425913900,9.627913818359374,0.20835516566634177,0.033916553855501116,0.6686316670030356
1725629111435947800,9.63794775390625,0.46250177617073057,0.20377275151321664,0.729159493201971
1725629111445982000,9.64798193359375,0.4783969721779227,-0.0009882803849875926,0.5802069490969181
1725629111456016000,9.658015869140625,0.2406704583376646,-0.13654906267113984,0.6160299576282501
1725629111466049800,9.6680498046875,-0.09759820444285869,-0.23477371018296106,0.6715887632429599
1725629111476084000,9.678083984375,-0.2842681925237179,-0.3064589084785431,0.5173316829890012
1725629111486118000,9.688117919921876,-0.2927811693251133,-0.3301063625803217,0.38393092828094955
1725629111496151800,9.69815185546875,-0.3174532537668943,-0.26651063671074804,0.2821843719869852
1725629111506186000,9.70818603515625,-0.31005379116535187,-0.2983177241316065,0.14081307679116725
1725629111516220000,9.718219970703124,-0.11857318793237209,-0.12234547301270067,-0.1541962899774313
1725629111526253800,9.72825390625,0.1743301464676857,0.18814488293901085,-0.7744909193128346
1725629111536288000,9.7382880859375,0.19418986219167708,0.27016638273932037,-1.3136620936661958
1725629111546322000,9.748322021484375,-0.13601122946739197,0.3072263857197016,-1.4020289439052342
1725629111556355800,9.75835595703125,-0.6253349615901708,0.32482604755721983,-0.9163111273199319
1725629111566388700,9.768388671875,-0.8533394151002168,0.18004991235397755,-0.384334832906723
1725629111576423000,9.7784228515625,-1.0288374363034962,-0.021011223846673963,0.033274493092298504
1725629111586457000,9.78845703125,-1.0168728577435016,-0.12320654682144522,0.15955577118396758
1725629111596490800,9.79849072265625,-0.6417395684242249,-0.11370938128829002,-0.16492986543774604
1725629111606525000,9.80852490234375,-0.11191548360884189,-0.018463585190474988,-0.7993208246648311
1725629111616559000,9.81855908203125,0.1914040308654308,-0.01084894546829164,-1.339825877970457
1725629111626592800,9.8285927734375,0.2067465614259243,0.08236329897530377,-1.3406103063464163
1725629111636627000,9.838626953125,0.0333791225105524,0.07441650468930601,-0.9868237564384936
1725629111646660900,9.848660888671875,-0.08710954365432262,0.014921090278029441,-0.44858840163052077
1725629111656694800,9.85869482421875,0.016774024668335913,-0.04735146069638431,0.09007073154747486
1725629111666729000,9.86872900390625,0.29580899271368977,-0.05993519406802952,0.5509440297335386
1725629111676763000,9.878762939453125,0.5354559532225132,0.00034121465310454365,0.8205681953549384
1725629111686796800,9.888796875,0.6594131722807883,0.13667605005167424,0.7585919239133596
1725629111696831000,9.8988310546875,0.6412444783836603,0.32532552151195704,0.5600508807748555
1725629111706865000,9.908864990234376,0.5766086323440075,0.48468796208091075,0.2720721432954073
1725629111716898800,9.91889892578125,0.6098392862945795,0.5845122450754046,0.08035890035033226
1725629111726931700,9.928931640625,0.7223585810154676,0.6239398539699613,-0.08685878376364707
1725629111736966000,9.9389658203125,0.7333019998341799,0.5552554631918668,-0.22225509620308875
1725629111747000000,9.949,0.6618295857727527,0.4682620932631194,-0.18849544994235037
1725629111757033700,9.95903369140625,0.3565793954968452,0.358732920268923,-0.25795652418136594
1725629111767068000,9.96906787109375,-0.0015291092634201048,0.32786607284024355,-0.5409118805408477
1725629111777102000,9.97910205078125,-0.19833996760845182,0.16409414526596663,-0.4723685056686401
1725629111787135700,9.9891357421875,-0.5010545019268989,0.11759820542037486,-0.08032792069017887
1725629111797170000,9.999169921875,-0.668932695776224,0.11136895564198493,0.5493441933214664
1725629111807204000,10.0092041015625,-0.8527437872946262,0.014158727603405714,0.7656839280009269
1725629111817237800,10.01923779296875,-1.12985801641047,-0.07219955929219722,0.2903127333849668
1725629111827272000,10.02927197265625,-1.4141361458063124,-0.08890709459558128,-0.4771610006421804
1725629111837306000,10.03930615234375,-1.5466086797535419,-0.07687631893157959,-1.1147656612187624
1725629111847339800,10.04933984375,-1.624202207043767,-0.09894538126811385,-1.39429688834846
1725629111857374000,10.0593740234375,-1.5622329498648642,-0.10979483819305896,-1.2414642879396676
1725629111867408000,10.069407958984375,-1.040615552380681,-0.24036358434557914,-0.5999877543658018
1725629111877441800,10.07944189453125,-0.4916787708163261,-0.4451891145810485,0.18094868782460688
1725629111887476000,10.08947607421875,-0.22382746008634566,-0.5865773609116673,0.8534358612120151
1725629111897508900,10.0995087890625,-0.18733400494754313,-0.5407467531070113,1.3225631930023432
1725629111907543000,10.10954296875,-0.0938029038131237,-0.6141976276345551,1.3776976357251405
1725629111917577000,10.119576904296874,-0.20519173319935796,-0.7160340541690587,1.121467204684019
1725629111927611000,10.12961083984375,-0.13849661654233933,-0.5915671320229768,1.1145102251529693
1725629111937645000,10.13964501953125,0.27100948249995704,-0.4428570183716714,1.1743430548250675
1725629111947678700,10.1496787109375,0.483155857142806,-0.3900825827784836,1.0654150625944137
1725629111957713000,10.159712890625,0.6725467946201562,-0.26794103484004733,0.920667568963766
1725629111967747000,10.1697470703125,0.8080261091679334,-0.1523413097605109,0.6085545071810483
1725629111977780700,10.17978076171875,0.9093032943844794,-0.036845045055449006,0.3133808897614479
1725629111987815000,10.18981494140625,0.856436796593666,0.27012758509889245,0.47314241265058515
1725629111997849000,10.19984912109375,0.6683627869337797,0.44759442215710876,0.5599947666734457
1725629112007882800,10.2098828125,0.5857172369509935,0.6327104587942362,0.6135539229035377
1725629112017917000,10.2199169921875,0.5257061281025409,0.7535942617565393,0.7125052955210208
1725629112027951000,10.229951171875,0.40238428433835505,0.8766926720283925,0.08968319353461265
1725629112037984800,10.23998486328125,0.3706757253885269,0.8755772581323981,-0.6025929684281349
1725629112048019000,10.25001904296875,0.22623861288130281,0.7609506889339536,-0.5090425780713558
1725629112058053000,10.26005322265625,-0.06553074905276299,0.5190000545926392,-0.25820611502826213
1725629112068086000,10.2700859375,-0.3138116823941469,0.2677747383624315,-0.3419102341532707
1725629112078120000,10.280119873046875,-0.5516682523548603,0.047032457875087856,-0.33691081843078136
1725629112088153900,10.29015380859375,-0.7546276964575052,-0.2269575017403811,0.014059505012631415
1725629112098188000,10.30018798828125,-0.7847241440355778,-0.3431273548580706,0.32779169242978096
1725629112108222000,10.310221923828125,-0.5626730459719896,-0.4051183124121278,0.33264439315795896
1725629112118255900,10.320255859375,-0.1767389611750841,-0.41540998932383955,0.44355683720409866
1725629112128290000,10.3302900390625,0.08890753298699855,-0.33794038067422805,0.45330958493351936
1725629112138324000,10.340323974609374,0.20187398695349693,-0.2112533713258803,-0.08925532351136208
1725629112148358000,10.35035791015625,0.27292262264490125,-0.17097981312647462,-0.4222890082478523
1725629112158392000,10.36039208984375,0.29783962175846096,-0.2556067461848259,-0.5232096351116895
1725629112168425700,10.37042578125,0.20834113714098929,-0.20623452025055883,-0.6407154860734939
1725629112178460000,10.3804599609375,0.12011398763358593,-0.2480039430309087,-0.7518500484377145
1725629112188494000,10.390494140625,0.09393851289153099,-0.286728883548826,-0.5691770210385322
1725629112198527700,10.40052783203125,0.03558101646900177,-0.24450740615203975,-0.2944458876669407
1725629112208562000,10.41056201171875,-0.021257892084121703,-0.21267266353927552,0.07240297290980816
1725629112218596000,10.42059619140625,-0.09546411502361297,-0.2315851615410298,0.34356092396974564
1725629112228629000,10.43062890625,-0.20357494565248488,-0.22618878239020704,0.2553630005568266
1725629112238663000,10.440662841796875,-0.3503904777288437,-0.10201068712286651,0.1187339314520359
1725629112248696800,10.45069677734375,-0.558901126217842,0.08779650300517677,-0.3807318399786949
1725629112258731000,10.46073095703125,-0.5426426498562097,0.18186667945235965,-1.1949866144031285
1725629112268765000,10.470764892578124,-0.24437632711827753,0.1272886285033077,-1.4873229625701903
1725629112278798800,10.480798828125,0.0686146865427494,0.06006181612238288,-1.4135475322633981
1725629112288832500,10.49083251953125,0.33146073633134365,-0.011937909748777746,-1.2202806301355362
1725629112298866400,10.500866455078125,0.5644587603449821,-0.07347162505462765,-0.46704701838493345
1725629112308900600,10.510900634765624,0.641166736972332,-0.0776953071642667,0.49539749907851216
1725629112318934500,10.5209345703125,0.5602303289949894,-0.027222864903137085,1.0651374146968127
1725629112328968400,10.530968505859375,0.37683307897448537,-0.10136362139098345,1.0365542942911385
1725629112339002600,10.541002685546875,0.04954758250117302,-0.25467764864116904,0.4097293864041567
1725629112349036500,10.55103662109375,-0.1359972009420395,-0.5275985177204012,-0.4501566738605499
1725629112359070500,10.561070556640624,-0.2464741761803627,-0.7366556941762566,-0.6614817952483892
1725629112369104600,10.571104736328126,-0.3548433654844761,-0.7437061972096563,-0.39418870292305946
1725629112379138600,10.581138671875,-0.44854163987934587,-0.7850302143100648,-0.13261574181020258
1725629112389172500,10.59117236328125,-0.4256605305075645,-0.8797196186341345,0.18288813145458696
1725629112399205400,10.601205322265624,-0.17551789494752884,-1.031819959245622,0.13940613260269163
1725629112409239600,10.611239501953126,0.0975800842642784,-1.1351123567420989,-0.13661328701376915
1725629112419273700,10.621273681640625,0.17280512885749338,-1.2354855057910084,-0.1709790824741125
1725629112429307400,10.631307373046875,0.05237842201292515,-1.4813495872490108,0.0055669864773750305
1725629112439341600,10.641341552734374,-0.08738426894247531,-1.5600824938327074,0.3164209881097078
1725629112449375700,10.651375732421876,-0.5020592950552701,-0.7368737208411097,0.9877636676371097
1725629112459409400,10.661409423828125,-0.8507020523339509,0.06562529546841979,1.2053975337803362
1725629112469443600,10.671443603515625,-0.8166922307044268,0.6718625386830419,0.642518736103177
1725629112479477800,10.681477783203125,-0.5593067844092846,0.999802626607567,-0.14563304429352283
1725629112489511400,10.691511474609374,-0.1956535050034523,1.1953320668399334,-0.644611324468255
1725629112499545600,10.701545654296876,0.11640227363407611,1.2742824155665933,-0.7273585812598466
1725629112509579500,10.71157958984375,0.13419453543424606,1.4623337750032543,-0.3337263431757688
1725629112519613400,10.721613525390625,-0.06368365988135337,1.3447063434883952,0.1478822845250368
1725629112529647600,10.731647705078124,-0.2301256834477186,0.9890252120055257,0.6083049163341522
1725629112539681500,10.741681640625,-0.1945727240294218,0.31639004498217255,0.6278028130084276
1725629112549715500,10.751715576171875,0.040058454144001006,0.08211745272176339,0.6905225962936877
1725629112559749600,10.76174951171875,0.056745969572663306,-0.14785350595512425,0.6522586243510246
1725629112569782500,10.771782470703124,-0.0522977579921484,-0.1640966294839978,0.5618897866398096
1725629112579816700,10.781816650390626,-0.1345323890864849,-0.15135339470170436,0.4224129268884659
1725629112589850400,10.791850341796875,-0.202933140617609,-0.195078098001983,0.24975100589394567
1725629112599884500,10.801884521484375,-0.25225334410369393,-0.26014387815780937,0.32253099542260166
1725629112609918700,10.811918701171875,-0.4283382252842188,-0.47951333592198786,0.4982797765165567
1725629112619952400,10.821952392578124,-0.6676748046696186,-0.20363405542857943,0.8591817113876342
1725629112629986600,10.831986572265626,-0.5505471393704414,-0.1634751183184795,0.6048901394546031
1725629112640020700,10.842020751953125,-0.24028116675913333,-0.30735483440496025,0.02171907985508442
1725629112650054400,10.852054443359375,-0.2326093169569969,-0.23053857509754597,-0.11208207234740257
1725629112660088600,10.862088623046875,-0.33459435818195343,-0.018546185440011322,-0.05171323610246181
1725629112670122500,10.87212255859375,-0.4202689005970955,0.07524985024090856,-0.11947744329571723
1725629112680156400,10.882156494140625,-0.3031844899177551,0.11495244015194475,-0.021904373294115067
1725629112690190600,10.892190673828125,-0.09831891993284225,0.02521868547387421,0.09417816686630248
1725629112700224500,10.902224609375,0.06229834300279617,0.00755903707742691,0.007187281155586242
1725629112710258400,10.912258544921874,0.261802093693614,-0.06501490848511457,-0.05159224007129669
1725629112720292600,10.922292724609376,0.39482700082659716,-0.01574720237124711,-0.00012859481573104857
1725629112730325500,10.932325439453125,0.3998690866470337,-0.029700580128282306,-0.17039280701875686
1725629112740359400,10.942359375,0.4859323361188173,-0.058194159086979926,-0.27344167808294295
1725629112750393600,10.9523935546875,0.532075078612566,0.20451138625238088,-0.1576736106991768
1725629112760427500,10.962427490234376,0.6038005906522274,0.5297666555397212,-0.2762625807225704
1725629112770461400,10.97246142578125,0.7242068392306565,0.6769022133506835,-0.6612830578058958
1725629112780495600,10.98249560546875,0.7540706470966339,0.8951104453157633,-0.844862678655982
1725629112790529500,10.992529541015625,0.3213707194715738,0.73767510035187,-0.7726911764144897
1725629112800563500,11.0025634765625,-0.31383155613839625,0.24138262519501147,-0.653641603142023
1725629112810597400,11.012597412109375,-0.6914321123540401,-0.035896658289432525,-0.5311719922930002
1725629112820631600,11.022631591796875,-0.5289303508460521,-0.1779701834704727,-0.572700518989563
1725629112830665500,11.03266552734375,-0.04577157109379768,-0.29741672017127274,-0.5608043294906616
1725629112840699400,11.042699462890624,0.29285832621455193,-0.22018669243119657,-0.3087093908190727
1725629112850733600,11.052733642578126,0.37388533508479593,-0.02563976043015718,-0.15816285552084444
1725629112860767500,11.062767578125,0.23401567662358283,0.07873889793306589,-0.21377426810562608
1725629112870801400,11.072801513671875,0.056541386911273,0.12216887433677912,-0.3210755359172821
1725629112880835600,11.082835693359375,-0.18702829999923706,0.18941073815636336,-0.5716343510627746
1725629112890868500,11.092868408203126,-0.4187275163739919,0.11732859469875692,-0.9101660486936569
1725629112900902400,11.10290234375,-0.5150368500500917,0.12863039850108324,-1.0519120224207639
1725629112910936600,11.1129365234375,-0.44590252354741094,0.10976926536038517,-1.3231412851512432
1725629112920970500,11.122970458984375,-0.2198568028897047,0.05115399478450417,-1.3722481381475924
1725629112931004400,11.13300439453125,0.010466448956727981,0.010801233869045973,-0.8095382672965526
1725629112941038600,11.14303857421875,0.15497604217827318,0.14117431131899355,0.16955168001949786
1725629112951072500,11.153072509765625,0.2781500019043684,0.16569807333126663,1.1040309167146682
1725629112961106400,11.1631064453125,0.18869184929728508,0.26435484691634775,1.5089485189229248
1725629112971140600,11.173140625,0.09452128121554851,0.4055155681014061,1.4492653268545865
1725629112981174500,11.183174560546876,0.03431377301216125,0.4585473394565284,1.0533692354917525
1725629112991208400,11.19320849609375,0.02715221081972122,0.3891745280228555,0.5179729035019874
1725629113001242600,11.20324267578125,0.18295710503756998,0.2644828572101891,0.31600188591480255
1725629113011276500,11.213276611328125,0.07887304570674895,0.17210545615553854,0.09641863926947117
1725629113021310500,11.223310546875,-0.1630266621649265,-0.022226371790096164,-0.31293782216906546
1725629113031344600,11.2333447265625,-0.2660837165355682,-0.22332053347751496,-0.5776373908698559
1725629113041378600,11.243378662109375,-0.4758458263903856,-0.4333309190049767,-0.4878922380149364
1725629113051411700,11.25341162109375,-0.6492629496663809,-0.7017208666563034,-0.07313128718435764
1725629113061445400,11.2634453125,-0.6237573370099068,-1.2099614806950092,0.435368854573369
1725629113071479600,11.2734794921875,-0.6652455316960811,-1.629292662050575,0.8525041333198546
1725629113081513700,11.283513671875,-0.7883259679198265,-1.6997257961921393,1.0191051468402146
1725629113091547400,11.29354736328125,-0.8880500784754752,-1.6227287734903395,0.6535416498988866
1725629113101581600,11.30358154296875,-0.8775999961316585,-1.551676338406652,0.016978022807836533
1725629113111615500,11.313615478515626,-0.7278571784317494,-1.340490625489503,-0.17840718664824962
1725629113121649400,11.3236494140625,-0.6872568724960089,-1.011191304975748,0.05510930828154087
1725629113131683600,11.33368359375,-0.33236849882602687,-0.8243302513021975,0.5174380659729242
1725629113141717500,11.343717529296875,0.08135434112846851,-0.39553412618264555,1.1430588587671517
1725629113151751400,11.35375146484375,0.30425416497588154,-0.05833506539501249,1.623780766761303
1725629113161785600,11.36378564453125,0.2001759508639574,0.15567629940211772,1.4788240142941473
1725629113171819500,11.373819580078125,0.17880173892378806,0.370737100186944,1.0853887600868939
1725629113181853400,11.383853515625,0.26962533466517924,0.5868514286126941,0.5397761545091867
1725629113191887600,11.3938876953125,0.2674140883564949,0.7906233581420034,-0.11640811885297297
1725629113201921500,11.403921630859376,0.41710196099877356,0.98503555784747,-0.4956844993263483
1725629113211955500,11.41395556640625,0.5752998878329992,0.9575539689429103,-0.31940263426899906
1725629113221989600,11.42398974609375,0.42795068727135654,0.693171503367275,-0.05452127926051616
1725629113232022500,11.4340224609375,0.33738018950819965,0.5350124472387134,-0.14926000261902808
1725629113242056700,11.444056640625,0.29711832174658775,0.3362799731813371,-0.2376245147705078
1725629113252090400,11.45409033203125,0.1563829863667488,0.1504725202139467,0.08007073105871677
1725629113262124500,11.46412451171875,-0.09441548275351523,0.11290237575434148,0.24367314728498457
1725629113272158700,11.47415869140625,-0.35229134291410447,0.11281557425372302,0.1948854432404041
1725629113282192400,11.4841923828125,-0.592883475318551,0.09712320734225213,0.48596214673519134
1725629113292227300,11.494227294921876,-0.7435562673449516,0.0766341076735407,0.6474538544178009
1725629113302261200,11.50426123046875,-0.7315490186870097,-0.01764810408912599,-0.02614975577890873
1725629113312295200,11.514295166015625,-0.6070856036722659,-0.28171938482373954,-0.5319523290157318
1725629113322329300,11.524329345703125,-0.5006359842538833,-0.5468321374353021,-0.25341888075172897
1725629113332363300,11.53436328125,-0.4586094449073076,-0.6626051001898944,-0.04550210650265216
1725629113342397200,11.544397216796876,-0.3207441120058298,-0.7157219925452023,-0.010042086064815521
1725629113352431400,11.554431396484375,-0.13009528342187404,-0.7498742913853377,0.23082827875912187
1725629113362465300,11.56446533203125,0.032307109364867206,-0.6426066335823386,0.5087719444364309
1725629113372499200,11.574499267578124,0.0867751971334219,-0.5242031761936843,0.4756581948637962
1725629113382533400,11.584533447265626,0.17518880912363527,-0.4268943100862205,0.35546178964376446
1725629113392566300,11.594566162109375,0.33317513903379437,-0.26229404192902145,0.32323008360266686
1725629113402600200,11.60460009765625,0.38560909062623977,0.0022489479705691336,0.4202636399000883
1725629113412634400,11.61463427734375,0.3122527625143528,0.1638744381006807,0.26038521263301373
1725629113422668300,11.624668212890626,0.2636883458316326,0.28695494738966226,0.004483282893896103
1725629113432702200,11.6347021484375,0.19834990448057652,0.37087117489539084,-0.19339725050926207
1725629113442736400,11.644736328125,0.07799041765332222,0.34369419496059417,-0.367020125490427
1725629113452770300,11.654770263671875,-0.06310556773245335,0.3322887846533209,-0.6835568489342928
1725629113462804200,11.66480419921875,-0.07094225270748138,0.27753333131074903,-0.8654600610047578
1725629113472838400,11.67483837890625,-0.19076164130866527,0.18093991999626158,-0.915156696587801
1725629113482872300,11.684872314453125,-0.44375323655903337,0.11580628050230443,-0.8896528374969959
1725629113492906200,11.69490625,-0.5381909311443567,0.02428746903836727,-0.7898217594355345
1725629113502940200,11.704940185546874,-0.5222457585155964,-0.10265073859207331,-0.5567547618389129
1725629113512974300,11.714974365234376,-0.37623335951566694,-0.09213511673137545,-0.38205753562450406
1725629113523008300,11.72500830078125,-0.1981447372972965,-0.11297850973047316,-0.37613223722875117
1725629113533042200,11.735042236328125,-0.04104395805001258,-0.23352504356242715,-0.33190088131427764
1725629113543076400,11.745076416015625,0.07125438739657401,-0.3214928114812821,-0.03840951789319515
1725629113553109200,11.755109130859376,0.12338789473772048,-0.3543475447915494,0.2411369068056345
1725629113563143200,11.76514306640625,0.06718260791301726,-0.4431457721851766,0.3201063986241817
1725629113573177300,11.77517724609375,-0.029407296270132062,-0.5681337225306778,0.3276590059608221
1725629113583211300,11.785211181640625,-0.10869009182155132,-0.6225893161438405,0.23597265591025351
1725629113593245200,11.7952451171875,-0.20537176594138143,-0.6176233642995357,-0.056285950845479965
1725629113603279400,11.805279296875,-0.16040566601157188,-0.6838681068405509,-0.4673720125555992
1725629113613313300,11.815313232421875,-0.1829828240007162,-0.5643221283532679,-0.6067103406190871
1725629113623347200,11.82534716796875,-0.1673977168560028,-0.573988038049452,-0.6942611983001232
1725629113633381400,11.83538134765625,0.1342880589365959,-0.937933030410856,-0.6841425398677587
1725629113643415300,11.845415283203126,0.15904723713994026,-0.21300302800480275,0.12073007370531558
1725629113653449200,11.85544921875,-0.10002280124127864,0.3298692293561995,0.7987193516403436
1725629113663483400,11.8654833984375,-0.4308417325377464,0.6271243292249739,1.0726239710599184
1725629113673517300,11.875517333984375,-0.6503443151623011,0.7558690748207271,0.969998878365755
1725629113683551200,11.88555126953125,-0.7541407897233963,0.5192767891747877,0.4848509706228971
1725629113693585400,11.89558544921875,-0.7071008061289787,0.3584263020051643,0.09256897810399532
1725629113703619300,11.905619384765625,-0.4335468998432159,0.45457489216160024,0.0406599271684885
1725629113713653200,11.9156533203125,-0.25978140152096746,0.5034283549187705,-0.05816694228649139
1725629113723686100,11.92568603515625,-0.20480185709893703,0.30684125885963437,-0.2657324188798666
1725629113733720300,11.93572021484375,-0.10642623854279518,0.09062748864740133,-0.12337269716858863
1725629113743754500,11.94575439453125,-0.05034837749004364,0.1396850043429993,0.45459027239382266
1725629113753788200,11.9557880859375,0.049808279263973236,0.22300335728712378,0.9685229605942964
1725629113763822300,11.965822265625,0.15737316644787788,0.13957750711422412,1.0857739600121974
1725629113773856500,11.9758564453125,0.17565291950404643,0.0797596923481673,0.8919710513114929
1725629113783890200,11.98589013671875,0.10710428393483161,0.003434467960707843,0.34718495968580243
1725629113793924400,11.99592431640625,0.09443301841020584,-0.14607393819512798,-0.2471446227878332
1725629113803958300,12.005958251953125,0.04583820658922195,-0.04779664718061685,-0.17132044325768947
1725629113813992200,12.0159921875,-0.2314028637766838,0.015150990043766795,0.1276139880001545
1725629113824026400,12.0260263671875,-0.5257505517661571,-0.06287144844932481,0.283988206538558
1725629113834060300,12.036060302734375,-0.5923883852779865,-0.13053937392756343,0.27202012084722516
1725629113844094200,12.04609423828125,-0.5626438198775052,-0.23256251867320388,-0.016789222237467764
1725629113854128400,12.05612841796875,-0.4894049806654453,-0.27143870423007754,-0.359644043764472
1725629113864162300,12.066162353515624,-0.4239408671081066,-0.1141448774955701,-0.45054304282963276
1725629113874196200,12.0761962890625,-0.469880780506134,-0.08009064133558422,-0.45460780805051326
1725629113884229000,12.08622900390625,-0.5078904854267835,0.015608003963110968,-0.30393501602411266
1725629113894263300,12.09626318359375,-0.4353180011689663,0.09609122481285594,-0.057283729711174965
1725629113904297500,12.10629736328125,-0.35168051753938195,0.11372650595302693,0.13315700908005237
1725629113914331100,12.1163310546875,-0.18675825088620185,0.09271368380431086,0.3097802349209785
1725629113924365300,12.126365234375,0.00931669439971447,0.14988734073713422,0.3972627035409212
1725629113934399500,12.1363994140625,0.15830489434003828,0.2025675769745372,0.04468494490087032
1725629113944433200,12.14643310546875,0.2981476647943258,0.057655193372070784,-0.3887900587499141
1725629113954467300,12.15646728515625,0.32128304118812084,0.14177983946409076,-0.35518940244317054
1725629113964501500,12.16650146484375,0.27090952925682066,0.2502875604560599,-0.24440204608142374
1725629113974535200,12.17653515625,0.1796060410439968,0.04980868112277239,0.03655950611233711
1725629113984569300,12.1865693359375,0.09610124388337135,-0.1919298083052039,0.3704676355957985
1725629113994603500,12.196603515625,0.2609352477312088,-0.3570180426424369,0.3668663962334394
1725629114004637200,12.20663720703125,0.5328700283825397,-0.41656741573065514,0.3990829047054052
1725629114014671400,12.21667138671875,0.6587222674071789,-0.2992750979216769,0.5194499903172254
1725629114024705300,12.226705322265625,0.671696899792552,-0.13436086844448,0.20214286702275275
1725629114034739200,12.2367392578125,0.7255652681022882,-0.1367925525708124,0.029256489622592925
1725629114044772400,12.2467724609375,0.6106085171014071,-0.022607626192644236,0.03893967924714088
1725629114054806300,12.25680615234375,0.4075111258327961,0.03649243222549557,-0.37418636385798454
1725629114064840200,12.266840087890625,0.20349252806603907,-0.09194953103139995,-0.8976298077255487
1725629114074874400,12.276874267578124,0.04030278429389,-0.1724575575288385,-1.0105465773314237
1725629114084908300,12.286908203125,-0.15844284150600432,-0.18074162094518542,-1.0443220056831837
1725629114094942200,12.296942138671875,-0.28492753321528436,-0.3140695296127349,-0.8702572321534157
1725629114104976100,12.30697607421875,-0.4402034351229667,-0.3481410183016211,-0.5632774416059255
1725629114115010300,12.31701025390625,-0.5225754288613796,-0.3378538714345544,-0.41691432947218415
1725629114125044200,12.327044189453124,-0.4792921674519777,-0.3393297892060131,-0.21713585349321365
1725629114135078100,12.337078125,-0.4987129072368145,-0.30640213679000733,0.10538286696970463
1725629114145112300,12.3471123046875,-0.637393648174405,-0.19932656749300656,-0.11824351758658885
1725629114155146200,12.357146240234375,-0.6238491069465876,-0.11251074608825147,-0.5147504343241452
1725629114165180200,12.36718017578125,-0.5602648157864809,0.009989917486160993,-0.5589934806764125
1725629114175214300,12.37721435546875,-0.5505091454476118,0.11876045413278043,-0.2370271333992481
1725629114185248300,12.387248291015625,-0.5698281784236431,0.08916019257381558,0.11051672272682189
1725629114195282200,12.3972822265625,-0.6183686297088861,-0.03821319160349667,0.16908756963908672
1725629114205315300,12.4073154296875,-0.4931342303216457,-0.10990202489458024,0.2746159825593233
1725629114215349200,12.417349365234376,-0.4477811769008636,-0.2084471547987312,0.3350058615922928
1725629114225383200,12.427383056640625,-0.4444523247390985,-0.36193778072483834,0.20645956117808817
1725629114235417300,12.437417236328125,-0.31454584188759327,-0.46924854701720176,0.10335282244682312
1725629114245451300,12.447451171875,-0.28779753569364547,-0.5603416073497385,0.12125555888414383
1725629114255485200,12.457485107421874,-0.1894096421778202,-0.6386294005144387,0.46977089039087294
1725629114265519400,12.467519287109376,-0.026579963889718054,-0.8389234248001128,0.6157815358251333
1725629114275553300,12.47755322265625,0.06914484789669513,-0.9641168345898389,0.7731248916566371
1725629114285587200,12.487587158203125,0.23140403282046318,-0.9654965254452079,1.175129236766696
