time,seconds_elapsed,z,y,x
1725629101823434500,0.0254345703125,0.11623778939247131,-0.44951310753822327,0.3261677622795105
1725629101833468700,0.03546875,0.0902264341711998,-0.424506813287735,0.3002317547798157
1725629101843502600,0.045502685546875,0.07688216865062714,-0.42513957619667053,0.22704589366912842
1725629101853536500,0.05553662109375,0.06275835633277893,-0.41885238885879517,0.15532803535461426
1725629101863570700,0.06557080078125,0.034757304936647415,-0.395109623670578,0.09847332537174225
1725629101873604600,0.0756044921875,0.0007474054000340402,-0.40217125415802,0.06759530305862427
1725629101883638500,0.085638427734375,-0.061975523829460144,-0.4730601906776428,0.0747893676161766
1725629101893672700,0.095672607421875,-0.15208090841770172,-0.5844926834106445,0.10290942341089249
1725629101903706600,0.10570654296875,-0.2395029067993164,-0.6803881525993347,0.1177125945687294
1725629101913739800,0.11573974609375,-0.2523750364780426,-0.7076312303543091,0.11043763160705566
1725629101923773400,0.1257734375,-0.16537420451641083,-0.722579836845398,0.0835341364145279
1725629101933807600,0.1358076171875,-0.030474446713924408,-0.7227721214294434,0.028192579746246338
1725629101943841800,0.145841796875,0.07150077819824219,-0.7399984002113342,-0.03143666684627533
1725629101953875500,0.15587548828125,0.058729853481054306,-0.711700975894928,-0.03196344152092934
1725629101963909600,0.16590966796875,-0.021947963163256645,-0.873561441898346,-0.01728828065097332
1725629101973943800,0.17594384765625,-0.19184193015098572,-1.1125380992889404,-0.09463419765233994
1725629101983977500,0.1859775390625,-0.19785727560520172,-1.2850812673568726,-0.10842134058475494
1725629101994011600,0.19601171875,-0.13866212964057922,-1.366723656654358,-0.17359314858913422
1725629102004045800,0.2060458984375,-0.03289702907204628,-1.2818912267684937,-0.3164947032928467
1725629102014079500,0.21607958984375,0.05791676416993141,-1.0828747749328613,-0.5114639401435852
1725629102024113700,0.22611376953125,0.09364410489797592,-0.8652485013008118,-0.6878623366355896
1725629102034147800,0.23614794921875,0.0820620134472847,-0.8259029984474182,-0.7719582915306091
1725629102044181500,0.246181396484375,0.1168459951877594,-0.8050331473350525,-0.7345763444900513
1725629102054215700,0.256215576171875,0.18466205894947052,-0.696806013584137,-0.5909944176673889
1725629102064249600,0.26624951171875,0.18671384453773499,-0.6184412240982056,-0.422172874212265
1725629102074283500,0.276283447265625,0.12612293660640717,-0.4512375593185425,-0.3012773394584656
1725629102084317700,0.286317626953125,0.09634536504745483,-0.08257804065942764,-0.20396682620048523
1725629102094350600,0.2963505859375,0.07745663076639175,0.31892597675323486,-0.10507488250732422
1725629102104384800,0.306384765625,0.04802650585770607,0.5682936906814575,-0.03006095066666603
1725629102114418400,0.31641845703125,0.020015109330415726,0.5946823954582214,-0.012808726169168949
1725629102124452600,0.32645263671875,0.013413648121058941,0.49214839935302734,-0.019855106249451637
1725629102134486800,0.33648681640625,0.06439080834388733,0.35730883479118347,-0.04528217017650604
1725629102144520400,0.3465205078125,0.12154380232095718,0.23113080859184265,-0.08519171178340912
1725629102154554600,0.3565546875,0.15530362725257874,0.17850914597511292,-0.1031494066119194
1725629102164588800,0.3665888671875,0.18085776269435883,0.18681246042251587,-0.06898057460784912
1725629102174622500,0.37662255859375,0.14783510565757751,0.13381075859069824,0.003399349283427
1725629102184656600,0.38665673828125,0.05844868719577789,0.043335847556591034,0.10423687100410461
1725629102194690800,0.39669091796875,-0.012436135672032833,-0.03842000290751457,0.24003703892230988
1725629102204724500,0.406724365234375,-0.04482962191104889,-0.10579299926757812,0.3573215901851654
1725629102214758700,0.416758544921875,-0.06964495778083801,-0.21038305759429932,0.3573357164859772
1725629102224792800,0.426792724609375,-0.05230402946472168,-0.29765039682388306,0.31394368410110474
1725629102234826500,0.436826416015625,0.0016556065529584885,-0.3042992651462555,0.2868441641330719
1725629102244860700,0.446860595703125,0.05939102545380592,-0.29578983783721924,0.2747809886932373
1725629102254894800,0.456894775390625,0.14872276782989502,-0.3645201623439789,0.24416795372962952
1725629102264928500,0.466928466796875,0.21442343294620514,-0.43155208230018616,0.18512865900993347
1725629102274962000,0.4769619140625,0.20081308484077454,-0.4202972948551178,0.0600048266351223
1725629102284995800,0.486995849609375,0.1565942019224167,-0.27672630548477173,-0.04380565509200096
1725629102295029800,0.49702978515625,0.10891855508089066,-0.02511642687022686,-0.12393110990524292
1725629102305064000,0.50706396484375,0.07278984785079956,0.23127807676792145,-0.18432867527008057
1725629102315097900,0.517097900390625,0.04935482516884804,0.38658270239830017,-0.22929802536964417
1725629102325131800,0.5271318359375,0.05102769657969475,0.45170730352401733,-0.28213247656822205
1725629102335166000,0.537166015625,0.08039836585521698,0.4893481433391571,-0.3309210538864136
1725629102345199900,0.547199951171875,0.10690533369779587,0.5027389526367188,-0.3429524004459381
1725629102355233800,0.55723388671875,0.08746319264173508,0.4971681535243988,-0.3258666396141052
1725629102365267700,0.567267822265625,0.009360885247588158,0.3981754183769226,-0.3369908630847931
1725629102375302000,0.577302001953125,-0.07147005200386047,0.16986766457557678,-0.35884609818458557
1725629102385335800,0.587335693359375,-0.12537714838981628,-0.11464807391166687,-0.3746888339519501
1725629102395369700,0.59736962890625,-0.18029871582984924,-0.41317617893218994,-0.3668988049030304
1725629102405404000,0.60740380859375,-0.2816981375217438,-0.7178443074226379,-0.3361239433288574
1725629102415437800,0.617437744140625,-0.38554835319519043,-0.9658082723617554,-0.3232768476009369
1725629102425471700,0.6274716796875,-0.42847007513046265,-1.0629494190216064,-0.34570977091789246
1725629102435506000,0.637505859375,-0.3746073842048645,-0.9869478344917297,-0.3825535476207733
1725629102445538800,0.647538818359375,-0.262605756521225,-0.8916597366333008,-0.44068536162376404
1725629102455572700,0.65757275390625,-0.14737847447395325,-0.9505246877670288,-0.5316656231880188
1725629102465607000,0.66760693359375,-0.026107314974069595,-1.204512119293213,-0.641635537147522
1725629102475640800,0.677640869140625,0.04680577665567398,-1.6926517486572266,-0.7844563126564026
1725629102485674800,0.6876748046875,0.08701430261135101,-2.3847768306732178,-0.9513309597969055
1725629102495709000,0.697708984375,0.10543432086706161,-3.0608129501342773,-1.124708652496338
1725629102505742800,0.707742919921875,0.12622858583927155,-3.3950042724609375,-1.2709959745407104
1725629102515776800,0.71777685546875,0.17397665977478027,-3.2023561000823975,-1.3162944316864014
1725629102525811000,0.72781103515625,0.24120178818702698,-2.6310548782348633,-1.2414462566375732
1725629102535844900,0.737844970703125,0.3070274293422699,-1.9918159246444702,-1.0949913263320923
1725629102545878800,0.747878662109375,0.36013099551200867,-1.5460337400436401,-0.9902250170707703
1725629102555913000,0.757912841796875,0.3908851742744446,-1.4371248483657837,-1.0090192556381226
1725629102565947000,0.76794677734375,0.40997985005378723,-1.5856577157974243,-1.0676190853118896
1725629102575980800,0.777980712890625,0.4094778299331665,-1.8157052993774414,-1.094779372215271
1725629102586015000,0.788014892578125,0.3496319055557251,-2.0639307498931885,-1.1029670238494873
1725629102596049000,0.798048828125,0.2455446422100067,-2.358262062072754,-1.0703885555267334
1725629102606082800,0.808082763671875,0.11864478141069412,-2.642415761947632,-1.012930154800415
1725629102616116700,0.81811669921875,-0.03848598524928093,-2.945805549621582,-0.9482057690620422
1725629102626150000,0.82814990234375,-0.2001863718032837,-3.182634115219116,-0.8930202126502991
1725629102636184000,0.83818408203125,-0.37918034195899963,-3.0714643001556396,-0.8268163800239563
1725629102646217700,0.8482177734375,-0.5293973684310913,-2.629244804382324,-0.7351319193840027
1725629102656252000,0.858251953125,-0.5831748247146606,-2.02937388420105,-0.6819341778755188
1725629102666285800,0.868285888671875,-0.5338555574417114,-1.6438684463500977,-0.8058959245681763
1725629102676319700,0.87831982421875,-0.5498009920120239,-1.6771973371505737,-1.2116596698760986
1725629102686354000,0.88835400390625,-0.686417818069458,-2.1843271255493164,-1.60654616355896
1725629102696387800,0.898387939453125,-0.9911553263664246,-2.9302656650543213,-1.845861792564392
1725629102706421800,0.908421875,-1.4331623315811157,-3.6295177936553955,-2.0131781101226807
1725629102716456000,0.9184560546875,-1.8364578485488892,-4.083495616912842,-2.1729753017425537
1725629102726489900,0.92848974609375,-2.036527633666992,-3.90993070602417,-2.4837069511413574
1725629102736523800,0.938523681640625,-2.0257701873779297,-3.1092681884765625,-2.8853507041931152
1725629102746558000,0.948557861328125,-1.8034688234329224,-2.323960065841675,-3.2067270278930664
1725629102756591900,0.958591796875,-1.5211678743362427,-1.8214906454086304,-3.3963048458099365
1725629102766625800,0.968625732421875,-1.3220820426940918,-1.436000943183899,-3.4771385192871094
1725629102776660000,0.978659912109375,-1.1453243494033813,-1.1633837223052979,-3.3998143672943115
1725629102786694000,0.98869384765625,-0.9876391887664795,-1.3674147129058838,-3.169718027114868
1725629102796727800,0.998727783203125,-1.0051697492599487,-1.5797230005264282,-2.8825392723083496
1725629102806760700,1.0087607421875,-1.1763355731964111,-1.7377442121505737,-2.5860111713409424
1725629102816795000,1.018794921875,-1.389068365097046,-1.8013991117477417,-2.3032970428466797
1725629102826829000,1.0288291015625,-1.6022759675979614,-1.7391434907913208,-2.0237252712249756
1725629102836862700,1.03886279296875,-1.7720786333084106,-1.6078426837921143,-1.7629495859146118
1725629102846897000,1.04889697265625,-1.8581538200378418,-1.410537838935852,-1.5671617984771729
1725629102856931000,1.05893115234375,-1.785601258277893,-1.1080231666564941,-1.4324114322662354
1725629102866964700,1.06896484375,-1.5335787534713745,-0.5623918175697327,-1.346999168395996
1725629102876999000,1.0789990234375,-1.1227320432662964,-0.013865840621292591,-1.3306676149368286
1725629102887033000,1.089033203125,-0.6071905493736267,0.20328380167484283,-1.3702561855316162
1725629102897066800,1.099066650390625,-0.022496458142995834,0.2728210687637329,-1.4134364128112793
1725629102907101000,1.109100830078125,0.6379618644714355,0.26027393341064453,-1.4000145196914673
1725629102917134800,1.119134765625,1.4008408784866333,0.9446933269500732,-0.99542236328125
1725629102927168800,1.129168701171875,2.1007063388824463,0.7779465317726135,-0.15581102669239044
1725629102937203000,1.139202880859375,2.8014025688171387,0.6078600287437439,1.0060664415359497
1725629102947236900,1.14923681640625,3.4916787147521973,0.5106310844421387,2.1755974292755127
1725629102957270800,1.159270751953125,4.049091339111328,0.3521071970462799,3.2183828353881836
1725629102967305000,1.169304931640625,4.414074420928955,0.5110160112380981,4.137355804443359
1725629102977337900,1.179337890625,4.568960189819336,1.2011959552764893,5.003290176391602
1725629102987372000,1.1893720703125,4.518333435058594,2.1136324405670166,5.779231548309326
1725629102997405700,1.19940576171875,4.392856597900391,2.9467966556549072,6.31151819229126
1725629103007440000,1.20943994140625,4.098265647888184,3.3680076599121094,6.392993927001953
1725629103017474000,1.21947412109375,3.4578187465667725,2.488351583480835,5.461214542388916
1725629103027507700,1.2295078125,1.911604404449463,0.32977956533432007,3.2215688228607178
1725629103037542000,1.2395419921875,0.05344218388199806,-0.7630046010017395,1.2631654739379883
1725629103047576000,1.249576171875,-1.3699270486831665,-0.8634020090103149,0.013687130995094776
1725629103057609700,1.259609619140625,-1.8446948528289795,-0.7192221879959106,-0.6574143171310425
1725629103067644000,1.269643798828125,-1.8052061796188354,-0.10291393846273422,-0.6889787912368774
1725629103077678000,1.279677978515625,-1.454707384109497,0.8373885750770569,-0.28412318229675293
1725629103087711700,1.289711669921875,-0.6893401741981506,0.8013543486595154,-0.0028415799606591463
1725629103097746000,1.299745849609375,-0.10242212563753128,0.5079230070114136,0.13009223341941833
1725629103107780000,1.309780029296875,0.00633053295314312,0.6077144742012024,0.34376445412635803
1725629103117813800,1.319813720703125,-0.2228832244873047,0.8602069020271301,0.6391510963439941
1725629103127848000,1.329847900390625,-0.3700701594352722,1.0403386354446411,0.8791590929031372
1725629103137881900,1.3398818359375,-0.4252431392669678,1.1996169090270996,1.072888970375061
1725629103147915000,1.3499150390625,-0.4666615128517151,1.1143726110458374,1.15365469455719
1725629103157949000,1.359948974609375,-0.5786884427070618,0.7721455097198486,1.0841161012649536
1725629103167982800,1.36998291015625,-0.837274432182312,0.42536062002182007,1.0041652917861938
1725629103178017000,1.38001708984375,-1.1390386819839478,0.27016597986221313,1.0995618104934692
1725629103188051000,1.390051025390625,-1.227663278579712,-0.09270606189966202,1.3473951816558838
1725629103198084900,1.4000849609375,-1.0674270391464233,-0.6985648274421692,1.5860868692398071
1725629103208119000,1.410119140625,-0.8732545375823975,-1.2203093767166138,1.7544550895690918
1725629103218152700,1.420152587890625,-0.8522539138793945,-1.2610262632369995,1.8965376615524292
1725629103228187000,1.430186767578125,-1.0201387405395508,-0.8823394775390625,2.062940835952759
1725629103238221000,1.440220947265625,-1.1946790218353271,-0.2876928746700287,2.2267820835113525
1725629103248254700,1.450254638671875,-1.2193598747253418,0.17940248548984528,2.313072681427002
1725629103258289000,1.460288818359375,-1.1269726753234863,0.46400386095046997,2.252880096435547
1725629103268323000,1.470322998046875,-1.0542891025543213,0.5791749358177185,2.0348429679870605
1725629103278356700,1.480356689453125,-1.209749460220337,0.5718739032745361,1.733141541481018
1725629103288391000,1.490390869140625,-1.5616366863250732,0.46017712354660034,1.3407820463180542
1725629103298424800,1.5004248046875,-1.8080641031265259,0.3644130527973175,0.7819779515266418
1725629103308458800,1.510458740234375,-1.492254376411438,0.7013799548149109,0.28764256834983826
1725629103318492000,1.520491943359375,-0.513168215751648,1.381672739982605,-0.060032572597265244
1725629103328525800,1.53052587890625,0.5222066044807434,1.7202194929122925,-0.24990257620811462
1725629103338559700,1.540559814453125,0.9855369925498962,1.8166594505310059,-0.3908671438694
1725629103348594000,1.550593994140625,1.093587875366211,1.7768949270248413,-0.8097026944160461
1725629103358627800,1.5606279296875,1.1164684295654297,1.4530646800994873,-1.4157688617706299
1725629103368661800,1.570661865234375,0.8830997943878174,0.9030241966247559,-1.855928897857666
1725629103378696000,1.580696044921875,0.32457470893859863,0.33326080441474915,-1.7911655902862549
1725629103388729900,1.590729736328125,-0.24951064586639404,0.009880747646093369,-1.2559185028076172
1725629103398763800,1.600763671875,-0.47490406036376953,-0.049236103892326355,-0.504643976688385
1725629103408798000,1.6107978515625,-0.3303779363632202,0.07318203896284103,0.1648174673318863
1725629103418832000,1.620831787109375,-0.06708131730556488,-0.0621587373316288,0.39583975076675415
1725629103428865800,1.63086572265625,-0.04640369117259979,-0.412196546792984,0.27688586711883545
1725629103438899700,1.640899658203125,-0.16674500703811646,-0.6928271055221558,0.1686834990978241
1725629103448934000,1.650933837890625,-0.29994145035743713,-0.7645845413208008,0.15188834071159363
1725629103458967800,1.6609677734375,-0.25940176844596863,-0.7240565419197083,0.18334586918354034
1725629103469001700,1.671001708984375,-0.12405233085155487,-0.6711999177932739,0.25988537073135376
1725629103479035000,1.681034912109375,-0.12164723128080368,-0.43118995428085327,0.4496750235557556
1725629103489069000,1.691069091796875,-0.03457928076386452,-0.11287499219179153,0.6026293039321899
1725629103499102700,1.701102783203125,0.21558022499084473,0.04654129222035408,0.5948707461357117
1725629103509137000,1.711136962890625,0.27080798149108887,0.00956760160624981,0.5272418856620789
1725629103519170800,1.7211708984375,0.16735242307186127,-0.22813735902309418,0.3852948546409607
1725629103529204700,1.731204833984375,0.09058502316474915,-0.49505484104156494,0.1947246640920639
1725629103539239000,1.741239013671875,-0.0028522456996142864,-0.565666675567627,0.020594416186213493
1725629103549272800,1.75127294921875,0.008950257673859596,-0.4499225914478302,-0.15768644213676453
1725629103559306800,1.761306640625,0.0518718883395195,-0.16388684511184692,-0.27985256910324097
1725629103569341000,1.7713408203125,0.10116958618164062,0.07896392047405243,-0.22344446182250977
1725629103579374800,1.781374755859375,0.15057362616062164,0.3080351948738098,-0.16668158769607544
1725629103589408800,1.79140869140625,0.12531118094921112,0.4990184009075165,-0.28963321447372437
1725629103599443000,1.80144287109375,0.020831918343901634,0.2975262999534607,-0.5198469758033752
1725629103609476900,1.811476806640625,-0.1784813106060028,-0.1274154931306839,-0.5106420516967773
1725629103619510800,1.8215107421875,-0.23276638984680176,-0.3896401822566986,-0.27469953894615173
1725629103629545000,1.831544921875,-0.1614539921283722,-0.44290047883987427,0.005659596994519234
1725629103639579000,1.841578857421875,-0.017494414001703262,-0.4481692910194397,0.30459144711494446
1725629103649612000,1.851612060546875,0.12717951834201813,-0.7173846960067749,0.667965292930603
1725629103659645700,1.861645751953125,0.15584605932235718,-0.7235807776451111,0.8728172779083252
1725629103669679900,1.871679931640625,0.2549709677696228,-0.557526707649231,0.8777415752410889
1725629103679714000,1.881714111328125,0.3905077576637268,-0.4840186834335327,0.8377293944358826
1725629103689747700,1.891747802734375,0.46617498993873596,-0.42394715547561646,0.7867692112922668
1725629103699782000,1.901781982421875,0.4983814060688019,-0.22775286436080933,0.7130803465843201
1725629103709816000,1.911816162109375,0.6561793684959412,0.0842263251543045,0.5634006857872009
1725629103719849700,1.921849609375,0.795156717300415,0.4156535267829895,0.40228796005249023
1725629103729884000,1.9318837890625,0.7452062964439392,0.6370726227760315,0.25383320450782776
1725629103739917800,1.941917724609375,0.6458182334899902,0.7440004348754883,0.005328855477273464
1725629103749951700,1.95195166015625,0.6176496148109436,0.8170029520988464,-0.3277914524078369
1725629103759986000,1.96198583984375,0.3323014974594116,0.6173662543296814,-0.7256788611412048
1725629103770019800,1.972019775390625,0.08100959658622742,0.48658034205436707,-0.8593942523002625
1725629103780053800,1.9820537109375,0.06506924331188202,0.29427003860473633,-0.8505853414535522
1725629103790088000,1.992087890625,-0.007579626515507698,0.21896356344223022,-0.6394491791725159
1725629103800121900,2.002121826171875,-0.0977497324347496,0.15059223771095276,-0.19926755130290985
1725629103810155000,2.012155029296875,-0.019554810598492622,0.13921912014484406,0.1460978388786316
1725629103820188700,2.022188720703125,0.035239461809396744,0.17271022498607635,0.3182554841041565
1725629103830222800,2.032222900390625,-0.009033694863319397,0.05671120807528496,0.43757808208465576
1725629103840257000,2.042257080078125,-0.09854599833488464,-0.122683584690094,0.5760797262191772
1725629103850290700,2.052290771484375,-0.10626446455717087,-0.3009876012802124,0.7075343728065491
1725629103860324900,2.062324951171875,0.005954214371740818,-0.48689064383506775,0.8309303522109985
1725629103870359000,2.072359130859375,-0.00997690949589014,-0.6302054524421692,0.9515938758850098
1725629103880392700,2.082392822265625,-0.005285485181957483,-0.7983566522598267,0.9675392508506775
1725629103890427000,2.092427001953125,0.0033993178512901068,-1.0580288171768188,0.8937857151031494
1725629103900461000,2.1024609375,-0.011930369772017002,-1.3050862550735474,0.7745259404182434
1725629103910494700,2.11249462890625,-0.13839203119277954,-1.432068109512329,0.6131194233894348
1725629103920529000,2.12252880859375,-0.15528765320777893,-1.6131912469863892,0.4830434024333954
1725629103930563000,2.13256298828125,-0.20068855583667755,-2.0212464332580566,0.498770534992218
1725629103940596700,2.1425966796875,-0.302254855632782,-2.4642012119293213,0.5906490683555603
1725629103950631000,2.152630859375,-0.3921460807323456,-2.6700000762939453,0.6272169947624207
1725629103960665000,2.1626650390625,-0.354609876871109,-2.3000705242156982,0.6465323567390442
1725629103970698800,2.17269873046875,-0.3346345126628876,-1.726763367652893,0.7903680205345154
1725629103980732000,2.18273193359375,0.013248879462480545,-1.2706389427185059,0.6510263681411743
1725629103990765800,2.192765869140625,0.7477860450744629,-0.589431881904602,0.3577283024787903
1725629104000800000,2.202800048828125,1.4649931192398071,0.5646894574165344,0.031031958758831024
1725629104010834000,2.212833984375,2.258876085281372,1.8326292037963867,-0.18245966732501984
1725629104020867800,2.222867919921875,3.003375291824341,2.1831700801849365,0.08221964538097382
1725629104030902000,2.232902099609375,3.5243453979492188,1.7797200679779053,1.0874327421188354
1725629104040935700,2.242935791015625,3.9073472023010254,1.2285429239273071,2.3611700534820557
1725629104050969900,2.252969970703125,4.261570930480957,0.8896388411521912,3.267122268676758
1725629104061004000,2.263004150390625,4.518754005432129,1.160140037536621,3.865692138671875
1725629104071037700,2.27303759765625,4.631260395050049,1.6019407510757446,4.206555366516113
1725629104081071900,2.28307177734375,4.764665126800537,2.036348819732666,4.4341139793396
1725629104091106000,2.29310595703125,5.012691020965576,1.9063589572906494,4.551124095916748
1725629104101139700,2.3031396484375,5.114924430847168,1.7366690635681152,4.81398868560791
1725629104111174000,2.313173828125,5.3344621658325195,1.694696307182312,5.039158344268799
1725629104121208000,2.3232080078125,5.760706424713135,1.7292042970657349,5.11518669128418
1725629104131241000,2.333240966796875,6.265995502471924,1.8295689821243286,5.082401752471924
1725629104141275000,2.34327490234375,6.569654941558838,2.076030731201172,5.047707557678223
1725629104151308800,2.353308837890625,6.550127983093262,2.1901776790618896,4.980545520782471
1725629104161343000,2.363343017578125,6.280992031097412,2.109386444091797,4.882815837860107
1725629104171377000,2.373376953125,5.814351558685303,1.7883447408676147,4.766162872314453
1725629104181410800,2.383410888671875,5.317998886108398,1.6526098251342773,4.572260856628418
1725629104191445000,2.393445068359375,4.78525972366333,1.9075745344161987,4.304734230041504
1725629104201479000,2.40347900390625,4.288563251495361,2.291482448577881,3.9338467121124268
1725629104211512800,2.413512939453125,3.937675714492798,2.767085552215576,3.5737204551696777
1725629104221547000,2.423547119140625,3.6598451137542725,3.3389692306518555,3.2317779064178467
1725629104231581000,2.433580810546875,3.3911876678466797,3.5974433422088623,2.8634142875671387
1725629104241614800,2.44361474609375,2.980992555618286,3.2880029678344727,2.7081310749053955
1725629104251649000,2.45364892578125,2.511324405670166,2.4851601123809814,2.684880495071411
1725629104261683000,2.463682861328125,2.017850875854492,1.6376253366470337,2.557349681854248
1725629104271716900,2.473716796875,1.7004727125167847,0.9897320866584778,2.246840000152588
1725629104281751000,2.4837509765625,1.2882773876190186,0.40013939142227173,1.6057488918304443
1725629104291784000,2.493783935546875,0.6159600615501404,-0.07618165761232376,0.369584321975708
1725629104301818000,2.503818115234375,-1.2369704246520996,-0.8130975365638733,-3.7467801570892334
1725629104311852300,2.513852294921875,-2.2184054851531982,0.838655948638916,-5.466907501220703
1725629104321886000,2.523885986328125,-1.5144250392913818,0.7645583152770996,-6.186841011047363
1725629104331920100,2.533920166015625,-1.3701211214065552,1.6089770793914795,-5.338383197784424
1725629104341954300,2.543954345703125,-1.7398113012313843,1.5136018991470337,-4.350478172302246
1725629104351988000,2.553988037109375,-1.836894154548645,0.23182332515716553,-4.101712226867676
1725629104362022100,2.564022216796875,-1.5796653032302856,-0.379584401845932,-3.350635290145874
1725629104372056000,2.57405615234375,-1.2132478952407837,-0.8336252570152283,-2.5846192836761475
1725629104382090000,2.584090087890625,-0.9558697938919067,-1.3578886985778809,-2.238774061203003
1725629104392124200,2.594124267578125,-0.663589596748352,-1.6531293392181396,-1.8231041431427002
1725629104402158000,2.604157958984375,-0.5866844654083252,-1.9982441663742065,-2.0030293464660645
1725629104412192000,2.61419189453125,-0.9424697160720825,-1.784206509590149,-1.0029886960983276
1725629104422226200,2.62422607421875,-0.858454704284668,-2.4087815284729004,-0.08862778544425964
1725629104432260000,2.634260009765625,-0.45668402314186096,-2.6134939193725586,0.6486167311668396
1725629104442294000,2.6442939453125,-0.27593448758125305,-2.4926528930664062,1.1756278276443481
1725629104452328200,2.654328125,-0.19065971672534943,-2.5132415294647217,1.4173736572265625
1725629104462361000,2.664361083984375,0.06909435242414474,-2.340834617614746,1.4709898233413696
1725629104472395300,2.674395263671875,0.43597811460494995,-1.8884472846984863,1.3876926898956299
1725629104482429000,2.684428955078125,0.83549565076828,-1.179792881011963,1.1684852838516235
1725629104492463000,2.694463134765625,1.279809594154358,-0.6059738993644714,0.8953636288642883
1725629104502497300,2.704497314453125,1.7108986377716064,-0.2180863916873932,0.6916735768318176
1725629104512531000,2.714531005859375,2.2163474559783936,-0.0017916002543643117,0.7022272944450378
1725629104522565000,2.724565185546875,2.698547601699829,-0.0047612907364964485,0.7986819744110107
1725629104532599300,2.734599365234375,3.0701792240142822,-0.27399757504463196,0.8435710668563843
1725629104542633000,2.744633056640625,3.2463948726654053,-0.6219390034675598,0.8574003577232361
1725629104552667100,2.754667236328125,3.2243764400482178,-0.9741452932357788,0.8839871287345886
1725629104562701300,2.764701416015625,3.071814775466919,-1.1513630151748657,0.7620252370834351
1725629104572735000,2.77473486328125,2.860863208770752,-1.1196753978729248,0.46832895278930664
1725629104582769200,2.78476904296875,2.645369291305542,-1.0998907089233398,0.14680416882038116
1725629104592803300,2.79480322265625,2.442502498626709,-1.2981300354003906,-0.04963826388120651
1725629104602837000,2.8048369140625,2.141911745071411,-1.6949971914291382,-0.1437639594078064
1725629104612870100,2.8148701171875,1.8804740905761719,-1.502286434173584,-0.19024936854839325
1725629104622904000,2.824904052734375,1.453324556350708,-1.2600234746932983,-0.2054472267627716
1725629104632938200,2.834938232421875,0.7032402157783508,-1.2265626192092896,-0.18819235265254974
1725629104642972200,2.84497216796875,-0.09491479396820068,-0.4504178762435913,-0.291491836309433
1725629104653006000,2.855006103515625,-0.6764863729476929,0.7623254060745239,-0.3972202241420746
1725629104663040300,2.865040283203125,-1.05836820602417,1.937877893447876,-0.43125808238983154
1725629104673074000,2.875073974609375,-1.332571268081665,2.933566093444824,-0.5695147514343262
1725629104683108000,2.885108154296875,-1.6363469362258911,3.520876169204712,-0.8487155437469482
1725629104693142300,2.895142333984375,-2.069159984588623,3.616046905517578,-0.9909546971321106
1725629104703176000,2.905176025390625,-2.281334400177002,3.2632508277893066,-0.8122286200523376
1725629104713210000,2.915210205078125,-2.376607656478882,2.549654006958008,-0.4856783449649811
1725629104723244300,2.925244384765625,-2.057884693145752,1.632179617881775,-0.2298002392053604
1725629104733278000,2.93527783203125,-1.4377899169921875,1.179733395576477,-0.12208050489425659
1725629104743312100,2.94531201171875,-0.6148161292076111,1.3138107061386108,-0.1990213543176651
1725629104753346300,2.95534619140625,0.223201185464859,1.6144384145736694,-0.6008945107460022
1725629104763380000,2.9653798828125,0.7624351382255554,1.5753072500228882,-1.0851927995681763
1725629104773413000,2.9754130859375,1.0700178146362305,1.2783657312393188,-1.5446522235870361
1725629104783447000,2.985447021484375,1.187429666519165,1.1009308099746704,-1.8015053272247314
1725629104793481200,2.995481201171875,1.3003007173538208,1.1692869663238525,-1.870584487915039
1725629104803515100,3.00551513671875,1.2537792921066284,1.6535471677780151,-2.172168731689453
1725629104813549000,3.015549072265625,1.1951899528503418,1.7703771591186523,-2.3619980812072754
1725629104823583200,3.025583251953125,1.263744592666626,1.9729105234146118,-2.5217604637145996
1725629104833617200,3.0356171875,1.3540016412734985,2.001159191131592,-2.751871109008789
1725629104843651000,3.045651123046875,1.4319363832473755,1.885041356086731,-2.967965841293335
1725629104853685200,3.055685302734375,1.5497446060180664,1.691448450088501,-3.0003206729888916
1725629104863719200,3.06571923828125,1.4699238538742065,1.6406766176223755,-2.8501501083374023
1725629104873753000,3.075753173828125,0.9850257635116577,1.758148431777954,-2.7271924018859863
1725629104883787300,3.085787353515625,0.34524014592170715,2.175767183303833,-2.5453109741210938
1725629104893821200,3.0958212890625,-0.3152526319026947,2.9475746154785156,-2.3070318698883057
1725629104903855000,3.105855224609375,-0.754163384437561,3.313777446746826,-1.8277846574783325
1725629104913889300,3.11588916015625,-1.0079396963119507,3.485306739807129,-1.2991976737976074
1725629104923923000,3.1259228515625,-1.3766319751739502,3.5198915004730225,-0.6147300601005554
1725629104933956000,3.1359560546875,-1.6242005825042725,3.7614128589630127,0.09786759316921234
1725629104943990300,3.145990234375,-1.3502742052078247,3.5952253341674805,1.113497018814087
1725629104954024200,3.156024169921875,-0.9895952343940735,3.1465201377868652,1.96134352684021
1725629104964058000,3.16605810546875,-1.423775315284729,2.3345258235931396,2.3021185398101807
1725629104974092000,3.176092041015625,-2.045124053955078,1.4187299013137817,2.525764226913452
1725629104984126200,3.186126220703125,-2.3081893920898438,0.685063898563385,2.664045572280884
1725629104994160000,3.19616015625,-2.3300533294677734,-0.38936617970466614,2.631030321121216
1725629105004194000,3.206194091796875,-2.5639235973358154,-1.6867038011550903,2.3580355644226074
1725629105014228200,3.216228271484375,-2.1700775623321533,-3.4232869148254395,2.0363872051239014
1725629105024262100,3.22626220703125,-0.6804953813552856,-5.270020484924316,1.4925274848937988
1725629105034296000,3.236296142578125,0.6545002460479736,-7.343556880950928,1.417323112487793
1725629105044330200,3.246330322265625,0.12693043053150177,-8.67469310760498,2.396282196044922
1725629105054364200,3.2563642578125,-1.1691776514053345,-8.410146713256836,3.516206979751587
1725629105064398000,3.266398193359375,-2.4754347801208496,-6.733152866363525,3.9175925254821777
1725629105074432300,3.276432373046875,-2.814469814300537,-3.930879831314087,3.2064199447631836
1725629105084466200,3.286466064453125,-1.8278062343597412,-0.8676812648773193,2.1288623809814453
1725629105094499000,3.2964990234375,0.48909875750541687,0.10053175687789917,1.6381893157958984
1725629105104533200,3.306533203125,2.079838752746582,-0.33468097448349,1.8831149339675903
1725629105114567200,3.316567138671875,3.439478635787964,-1.457706332206726,2.5325844287872314
1725629105124601000,3.32660107421875,4.130446910858154,-2.4671735763549805,2.834078550338745
1725629105134635300,3.33663525390625,2.253492593765259,-2.7825870513916016,2.8707127571105957
1725629105144669000,3.3466689453125,0.7011556029319763,-3.340543508529663,3.104360580444336
1725629105154703000,3.356703125,-0.347749799489975,-4.25203275680542,3.3397457599639893
1725629105164737300,3.3667373046875,-1.7055031061172485,-6.097269535064697,3.62162184715271
1725629105174771000,3.37677099609375,-3.1892967224121094,-7.365133285522461,3.608753204345703
1725629105184805000,3.38680517578125,-3.6595611572265625,-6.503036022186279,3.270850419998169
1725629105194839300,3.39683935546875,-3.0974056720733643,-5.182374477386475,3.1277241706848145
1725629105204873000,3.406873046875,-2.39430832862854,-3.585484027862549,3.076493978500366
1725629105214907100,3.4169072265625,-1.6596312522888184,-1.3406882286071777,3.1071221828460693
1725629105224941000,3.426941162109375,-0.8721553087234497,0.5256109833717346,3.191965341567993
1725629105234975000,3.43697509765625,-0.7238777875900269,1.075664758682251,3.3518779277801514
1725629105245008100,3.447008056640625,-0.9983282089233398,1.0153244733810425,3.351255416870117
1725629105255042000,3.4570419921875,-1.5153541564941406,0.5518444180488586,3.3087151050567627
1725629105265076200,3.467076171875,-2.574920654296875,-0.4367544949054718,3.137113332748413
1725629105275110000,3.47710986328125,-3.18536114692688,-4.135295391082764,3.2001922130584717
1725629105285144300,3.487144287109375,-3.1564087867736816,-8.414926528930664,2.4029593467712402
1725629105295178500,3.497178466796875,-1.5141865015029907,-6.179474353790283,0.427477091550827
1725629105305212200,3.507212158203125,0.9494801163673401,0.24043500423431396,-1.5583875179290771
1725629105315246300,3.517246337890625,1.5918349027633667,0.8263949155807495,-2.146934747695923
1725629105325280500,3.527280517578125,1.1597583293914795,0.02552114613354206,-2.039579391479492
1725629105335314200,3.537314208984375,0.5680241584777832,-0.46080830693244934,-1.6637216806411743
1725629105345348400,3.547348388671875,0.2199242115020752,-0.677552342414856,-1.148410677909851
1725629105355382500,3.557382568359375,0.13630737364292145,-0.6975654363632202,-0.6229507327079773
1725629105365416200,3.567416259765625,0.1419985592365265,-0.5135817527770996,-0.19429124891757965
1725629105375450400,3.577450439453125,0.09909776598215103,-0.27917903661727905,0.10128124058246613
1725629105385484500,3.587484619140625,0.05921213701367378,0.07780890166759491,0.23564010858535767
1725629105395518200,3.597518310546875,0.09371578693389893,0.4488275349140167,0.284202516078949
1725629105405551400,3.60755126953125,0.5316132307052612,0.13744382560253143,0.40851542353630066
1725629105415585300,3.617585205078125,0.9539411664009094,0.2906995713710785,0.3287074565887451
1725629105425619500,3.627619384765625,1.0885086059570312,0.8906599879264832,0.1999494880437851
1725629105435653400,3.6376533203125,1.3314439058303833,1.0405253171920776,0.33335739374160767
1725629105445687300,3.647687255859375,1.7850697040557861,0.9390555024147034,0.6668863296508789
1725629105455721500,3.657721435546875,1.8079509735107422,1.1244193315505981,1.0179585218429565
1725629105465755400,3.66775537109375,1.2588977813720703,1.6557875871658325,1.1629093885421753
1725629105475789300,3.677789306640625,0.6648284792900085,2.1074957847595215,1.0503958463668823
1725629105485823500,3.687823486328125,0.16404767334461212,2.3683319091796875,0.722780168056488
1725629105495857400,3.697857421875,-0.030199402943253517,2.2271335124969482,0.3415508270263672
1725629105505891300,3.707891357421875,-0.33287137746810913,1.954505443572998,-0.12398732453584671
1725629105515925500,3.717925537109375,-0.44716861844062805,1.5042046308517456,-0.5968260765075684
1725629105525959200,3.727959228515625,-0.3218759298324585,0.683771014213562,-0.9787507653236389
1725629105535993300,3.737993408203125,-0.18560858070850372,-0.055408038198947906,-1.1440871953964233
1725629105546027500,3.748027587890625,-0.06029113382101059,-0.17802023887634277,-0.9956758618354797
1725629105556061200,3.758061279296875,0.04343784600496292,0.1278076320886612,-0.6577205657958984
1725629105566094300,3.76809423828125,0.2914244830608368,0.3082551658153534,-0.34052765369415283
1725629105576128500,3.77812841796875,0.5173584222793579,0.27723613381385803,-0.2469262182712555
1725629105586162400,3.788162353515625,0.672983705997467,0.10613947361707687,-0.3280484974384308
1725629105596196400,3.7981962890625,0.722531795501709,-0.08822473883628845,-0.4320034682750702
1725629105606230300,3.808230224609375,0.7139316201210022,-0.2583722472190857,-0.47751474380493164
1725629105616264400,3.818264404296875,0.6495451331138611,-0.4302111268043518,-0.4308933913707733
1725629105626298400,3.82829833984375,0.5753222703933716,-0.4691513180732727,-0.34286820888519287
1725629105636332300,3.838332275390625,0.543271541595459,-0.3106859624385834,-0.31199657917022705
1725629105646366500,3.848366455078125,0.4613135755062103,-0.15599706768989563,-0.3195631504058838
1725629105656400400,3.858400390625,0.3757235109806061,-0.05924409627914429,-0.2923790514469147
1725629105666434300,3.868434326171875,0.33036643266677856,0.08315245807170868,-0.2124226838350296
1725629105676468500,3.878468505859375,0.3147018849849701,0.22583213448524475,-0.10775582492351532
1725629105686502400,3.88850244140625,0.30761948227882385,0.297688752412796,0.0003895519766956568
1725629105696536300,3.898536376953125,0.29335471987724304,0.33703291416168213,0.09054914861917496
1725629105706570500,3.908570556640625,0.22048930823802948,0.3987543284893036,0.13318128883838654
1725629105716603400,3.918603271484375,0.12585030496120453,0.42122983932495117,0.1501895934343338
1725629105726637300,3.92863720703125,0.022865066304802895,0.3802938461303711,0.16064037382602692
1725629105736671500,3.93867138671875,-0.05097675696015358,0.2905283272266388,0.18661242723464966
1725629105746705400,3.948705322265625,-0.09261634945869446,0.16649983823299408,0.2380995899438858
1725629105756739300,3.9587392578125,-0.1690356731414795,0.028941936790943146,0.30664777755737305
1725629105766772200,3.968772216796875,-0.2159840166568756,-0.13299477100372314,0.3726787269115448
1725629105776806400,3.978806396484375,-0.2201050966978073,-0.24389569461345673,0.43660473823547363
1725629105786840300,3.98884033203125,-0.23760712146759033,-0.3237585723400116,0.5002130270004272
1725629105796874200,3.998874267578125,-0.28190717101097107,-0.3880150318145752,0.548973023891449
1725629105806908400,4.008908447265625,-0.29139256477355957,-0.44147399067878723,0.6098110675811768
1725629105816942300,4.0189423828125,-0.32302629947662354,-0.36875179409980774,0.66007000207901
1725629105826976300,4.028976318359375,-0.3923182785511017,-0.28890570998191833,0.6783004403114319
1725629105837010400,4.039010498046875,-0.4770555794239044,-0.2592734694480896,0.6702591776847839
1725629105847044400,4.04904443359375,-0.6009958982467651,-0.2231452614068985,0.6647653579711914
1725629105857078300,4.059078369140625,-0.7520756721496582,-0.16683989763259888,0.6421604156494141
1725629105867112400,4.069112548828125,-0.8735430240631104,-0.025666797533631325,0.5399700999259949
1725629105877146400,4.079146484375,-0.9462193250656128,0.19822339713573456,0.3075677752494812
1725629105887180300,4.08918017578125,-0.9667722582817078,0.2929192781448364,0.048686396330595016
1725629105897214500,4.09921435546875,-0.9413989186286926,0.2079542875289917,-0.10656465590000153
1725629105907248400,4.109248291015625,-0.9195348620414734,0.09516620635986328,-0.10760461539030075
1725629105917282300,4.1192822265625,-0.8761248588562012,-0.0022108652628958225,-0.020189207047224045
1725629105927315500,4.1293154296875,-0.7962742447853088,-0.09705854952335358,0.09606309980154037
1725629105937349400,4.139349365234375,-0.698630154132843,-0.20740754902362823,0.17814107239246368
1725629105947383300,4.14938330078125,-0.6059837937355042,-0.2359800636768341,0.1959163397550583
1725629105957417500,4.15941748046875,-0.5318690538406372,-0.1949828714132309,0.1628902703523636
1725629105967451400,4.169451416015625,-0.46021828055381775,-0.10471370071172714,0.11408809572458267
1725629105977485300,4.1794853515625,-0.42936787009239197,0.0019383232574909925,0.059200577437877655
1725629105987519200,4.189519287109375,-0.4175921678543091,0.11994405835866928,-0.07953653484582901
1725629105997553400,4.199553466796875,-0.4059193432331085,0.09350857138633728,-0.07872689515352249
1725629106007587300,4.20958740234375,-0.4425378143787384,0.18839594721794128,0.02238640747964382
1725629106017621200,4.219621337890625,-0.48916441202163696,0.24828778207302094,0.1049824133515358
1725629106027655400,4.229655517578125,-0.513580322265625,0.27518677711486816,0.15932448208332062
1725629106037689300,4.239689453125,-0.5192762613296509,0.32222113013267517,0.1877417415380478
1725629106047723300,4.24972314453125,-0.5040349960327148,0.336246132850647,0.19923141598701477
1725629106057757400,4.25975732421875,-0.4834776818752289,0.33135682344436646,0.2208421528339386
1725629106067791400,4.269791259765625,-0.4444202780723572,0.34868013858795166,0.25342458486557007
1725629106077825300,4.2798251953125,-0.4017789959907532,0.40313732624053955,0.27391067147254944
1725629106087859500,4.289859375,-0.3536359667778015,0.4099843204021454,0.293145090341568
1725629106097893400,4.299893310546875,-0.32545867562294006,0.43122902512550354,0.3128086030483246
1725629106107927300,4.30992724609375,-0.3287213146686554,0.5492390394210815,0.3430306911468506
1725629106117961500,4.31996142578125,-0.32001757621765137,0.6952764391899109,0.37120744585990906
1725629106127995100,4.3299951171875,-0.3140246570110321,0.7744463086128235,0.38849323987960815
1725629106138029300,4.340029296875,-0.28048935532569885,0.7843016386032104,0.38224172592163086
1725629106148063500,4.3500634765625,-0.22983363270759583,0.7676954865455627,0.3639056086540222
1725629106158097200,4.36009716796875,-0.18841077387332916,0.7298138737678528,0.324847549200058
1725629106168131300,4.37013134765625,-0.17685185372829437,0.6781312227249146,0.29312607645988464
1725629106178165500,4.38016552734375,-0.21395155787467957,0.6490585803985596,0.2998417913913727
1725629106188199200,4.39019921875,-0.291520893573761,0.6556565761566162,0.33291372656822205
1725629106198232300,4.400232421875,-0.37676793336868286,0.6657156348228455,0.37001773715019226
1725629106208266200,4.410266357421875,-0.45918744802474976,0.7187434434890747,0.37189605832099915
1725629106218300400,4.420300537109375,-0.5483775734901428,0.8923583030700684,0.39432328939437866
1725629106228334300,4.430334228515625,-0.6472498774528503,1.049973726272583,0.43286028504371643
1725629106238368300,4.4403681640625,-0.7051334381103516,1.1544321775436401,0.45034927129745483
1725629106248402400,4.45040234375,-0.7277500629425049,1.2434840202331543,0.447945773601532
1725629106258436400,4.460436279296875,-0.7210094928741455,1.3734710216522217,0.43410471081733704
1725629106268470300,4.47047021484375,-0.6782404780387878,1.5340170860290527,0.4369652271270752
1725629106278504200,4.480504150390625,-0.5713968873023987,1.594624400138855,0.4412388503551483
1725629106288537900,4.490537841796875,-0.4506603479385376,1.4949824810028076,0.43822628259658813
1725629106298572000,4.500572021484375,-0.3198990225791931,1.2099956274032593,0.42211782932281494
1725629106308606200,4.510606201171875,-0.1631661206483841,0.9256280660629272,0.4301818609237671
1725629106318639900,4.520639892578125,-0.016313089057803154,0.8098381757736206,0.4655057489871979
1725629106328674000,4.530674072265625,0.110880546271801,0.8025219440460205,0.4884805679321289
1725629106338708000,4.5407080078125,0.2525836229324341,0.810201108455658,0.47713416814804077
1725629106348742000,4.550741943359375,0.3786856234073639,0.7283475399017334,0.35705676674842834
1725629106358775000,4.560775146484375,0.4380894601345062,0.6381506323814392,0.1351434588432312
1725629106368809000,4.57080908203125,0.43094179034233093,0.5144915580749512,-0.09483169764280319
1725629106378843100,4.580843017578125,0.3374580442905426,0.38547903299331665,-0.24837040901184082
1725629106388877000,4.590876953125,0.18924619257450104,0.3231264352798462,-0.32323184609413147
1725629106398911000,4.600910888671875,0.027291225269436836,0.3096603453159332,-0.35549861192703247
1725629106408945200,4.610945068359375,-0.13945195078849792,0.36926189064979553,-0.3482854664325714
1725629106418978800,4.620978759765625,-0.2583850026130676,0.39703962206840515,-0.3176005482673645
1725629106429013000,4.631012939453125,-0.30917415022850037,0.33116498589515686,-0.2807842195034027
1725629106439047200,4.641047119140625,-0.31074681878089905,0.3088480234146118,-0.24236787855625153
1725629106449080800,4.651080810546875,-0.25757095217704773,0.26813840866088867,-0.21066614985466003
1725629106459115000,4.661114990234375,-0.1884443610906601,0.1565791219472885,-0.19240590929985046
1725629106469149200,4.671149169921875,-0.10585440695285797,0.023271653801202774,-0.21258148550987244
1725629106479182800,4.681182861328125,0.006670853588730097,-0.05373486131429672,-0.24578504264354706
1725629106489217000,4.691217041015625,0.0903865247964859,-0.1633225977420807,-0.2559966742992401
1725629106499251200,4.701251220703125,0.17244666814804077,-0.2927006483078003,-0.2527874708175659
1725629106509284900,4.711284912109375,0.24346598982810974,-0.36017581820487976,-0.23903782665729523
1725629106519319000,4.721319091796875,0.2931901216506958,-0.396454393863678,-0.2223527729511261
1725629106529352000,4.73135205078125,0.31675270199775696,-0.4553600549697876,-0.20093511044979095
1725629106539386000,4.74138623046875,0.3347417712211609,-0.5021366477012634,-0.18693844974040985
1725629106549420000,4.751419921875,0.3415306806564331,-0.4748062193393707,-0.1912144124507904
1725629106559454000,4.761453857421875,0.3401232659816742,-0.37698429822921753,-0.20899702608585358
1725629106569488100,4.771488037109375,0.33812376856803894,-0.279558926820755,-0.23782707750797272
1725629106579522000,4.78152197265625,0.3273046314716339,-0.21160893142223358,-0.27527478337287903
1725629106589556000,4.791555908203125,0.3338400423526764,-0.12948130071163177,-0.3246420621871948
1725629106599590100,4.801590087890625,0.34102270007133484,-0.013040360063314438,-0.3828723430633545
1725629106609624000,4.8116240234375,0.35128146409988403,0.08457274734973907,-0.4404975473880768
1725629106619658000,4.821657958984375,0.36039999127388,0.22280482947826385,-0.48514193296432495
1725629106629692200,4.831692138671875,0.35538044571876526,0.4141787886619568,-0.5016037225723267
1725629106639725800,4.841725830078125,0.35114938020706177,0.670027494430542,-0.5007411241531372
1725629106649760000,4.851760009765625,0.33199405670166016,0.9636178016662598,-0.4767867922782898
1725629106659794200,4.861794189453125,0.30562275648117065,1.2301257848739624,-0.4428940415382385
1725629106669827800,4.871827880859375,0.2414799928665161,1.3935331106185913,-0.39499735832214355
1725629106679862000,4.881862060546875,0.14508314430713654,1.4920620918273926,-0.3583938479423523
1725629106689896200,4.891896240234375,0.04883010685443878,1.5705134868621826,-0.3688640594482422
1725629106699929000,4.90192919921875,-0.011336403898894787,1.6667139530181885,-0.4367363750934601
1725629106709963000,4.911962890625,-0.01493113860487938,1.7265609502792358,-0.5233336091041565
1725629106719997000,4.921996826171875,0.0540606789290905,1.7421181201934814,-0.5885822772979736
1725629106730031000,4.932031005859375,0.19319114089012146,1.7257330417633057,-0.6663205027580261
1725629106740065000,4.94206494140625,0.33274734020233154,1.6106127500534058,-0.7026399970054626
1725629106750099000,4.952098876953125,0.4942217171192169,1.5214927196502686,-0.7519345879554749
1725629106760133000,4.962133056640625,0.646192193031311,1.5977058410644531,-0.947550892829895
1725629106770167000,4.9721669921875,0.6952673196792603,1.4892171621322632,-1.1149108409881592
1725629106780201000,4.982200927734375,0.7137757539749146,1.247458815574646,-1.2078503370285034
1725629106790235100,4.992235107421875,0.7018956542015076,1.00572669506073,-1.2403398752212524
1725629106800269000,5.00226904296875,0.6564182639122009,0.6839224696159363,-1.2044869661331177
1725629106810303000,5.012302978515625,0.542861819267273,0.46322232484817505,-1.141479730606079
1725629106820337200,5.022337158203125,0.327039510011673,0.41149795055389404,-1.087824821472168
1725629106830371000,5.03237109375,0.12862707674503326,0.3424065113067627,-1.0469921827316284
1725629106840405000,5.042405029296875,-0.09752941131591797,0.24498572945594788,-1.0124849081039429
1725629106850439200,5.052439208984375,-0.29580867290496826,0.19112356007099152,-1.013217568397522
1725629106860472000,5.06247216796875,-0.4158494472503662,0.19576625525951385,-1.0452255010604858
1725629106870506000,5.072506103515625,-0.4278451204299927,0.09533312171697617,-0.9897980690002441
1725629106880540200,5.0825400390625,-0.3820044696331024,0.016675656661391258,-0.8692079186439514
1725629106890574000,5.092573974609375,-0.29576945304870605,-0.07148509472608566,-0.7380269765853882
1725629106900608000,5.10260791015625,-0.19781054556369781,-0.2028622329235077,-0.6059474349021912
1725629106910642200,5.11264208984375,-0.13255351781845093,-0.3087463080883026,-0.4874924123287201
1725629106920676000,5.122676025390625,-0.11485625803470612,-0.30439743399620056,-0.3518763482570648
1725629106930710000,5.1327099609375,-0.2359379380941391,-0.1240130364894867,-0.24505747854709625
1725629106940744000,5.142743896484375,-0.2625878155231476,-0.02430012635886669,-0.06288547068834305
1725629106950778000,5.152778076171875,-0.26743263006210327,0.06530831754207611,0.08730615675449371
1725629106960812000,5.16281201171875,-0.2508193850517273,0.12857504189014435,0.1582195907831192
1725629106970846000,5.172845947265625,-0.22017866373062134,0.18053464591503143,0.21049265563488007
1725629106980880100,5.182880126953125,-0.20418144762516022,0.20572486519813538,0.27961528301239014
1725629106990914000,5.1929140625,-0.22441481053829193,0.23033300042152405,0.3408738374710083
1725629107000948000,5.202947998046875,-0.23044703900814056,0.2640782594680786,0.39342179894447327
1725629107010982100,5.212982177734375,-0.27769604325294495,0.321767657995224,0.4456479847431183
1725629107021016000,5.22301611328125,-0.31726908683776855,0.38828495144844055,0.4978996217250824
1725629107031049000,5.233049072265625,-0.31784939765930176,0.4575654864311218,0.5392944812774658
1725629107041083100,5.243083251953125,-0.2856362462043762,0.47993597388267517,0.593063235282898
1725629107051117000,5.253116943359375,-0.256102055311203,0.47908884286880493,0.6910795569419861
1725629107061151000,5.26315087890625,-0.20764684677124023,0.4841007590293884,0.8249951601028442
1725629107071185200,5.27318505859375,-0.17210322618484497,0.5780286192893982,0.9419941902160645
1725629107081219000,5.283218994140625,-0.16227252781391144,0.6739964485168457,1.0330419540405273
1725629107091253000,5.2932529296875,-0.16182245314121246,0.7745944261550903,1.1079710721969604
1725629107101287200,5.303287109375,-0.15389315783977509,0.8252143859863281,1.1840211153030396
1725629107111321000,5.313321044921875,-0.1481149047613144,0.8810331225395203,1.2469226121902466
1725629107121355000,5.32335498046875,-0.11986430734395981,0.9690111875534058,1.2704800367355347
1725629107131389200,5.33338916015625,-0.1150549054145813,1.0829004049301147,1.141771674156189
1725629107141423000,5.343423095703125,-0.20933008193969727,1.1042006015777588,0.9023632407188416
1725629107151457000,5.35345703125,-0.3917217552661896,0.9754512310028076,0.5708614587783813
1725629107161491200,5.3634912109375,-0.5509548783302307,0.7009433507919312,0.28597524762153625
1725629107171525000,5.373525146484375,-0.6088925004005432,0.4307856559753418,0.1908670961856842
1725629107181559000,5.38355908203125,-0.575343906879425,0.2622721195220947,0.2858685553073883
1725629107191592000,5.393592041015625,-0.47769778966903687,0.12675797939300537,0.4381672739982605
1725629107201626000,5.403626220703125,-0.35231566429138184,-0.013917035423219204,0.5316964983940125
1725629107211660000,5.413659912109375,-0.22431506216526031,-0.14989404380321503,0.5192723274230957
1725629107221694000,5.42369384765625,-0.11719052493572235,-0.263527512550354,0.43293672800064087
1725629107231728000,5.43372802734375,-0.06164098158478737,-0.3533652424812317,0.3445722460746765
1725629107241762000,5.443761962890625,-0.02588605135679245,-0.3875308632850647,0.30058348178863525
1725629107251796000,5.4537958984375,0.00949004851281643,-0.3536685109138489,0.284019410610199
1725629107261830100,5.463830078125,0.02320280484855175,-0.3078254759311676,0.27577000856399536
1725629107271864000,5.473864013671875,0.03282400593161583,-0.25071263313293457,0.2557603418827057
1725629107281898000,5.48389794921875,0.047751713544130325,-0.1648562252521515,0.21955911815166473
1725629107291932200,5.49393212890625,0.05409163609147072,-0.038065530359745026,0.1945967823266983
1725629107301966000,5.503966064453125,0.06099181994795799,0.12155444175004959,0.18070931732654572
1725629107312000000,5.514,0.07180691510438919,0.31228765845298767,0.1820715367794037
1725629107322034200,5.5240341796875,0.08090075850486755,0.48773157596588135,0.19784024357795715
1725629107332068000,5.534068115234375,0.1159740537405014,0.6075504422187805,0.19866475462913513
1725629107342102000,5.54410205078125,0.17268280684947968,0.6821713447570801,0.18187233805656433
1725629107352136200,5.55413623046875,0.2101561576128006,0.7230370044708252,0.15274427831172943
1725629107362169000,5.564169189453125,0.24211485683918,0.7058923840522766,0.11748649179935455
1725629107372203000,5.574203125,0.28219541907310486,0.6294795870780945,0.08402813225984573
1725629107382237200,5.5842373046875,0.31693026423454285,0.5356544256210327,0.07771451771259308
1725629107392271000,5.59427099609375,0.3434188663959503,0.44770780205726624,0.09474650025367737
1725629107402305000,5.604304931640625,0.33948755264282227,0.36437875032424927,0.13427332043647766
1725629107412339200,5.614339111328125,0.3079410791397095,0.30462968349456787,0.18680976331233978
1725629107422373000,5.624373046875,0.26460421085357666,0.2504121959209442,0.2688940465450287
1725629107432407000,5.634406982421875,0.24290584027767181,0.21901541948318481,0.34787753224372864
1725629107442441200,5.644441162109375,0.24195919930934906,0.28897425532341003,0.4380165934562683
1725629107452475100,5.65447509765625,0.2685692310333252,0.42683330178260803,0.5680850744247437
1725629107462509000,5.664509033203125,0.31642305850982666,0.5002043843269348,0.6591731905937195
1725629107472543200,5.674543212890625,0.3829280436038971,0.5185940265655518,0.6779125332832336
1725629107482577200,5.6845771484375,0.43708956241607666,0.5163847208023071,0.6355820894241333
1725629107492611000,5.694611083984375,0.47367367148399353,0.52012699842453,0.549167811870575
1725629107502645000,5.70464501953125,0.4664055407047272,0.5130649209022522,0.45388221740722656
1725629107512679200,5.71467919921875,0.40451180934906006,0.4254583716392517,0.34542524814605713
1725629107522713000,5.724713134765625,0.35178568959236145,0.31432923674583435,0.25663161277770996
1725629107532746000,5.73474609375,0.3118920624256134,0.26245322823524475,0.18700726330280304
1725629107542780200,5.7447802734375,0.28196391463279724,0.17648403346538544,0.09576506912708282
1725629107552814000,5.75481396484375,0.2728883922100067,0.07324578613042831,-0.0037319562397897243
1725629107562848000,5.764847900390625,0.27272188663482666,0.02067992277443409,-0.10893324762582779
1725629107572882200,5.774882080078125,0.2529015839099884,0.01171199418604374,-0.22019213438034058
1725629107582916000,5.784916015625,0.2141384780406952,-0.04365227371454239,-0.30947068333625793
1725629107592950000,5.794949951171875,0.1736680120229721,-0.15516015887260437,-0.3544006049633026
1725629107602984200,5.804984130859375,0.1284646838903427,-0.18178397417068481,-0.3417513370513916
1725629107613018000,5.81501806640625,0.0943160355091095,-0.17049351334571838,-0.290357381105423
1725629107623052000,5.825052001953125,0.06992968916893005,-0.2589965760707855,-0.22059661149978638
1725629107633086200,5.835086181640625,0.04938473552465439,-0.36624449491500854,-0.1625991016626358
1725629107643120000,5.8451201171875,0.04121755063533783,-0.40561679005622864,-0.12261071056127548
1725629107653154000,5.855154052734375,0.05678878724575043,-0.4221441149711609,-0.09142136573791504
1725629107663188200,5.865188232421875,0.08689892292022705,-0.4471442401409149,-0.07088801264762878
1725629107673222100,5.87522216796875,0.12429769337177277,-0.4367235600948334,-0.06003723293542862
1725629107683256000,5.885256103515625,0.17503446340560913,-0.398196280002594,-0.06249278783798218
1725629107693289000,5.8952890625,0.22267787158489227,-0.36116501688957214,-0.07648050785064697
1725629107703323100,5.9053232421875,0.23930208384990692,-0.35092693567276,-0.11054246127605438
1725629107713357300,5.915357421875,0.24159985780715942,-0.3600514829158783,-0.14104712009429932
1725629107723391000,5.925390869140625,0.22146287560462952,-0.3709913194179535,-0.14926110208034515
1725629107733425200,5.935425048828125,0.19550345838069916,-0.3726557791233063,-0.13813255727291107
1725629107743459300,5.945459228515625,0.15679071843624115,-0.3510308265686035,-0.10954437404870987
1725629107753493000,5.955492919921875,0.10041799396276474,-0.3132714629173279,-0.08311410248279572
1725629107763527200,5.965527099609375,0.025574110448360443,-0.26585865020751953,-0.07144971936941147
1725629107773561300,5.975561279296875,-0.045840419828891754,-0.19263343513011932,-0.06916659325361252
1725629107783595000,5.985594970703125,-0.10618145763874054,-0.10169009119272232,-0.05612824857234955
1725629107793629200,5.995629150390625,-0.1371484249830246,-0.03542771190404892,-0.045277200639247894
1725629107803663000,6.0056630859375,-0.11876126378774643,0.002500078408047557,-0.03471747413277626
1725629107813697000,6.015697021484375,-0.06937108188867569,0.008321481756865978,-0.045467592775821686
1725629107823731200,6.025731201171875,-0.013576609082520008,-0.04614280164241791,-0.08176476508378983
1725629107833765000,6.03576513671875,0.04238918796181679,-0.09564084559679031,-0.13528497517108917
1725629107843799000,6.045799072265625,0.09485156834125519,-0.08162704855203629,-0.18675503134727478
1725629107853833200,6.055833251953125,0.12255483120679855,-0.03916826844215393,-0.21112455427646637
1725629107863866000,6.0658662109375,0.11266446113586426,0.011600865051150322,-0.21097269654273987
1725629107873900300,6.075900390625,0.10668700188398361,0.09561481326818466,-0.2068661004304886
1725629107883934000,6.085933837890625,0.0939178466796875,0.20839188992977142,-0.20878976583480835
1725629107893968100,6.095968017578125,0.05095360055565834,0.3094647228717804,-0.2161611169576645
1725629107904002300,6.106002197265625,0.011896743439137936,0.41003677248954773,-0.2678180932998657
1725629107914036000,6.116035888671875,-0.0038635781966149807,0.42386579513549805,-0.3281687796115875
1725629107924070100,6.126070068359375,0.0054170237854123116,0.2939702868461609,-0.3398313820362091
1725629107934104300,6.136104248046875,0.018465712666511536,0.15382276475429535,-0.3430314362049103
1725629107944138000,6.146137939453125,0.020108414813876152,0.04151570051908493,-0.33712202310562134
1725629107954172200,6.156172119140625,0.06663357466459274,0.09963679313659668,-0.48377856612205505
1725629107964206300,6.166206298828125,0.09862260520458221,0.043543655425310135,-0.7567660212516785
1725629107974240000,6.176239990234375,0.1220131441950798,-0.2093019187450409,-0.976018488407135
1725629107984274200,6.186274169921875,0.16609522700309753,-0.5017245411872864,-1.067406177520752
1725629107994308400,6.196308349609375,0.19976504147052765,-0.7219054102897644,-1.0551273822784424
1725629108004342000,6.206342041015625,0.2800680994987488,-0.8285062909126282,-0.9973174929618835
1725629108014376200,6.216376220703125,0.37900611758232117,-0.8563413619995117,-0.9314053654670715
1725629108024409000,6.2264091796875,0.4376857578754425,-0.8351052403450012,-0.8911515474319458
1725629108034443300,6.236443359375,0.4173586368560791,-0.7405827641487122,-0.9039016962051392
1725629108044477200,6.246477294921875,0.3205379247665405,-0.5709295868873596,-0.9536265730857849
1725629108054511000,6.256510986328125,0.18750238418579102,-0.35413384437561035,-1.018566370010376
1725629108064545300,6.266545166015625,-0.03580986708402634,-0.17724257707595825,-1.0839098691940308
1725629108074579200,6.2765791015625,-0.1600487232208252,-0.09517513960599899,-1.0566766262054443
1725629108084613000,6.286613037109375,-0.17132137715816498,-0.05184454098343849,-0.9066706895828247
1725629108094647300,6.296647216796875,-0.16624778509140015,0.029986672103405,-0.6931709051132202
1725629108104681000,6.306680908203125,-0.10954076796770096,0.06840653717517853,-0.48358798027038574
1725629108114715100,6.316715087890625,-0.15370343625545502,0.0533122755587101,-0.3336362838745117
1725629108124749000,6.3267490234375,-0.2576056718826294,0.11284106969833374,-0.18516919016838074
1725629108134783000,6.336782958984375,-0.3161669671535492,0.23850739002227783,0.02724054642021656
1725629108144817200,6.346817138671875,-0.3784720301628113,0.34921491146087646,0.23914247751235962
1725629108154851000,6.35685107421875,-0.36584359407424927,0.42076098918914795,0.4225274920463562
1725629108164885000,6.366885009765625,-0.3050720691680908,0.4777989983558655,0.5782290697097778
1725629108174919200,6.376919189453125,-0.24489980936050415,0.567797064781189,0.67556232213974
1725629108184953000,6.386953125,-0.16900376975536346,0.6372747421264648,0.7270309329032898
1725629108194986000,6.396986083984375,-0.10924962162971497,0.665145218372345,0.7826291918754578
1725629108205020200,6.407020263671875,-0.09794237464666367,0.7051262259483337,0.8662253022193909
1725629108215054000,6.41705419921875,-0.07476088404655457,0.7853286266326904,0.9491092562675476
1725629108225088000,6.427087890625,-0.06643277406692505,0.8234521150588989,1.02730393409729
1725629108235122200,6.4371220703125,-0.09512646496295929,0.8447962403297424,1.1062653064727783
1725629108245156000,6.447156005859375,-0.12535075843334198,0.84376060962677,1.2026050090789795
1725629108255190000,6.45718994140625,-0.1100090965628624,0.8516901731491089,1.302749752998352
1725629108265224200,6.46722412109375,-0.156808540225029,0.9187073707580566,1.343644618988037
1725629108275258000,6.477258056640625,-0.22153960168361664,0.9408648610115051,1.313836693763733
1725629108285292000,6.4872919921875,-0.26499488949775696,0.9263319969177246,1.2157621383666992
1725629108295326000,6.497325927734375,-0.32744497060775757,0.7934272289276123,1.0891250371932983
1725629108305360100,6.507360107421875,-0.42146044969558716,0.6144886612892151,0.8579342365264893
1725629108315394000,6.51739404296875,-0.5442111492156982,0.38394787907600403,0.5552840828895569
1725629108325428000,6.527427978515625,-0.621201753616333,0.10526153445243835,0.2895153760910034
1725629108335462100,6.537462158203125,-0.6157172322273254,-0.13080133497714996,0.19139014184474945
1725629108345496000,6.54749609375,-0.5580242276191711,-0.2754957675933838,0.2226269692182541
1725629108355530000,6.557530029296875,-0.4748465418815613,-0.3302040100097656,0.2852557301521301
1725629108365563000,6.56756298828125,-0.40273207426071167,-0.3550131916999817,0.29834794998168945
1725629108375597000,6.57759716796875,-0.3117140233516693,-0.3660067319869995,0.2596791386604309
1725629108385631000,6.587630859375,-0.2176072895526886,-0.35026082396507263,0.1950310319662094
1725629108395665000,6.597664794921875,-0.14892889559268951,-0.3449097275733948,0.15328064560890198
1725629108405699000,6.607698974609375,-0.09442219883203506,-0.32732638716697693,0.13696730136871338
1725629108415733000,6.61773291015625,-0.07611536979675293,-0.2712423503398895,0.14228057861328125
1725629108425767000,6.627766845703125,-0.10056205093860626,-0.19900748133659363,0.16808123886585236
1725629108435801000,6.637801025390625,-0.13364143669605255,-0.11423002183437347,0.19660237431526184
1725629108445835000,6.6478349609375,-0.1741035282611847,-0.02879689447581768,0.2287014275789261
1725629108455869000,6.657868896484375,-0.2053496092557907,0.0386764220893383,0.23492151498794556
1725629108465903000,6.667903076171875,-0.20835106074810028,0.058925628662109375,0.23800238966941833
1725629108475936800,6.677936767578125,-0.19737963378429413,0.027667570859193802,0.23297539353370667
1725629108485971000,6.687970947265625,-0.14604324102401733,0.04548250138759613,0.2307855635881424
1725629108496005000,6.698005126953125,-0.06207084283232689,0.14428232610225677,0.2449735552072525
1725629108506038800,6.708038818359375,0.014030815102159977,0.2542892098426819,0.24925756454467773
1725629108516073000,6.718072998046875,0.09602075815200806,0.30790531635284424,0.23147670924663544
1725629108526105900,6.72810595703125,0.18084236979484558,0.2596839666366577,0.20229844748973846
1725629108536140000,6.73814013671875,0.2628538906574249,0.22081111371517181,0.18295830488204956
1725629108546174000,6.748174072265625,0.3280508816242218,0.22845493257045746,0.18184645473957062
1725629108556207900,6.758207763671875,0.3580290377140045,0.2104644924402237,0.18143633008003235
1725629108566242000,6.768241943359375,0.34238487482070923,0.2019340544939041,0.18057438731193542
1725629108576276000,6.77827587890625,0.2982179522514343,0.17073485255241394,0.19153276085853577
1725629108586310000,6.788309814453125,0.24441072344779968,0.13256703317165375,0.2106013298034668
1725629108596344000,6.798343994140625,0.20760290324687958,0.15785402059555054,0.24194273352622986
1725629108606378000,6.8083779296875,0.1888357251882553,0.2843657433986664,0.3293085992336273
1725629108616412000,6.818411865234375,0.17694684863090515,0.43108436465263367,0.49210017919540405
1725629108626446000,6.828446044921875,0.1929597705602646,0.4849086403846741,0.633385956287384
1725629108636480000,6.83847998046875,0.22057940065860748,0.4704071879386902,0.6930553913116455
1725629108646514000,6.848513916015625,0.2539825141429901,0.419129878282547,0.6887039542198181
1725629108656548000,6.858548095703125,0.2605077922344208,0.27023521065711975,0.6390703320503235
1725629108666582000,6.86858203125,0.24201864004135132,0.0481938011944294,0.5685760378837585
1725629108676616000,6.878615966796875,0.256980836391449,-0.14250904321670532,0.4814392626285553
1725629108686649000,6.888649169921875,0.2721611559391022,-0.13209620118141174,0.4001392424106598
1725629108696683000,6.89868310546875,0.2578014135360718,0.03744755685329437,0.32660457491874695
1725629108706717000,6.908717041015625,0.24434885382652283,0.22812384366989136,0.25157374143600464
1725629108716751000,6.918751220703125,0.2339249700307846,0.29087164998054504,0.13829456269741058
1725629108726785000,6.928784912109375,0.23659391701221466,0.3432796001434326,-0.02300870791077614
1725629108736819000,6.93881884765625,0.24307312071323395,0.4084934890270233,-0.19181476533412933
1725629108746853000,6.94885302734375,0.22229070961475372,0.4691753685474396,-0.35621216893196106
1725629108756887000,6.958886962890625,0.19605617225170135,0.46109268069267273,-0.4871310293674469
1725629108766921000,6.9689208984375,0.1740647852420807,0.4147752523422241,-0.5654171109199524
1725629108776955000,6.978954833984375,0.15357814729213715,0.34179478883743286,-0.5836027264595032
1725629108786989000,6.988989013671875,0.1264542043209076,0.24425943195819855,-0.5399585962295532
1725629108797023000,6.99902294921875,0.09733998775482178,0.1392936110496521,-0.44134172797203064
1725629108807057000,7.009056884765625,0.09312509745359421,0.017244983464479446,-0.2998462915420532
1725629108817091000,7.019091064453125,0.0829550176858902,-0.15333740413188934,-0.15734614431858063
1725629108827125000,7.029125,0.060507968068122864,-0.3313051164150238,-0.07916615903377533
1725629108837159000,7.039158935546875,0.020212743431329727,-0.4744660258293152,-0.06827250123023987
1725629108847193000,7.049193115234375,-0.016367552801966667,-0.5733869671821594,-0.11077498644590378
1725629108857226000,7.05922607421875,-0.06158003956079483,-0.6564749479293823,-0.17309482395648956
1725629108867260000,7.069260009765625,-0.0872008427977562,-0.7101970911026001,-0.21117855608463287
1725629108877294000,7.079294189453125,-0.09112660586833954,-0.6936924457550049,-0.22150656580924988
1725629108887328000,7.089327880859375,-0.07249625772237778,-0.6124148964881897,-0.21747173368930817
1725629108897362000,7.09936181640625,-0.053644537925720215,-0.4794142544269562,-0.19738377630710602
1725629108907396000,7.10939599609375,-0.042600709944963455,-0.34213629364967346,-0.1883704960346222
1725629108917430000,7.119429931640625,-0.04450273886322975,-0.2127237319946289,-0.18658645451068878
1725629108927464000,7.1294638671875,-0.06873907148838043,-0.12068415433168411,-0.19272181391716003
1725629108937498000,7.139498046875,-0.08278245478868484,-0.03633491322398186,-0.203631192445755
1725629108947532000,7.149531982421875,-0.07504499703645706,0.02363976463675499,-0.20721063017845154
1725629108957566000,7.15956591796875,-0.04766397550702095,0.055443499237298965,-0.20803993940353394
1725629108967600000,7.16960009765625,-0.012083076871931553,0.059591107070446014,-0.20095087587833405
1725629108977634000,7.179634033203125,0.0516682043671608,0.05546214058995247,-0.20611608028411865
1725629108987668000,7.18966796875,0.08916506171226501,0.02699469029903412,-0.2269253432750702
1725629108997702000,7.199701904296875,0.10707615315914154,-0.016462504863739014,-0.2546837329864502
1725629109007736000,7.209736083984375,0.11240637302398682,-0.05317584052681923,-0.2841641902923584
1725629109017769200,7.219769287109375,0.10344856232404709,-0.07285899668931961,-0.3136432468891144
1725629109027803000,7.229802978515625,0.08883916586637497,-0.047071050852537155,-0.3463646173477173
1725629109037837000,7.239837158203125,0.06231701374053955,0.004268834367394447,-0.3682970702648163
1725629109047871200,7.249871337890625,0.014926106669008732,0.09671446681022644,-0.3887621760368347
1725629109057905000,7.25990478515625,-0.01754661649465561,0.20806442201137543,-0.4429370164871216
1725629109067939000,7.26993896484375,-0.026681916788220406,0.17781083285808563,-0.4847206771373749
1725629109077973000,7.279972900390625,-0.024646993726491928,0.09501555562019348,-0.4945400059223175
1725629109088007000,7.2900068359375,-0.03376847878098488,0.05907395854592323,-0.4962927997112274
1725629109098041000,7.300041015625,-0.009214401245117188,0.012182882986962795,-0.4890751242637634
1725629109108075000,7.310074951171875,0.06376439332962036,-0.0013615621719509363,-0.5122753977775574
1725629109118109000,7.32010888671875,0.11966440826654434,0.16576272249221802,-0.7918761968612671
1725629109128143000,7.33014306640625,0.13894261419773102,-0.006219084374606609,-1.0484514236450195
1725629109138177000,7.340177001953125,0.18165573477745056,-0.31808003783226013,-1.1744232177734375
1725629109148211000,7.3502109375,0.2112547904253006,-0.587497353553772,-1.1535229682922363
1725629109158245000,7.3602451171875,0.2485654056072235,-0.7301495671272278,-1.0424599647521973
1725629109168279000,7.370279052734375,0.285137414932251,-0.790846049785614,-0.9194151163101196
1725629109178313000,7.38031298828125,0.24832989275455475,-0.8283476233482361,-0.8356416821479797
1725629109188345900,7.390345947265625,0.1322721242904663,-0.7908030152320862,-0.8220227360725403
1725629109198380000,7.400380126953125,-0.02072754129767418,-0.7098919153213501,-0.8735604882240295
1725629109208414000,7.4104140625,-0.1810244619846344,-0.6091025471687317,-0.9407281875610352
1725629109218448000,7.42044775390625,-0.31943798065185547,-0.543027400970459,-0.9487611055374146
1725629109228482000,7.43048193359375,-0.3662843406200409,-0.4620078504085541,-0.8272148966789246
1725629109238516000,7.440515869140625,-0.3581353425979614,-0.35419830679893494,-0.587334156036377
1725629109248550000,7.4505498046875,-0.3238178491592407,-0.2243993729352951,-0.2895714342594147
1725629109258584000,7.460583984375,-0.3121638596057892,-0.02297890931367874,-0.03144026920199394
1725629109268618000,7.470617919921875,-0.2973056137561798,0.2262316644191742,0.13656644523143768
1725629109278652000,7.48065185546875,-0.2883493900299072,0.4105530381202698,0.2588958442211151
1725629109288686600,7.4906865234375,-0.29018905758857727,0.5236740112304688,0.3830605149269104
1725629109298720500,7.500720458984375,-0.2771659195423126,0.5714055895805359,0.5185954570770264
1725629109308754700,7.510754638671875,-0.2623544931411743,0.5785646438598633,0.6457205414772034
1725629109318788600,7.52078857421875,-0.2829878628253937,0.5448647141456604,0.7520539164543152
1725629109328822500,7.530822509765625,-0.26528412103652954,0.46614179015159607,0.8420683741569519
1725629109338856700,7.540856689453125,-0.21935418248176575,0.4119454026222229,0.9104464054107666
1725629109348889600,7.5508896484375,-0.17313936352729797,0.37272751331329346,0.9621962308883667
1725629109358923800,7.560923828125,-0.1248735561966896,0.3622058928012848,1.0162137746810913
1725629109368957400,7.57095751953125,-0.08094767481088638,0.4032798111438751,1.0856850147247314
1725629109378991600,7.58099169921875,-0.06067649647593498,0.49805906414985657,1.1709610223770142
1725629109389025800,7.59102587890625,-0.04276308789849281,0.6784985065460205,1.2421448230743408
1725629109399059500,7.6010595703125,-0.020004242658615112,0.8360487222671509,1.3029910326004028
1725629109409093600,7.61109375,-0.08225101232528687,0.946465253829956,1.3184055089950562
1725629109419127800,7.6211279296875,-0.20564885437488556,1.0028553009033203,1.2222251892089844
1725629109429161500,7.631161376953125,-0.35220834612846375,0.8605907559394836,0.9819640517234802
1725629109439195600,7.641195556640625,-0.47054430842399597,0.5063474774360657,0.6574863791465759
1725629109449229800,7.651229736328125,-0.4790079593658447,0.12886227667331696,0.408088356256485
1725629109459263500,7.661263427734375,-0.37345489859580994,-0.1751956045627594,0.3254818916320801
1725629109469297700,7.671297607421875,-0.20109683275222778,-0.3819722831249237,0.32864275574684143
1725629109479331800,7.681331787109375,-0.025859765708446503,-0.489092081785202,0.2809103727340698
1725629109489365500,7.691365478515625,0.1143859252333641,-0.5019160509109497,0.1514524668455124
1725629109499399700,7.701399658203125,0.21705745160579681,-0.43477723002433777,0.013700451701879501
1725629109509432600,7.7114326171875,0.244471937417984,-0.3084087669849396,-0.07240128517150879
1725629109519466800,7.721466796875,0.19416029751300812,-0.14440733194351196,-0.10570624470710754
1725629109529500700,7.731500732421875,0.10908569395542145,0.006332946941256523,-0.0950486809015274
1725629109539534600,7.74153466796875,0.0029789626132696867,0.08144047856330872,-0.04899996146559715
1725629109549568800,7.75156884765625,-0.11492782831192017,0.10226498544216156,0.014267699792981148
1725629109559602700,7.761602783203125,-0.20426702499389648,0.09366697072982788,0.06720468401908875
1725629109569636600,7.77163671875,-0.2542966902256012,0.05956224352121353,0.09990597516298294
1725629109579670800,7.7816708984375,-0.2962510585784912,-0.018208453431725502,0.11493898928165436
1725629109589704400,7.791704345703125,-0.308132529258728,-0.0974472239613533,0.12243138253688812
1725629109599738600,7.801738525390625,-0.28593748807907104,-0.20000022649765015,0.1333082765340805
1725629109609772800,7.811772705078125,-0.24571067094802856,-0.20001715421676636,0.14497390389442444
1725629109619806500,7.821806396484375,-0.13605234026908875,-0.012630215846002102,0.14597046375274658
1725629109629840600,7.831840576171875,-0.01779547706246376,0.24265755712985992,0.10783657431602478
1725629109639874800,7.841874755859375,0.08876772224903107,0.4970075488090515,0.031253114342689514
1725629109649908500,7.851908447265625,0.20568464696407318,0.622158408164978,-0.07199494540691376
1725629109659942700,7.861942626953125,0.2969892621040344,0.6832622289657593,-0.15583178400993347
1725629109669976800,7.871976806640625,0.33449769020080566,0.7134301066398621,-0.21139106154441833
1725629109680009700,7.882009765625,0.3120720088481903,0.6426576375961304,-0.2411140650510788
1725629109690043600,7.892043701171875,0.22680504620075226,0.5357552766799927,-0.21977655589580536
1725629109700077600,7.90207763671875,0.09703666716814041,0.4060590863227844,-0.158705472946167
1725629109710111700,7.91211181640625,-0.043250132352113724,0.23397599160671234,-0.07329603284597397
1725629109720144400,7.922144287109375,-0.19542667269706726,0.08069594204425812,0.023135481402277946
1725629109730178600,7.932178466796875,-0.32204073667526245,-0.04427265003323555,0.11143992841243744
1725629109740212700,7.942212646484375,-0.38827088475227356,-0.13206134736537933,0.1948794275522232
1725629109750246400,7.952246337890625,-0.39928117394447327,-0.12180578708648682,0.28113147616386414
1725629109760280600,7.962280517578125,-0.3411358594894409,-0.02337748557329178,0.38977566361427307
1725629109770314800,7.972314697265625,-0.23278658092021942,-0.028692252933979034,0.4597957134246826
1725629109780348400,7.982348388671875,-0.11367004364728928,-0.14222626388072968,0.457937091588974
1725629109790382600,7.992382568359375,-0.002003324683755636,-0.21262481808662415,0.3501208424568176
1725629109800416800,8.002416748046874,0.08527618646621704,-0.10135289281606674,0.16066837310791016
1725629109810450400,8.012450439453126,0.12842895090579987,0.09184584021568298,-0.03542037680745125
1725629109820484600,8.022484619140625,0.1617394983768463,0.15310627222061157,-0.16723991930484772
1725629109830518800,8.032518798828125,0.2015681117773056,0.17276357114315033,-0.23311448097229004
1725629109840552400,8.042552490234375,0.22720582783222198,0.20242001116275787,-0.29810014367103577
1725629109850586600,8.052586669921874,0.2502914369106293,0.20704591274261475,-0.3564113676548004
1725629109860620800,8.062620849609376,0.2645319104194641,0.1544005423784256,-0.39012113213539124
1725629109870654500,8.072654541015625,0.26309773325920105,0.07658160477876663,-0.3883305490016937
1725629109880687600,8.0826875,0.2459658682346344,0.0913538932800293,-0.3631865680217743
1725629109890721500,8.092721435546874,0.21737827360630035,0.12801113724708557,-0.3226952850818634
1725629109900755700,8.102755615234376,0.18569384515285492,0.03941681981086731,-0.2776236832141876
1725629109910789600,8.11278955078125,0.14300280809402466,-0.1121322438120842,-0.24578125774860382
1725629109920823600,8.122823486328125,0.11620794981718063,-0.2117142230272293,-0.2330625355243683
1725629109930857700,8.132857666015624,0.10118892788887024,-0.28741490840911865,-0.22189882397651672
1725629109940891400,8.142891357421876,0.0925043597817421,-0.3822551369667053,-0.20778034627437592
1725629109950925600,8.152925537109375,0.10242117941379547,-0.4186551570892334,-0.19544094800949097
1725629109960959700,8.162959716796875,0.1206185594201088,-0.4584779143333435,-0.18203885853290558
1725629109970993400,8.172993408203125,0.13811475038528442,-0.5573561787605286,-0.17273162305355072
1725629109981027600,8.183027587890624,0.1420801877975464,-0.6292988061904907,-0.16729530692100525
1725629109991061800,8.193061767578126,0.13949337601661682,-0.6564004421234131,-0.15905368328094482
1725629110001095400,8.203095458984375,0.16397102177143097,-0.6408958435058594,-0.15210629999637604
1725629110011129600,8.213129638671875,0.18539248406887054,-0.532209575176239,-0.1419142484664917
1725629110021163800,8.223163818359374,0.20173044502735138,-0.38775575160980225,-0.1258484572172165
1725629110031197400,8.233197509765626,0.20913802087306976,-0.26258957386016846,-0.11041012406349182
1725629110041231600,8.243231689453125,0.2118816077709198,-0.15021109580993652,-0.1081983670592308
1725629110051264500,8.253264404296875,0.2017974704504013,-0.029220107942819595,-0.12191512435674667
1725629110061298700,8.263298583984374,0.18719881772994995,0.09083838760852814,-0.15169325470924377
1725629110071332600,8.27333251953125,0.15339013934135437,0.19965773820877075,-0.18965475261211395
1725629110081366500,8.283366455078125,0.1398857831954956,0.25695109367370605,-0.2210472971200943
1725629110091400700,8.293400634765625,0.15853208303451538,0.24345441162586212,-0.21695327758789062
1725629110101434600,8.3034345703125,0.1812291294336319,0.20704421401023865,-0.1884838193655014
1725629110111468500,8.313468505859374,0.19816987216472626,0.17078331112861633,-0.15235769748687744
1725629110121502700,8.323502685546876,0.20367328822612762,0.14124566316604614,-0.13491132855415344
1725629110131536600,8.33353662109375,0.20657910406589508,0.12497838586568832,-0.14522713422775269
1725629110141570600,8.343570556640625,0.21699659526348114,0.10198572278022766,-0.17874674499034882
1725629110151604700,8.353604736328125,0.21760743856430054,0.06689344346523285,-0.20769059658050537
1725629110161638700,8.363638671875,0.22976690530776978,0.06350057572126389,-0.2186625450849533
1725629110171672600,8.373672607421875,0.26289263367652893,0.12188567966222763,-0.2545545697212219
1725629110181706800,8.383706787109375,0.31640031933784485,0.1294061839580536,-0.29102203249931335
1725629110191740400,8.393740478515625,0.35406970977783203,0.10671606659889221,-0.3319471776485443
1725629110201774600,8.403774658203124,0.4128187894821167,0.12105505913496017,-0.36592671275138855
1725629110211808800,8.413808837890626,0.4199858605861664,0.22388984262943268,-0.5116434693336487
1725629110221841700,8.423841552734375,0.3674425184726715,0.21767747402191162,-0.7936375737190247
1725629110231875600,8.43387548828125,0.3477218449115753,0.008779775351285934,-1.0328171253204346
1725629110241909500,8.443909423828124,0.3618789613246918,-0.3071046769618988,-1.128799319267273
1725629110251943700,8.453943603515626,0.38189074397087097,-0.5583785772323608,-1.1167906522750854
1725629110261977600,8.4639775390625,0.3195565342903137,-0.5997267961502075,-1.0716221332550049
1725629110272011500,8.474011474609375,0.27403467893600464,-0.53804612159729,-1.0223056077957153
1725629110282045700,8.484045654296875,0.19062234461307526,-0.4582003057003021,-0.9808407425880432
1725629110292078800,8.494078857421876,0.06347556412220001,-0.4150601327419281,-0.9274930953979492
1725629110302112800,8.50411279296875,-0.07301224023103714,-0.4086882472038269,-0.8227419257164001
1725629110312147000,8.51414697265625,-0.23514671623706818,-0.36521923542022705,-0.7280678749084473
1725629110322180900,8.524180908203125,-0.35535728931427,-0.3304479420185089,-0.640602707862854
1725629110332214800,8.53421484375,-0.34183469414711,-0.31508222222328186,-0.5232725739479065
1725629110342248700,8.544248779296876,-0.25285983085632324,-0.3097199499607086,-0.38944822549819946
1725629110352283000,8.554282958984375,-0.20054543018341064,-0.2771299481391907,-0.2532885670661926
1725629110362316800,8.56431689453125,-0.1772603541612625,-0.14735382795333862,-0.112554632127285
1725629110372350700,8.574350830078124,-0.21825595200061798,0.06285374611616135,0.035772185772657394
1725629110382385000,8.584385009765626,-0.3044419586658478,0.25959131121635437,0.19054178893566132
1725629110392417800,8.594417724609375,-0.34508559107780457,0.4188382029533386,0.3387252688407898
1725629110402451700,8.60445166015625,-0.3454807996749878,0.5779471397399902,0.4976251721382141
1725629110412486000,8.61448583984375,-0.30157792568206787,0.7432689666748047,0.6703124642372131
1725629110422519800,8.624519775390626,-0.27699506282806396,0.9229955673217773,0.8091890811920166
1725629110432553700,8.6345537109375,-0.27953237295150757,1.0845162868499756,0.9444268345832825
1725629110442588000,8.644587890625,-0.2630639374256134,1.205582857131958,1.0962408781051636
1725629110452621800,8.654621826171875,-0.22377298772335052,1.2876923084259033,1.2383134365081787
1725629110462655700,8.66465576171875,-0.153878316283226,1.2995710372924805,1.3413348197937012
1725629110472690000,8.67468994140625,-0.1073916107416153,1.2011691331863403,1.3765676021575928
1725629110482723800,8.684723876953125,-0.18571358919143677,0.9704147577285767,1.271188735961914
1725629110492757800,8.6947578125,-0.3120265603065491,0.640316903591156,0.9902518391609192
1725629110502792000,8.7047919921875,-0.445291668176651,0.2927221357822418,0.6404978036880493
1725629110512825600,8.71482568359375,-0.5196607708930969,-0.0835801288485527,0.3488042652606964
1725629110522859800,8.72485986328125,-0.453239381313324,-0.3213774859905243,0.28301194310188293
1725629110532894000,8.73489404296875,-0.3175843358039856,-0.4284036457538605,0.3627098798751831
1725629110542927600,8.744927734375,-0.1719008833169937,-0.4686618447303772,0.4358921945095062
1725629110552960800,8.754960693359376,-0.04953686520457268,-0.46451377868652344,0.43951332569122314
1725629110562994700,8.76499462890625,-0.006827753037214279,-0.4401402473449707,0.39819225668907166
1725629110573028900,8.77502880859375,0.0011817214544862509,-0.38007059693336487,0.3425725996494293
1725629110583062800,8.785062744140625,-0.015193522907793522,-0.29607316851615906,0.2982243001461029
1725629110593096700,8.7950966796875,-0.05319536104798317,-0.24272455275058746,0.2777603268623352
1725629110603131000,8.805130859375,-0.09733699262142181,-0.2776079475879669,0.28733280301094055
1725629110613164800,8.815164794921875,-0.11259466409683228,-0.4031617343425751,0.29329168796539307
1725629110623198700,8.82519873046875,-0.1078270673751831,-0.500635027885437,0.27904748916625977
1725629110633233000,8.83523291015625,-0.06283307075500488,-0.49073782563209534,0.2389221042394638
1725629110643266600,8.8452666015625,0.010684819892048836,-0.46099188923835754,0.18703840672969818
1725629110653300700,8.85530078125,0.0913999155163765,-0.41718414425849915,0.15734072029590607
1725629110663335000,8.8653349609375,0.17028887569904327,-0.305683434009552,0.14467579126358032
1725629110673368600,8.87536865234375,0.21560530364513397,-0.21479883790016174,0.14370962977409363
1725629110683402800,8.88540283203125,0.22560760378837585,-0.025017987936735153,0.13510149717330933
1725629110693437000,8.89543701171875,0.23482374846935272,0.2982069253921509,0.11112586408853531
1725629110703470600,8.905470703125,0.20977911353111267,0.5259791612625122,0.08189154416322708
1725629110713504800,8.9155048828125,0.16606031358242035,0.5573709607124329,0.06556782126426697
1725629110723537700,8.92553759765625,0.10250183939933777,0.47171467542648315,0.06625225394964218
1725629110733571800,8.93557177734375,0.04064124822616577,0.3518608510494232,0.0961066335439682
1725629110743605800,8.945605712890625,-0.012568977661430836,0.20181703567504883,0.15901368856430054
1725629110753639700,8.9556396484375,-0.07306324690580368,-0.013743231073021889,0.2287563532590866
1725629110763673900,8.965673828125,-0.10083601623773575,-0.2001408040523529,0.29278621077537537
1725629110773707800,8.975707763671876,-0.05808175727725029,-0.3659170866012573,0.31659114360809326
1725629110783741700,8.98574169921875,0.016421768814325333,-0.5064883232116699,0.3022380471229553
1725629110793775900,8.99577587890625,0.12320668250322342,-0.5656834840774536,0.26918795704841614
1725629110803809800,9.005809814453125,0.2654314637184143,-0.5480725765228271,0.23774133622646332
1725629110813843700,9.01584375,0.40776610374450684,-0.4153541326522827,0.2543586492538452
1725629110823878000,9.0258779296875,0.5192444324493408,-0.25952965021133423,0.3445602059364319
1725629110833911800,9.035911865234375,0.6042149662971497,-0.1888090819120407,0.4029512107372284
1725629110843945700,9.04594580078125,0.6387638449668884,-0.13942769169807434,0.4055669605731964
1725629110853980000,9.05597998046875,0.6141535043716431,-0.09906866401433945,0.3437960743904114
1725629110864013600,9.066013671875,0.5272148847579956,-0.03133195638656616,0.2546102702617645
1725629110874047700,9.0760478515625,0.3923298418521881,0.04681525006890297,0.15832726657390594
1725629110884082000,9.08608203125,0.2363186627626419,0.12343332171440125,0.06795074790716171
1725629110894114800,9.09611474609375,0.09744252264499664,0.1657598316669464,-0.02452344074845314
1725629110904148700,9.106148681640626,-0.008199484087526798,0.19132697582244873,-0.1322150081396103
1725629110914183000,9.116182861328125,-0.07785660773515701,0.18197651207447052,-0.24376791715621948
1725629110924216800,9.126216796875,-0.11485643684864044,0.13747483491897583,-0.35241878032684326
1725629110934250800,9.136250732421875,-0.14215382933616638,0.12101632356643677,-0.439711332321167
1725629110944284700,9.14628466796875,-0.17035190761089325,0.11936276406049728,-0.46971848607063293
1725629110954318800,9.15631884765625,-0.19477972388267517,0.1369609534740448,-0.41620659828186035
1725629110964352800,9.166352783203125,-0.18160639703273773,0.0758933424949646,-0.31875646114349365
1725629110974386700,9.17638671875,-0.15330027043819427,-0.027911581099033356,-0.24058528244495392
1725629110984420900,9.1864208984375,-0.1086270734667778,-0.13015060126781464,-0.21778570115566254
1725629110994454800,9.196454833984374,-0.10050005465745926,-0.24845407903194427,-0.24033522605895996
1725629111004488700,9.20648876953125,-0.11666357517242432,-0.37868985533714294,-0.2900404632091522
1725629111014523000,9.21652294921875,-0.14050838351249695,-0.5056114196777344,-0.30705922842025757
1725629111024556800,9.226556884765625,-0.1761835515499115,-0.5852556824684143,-0.2876138985157013
1725629111034590700,9.2365908203125,-0.21970774233341217,-0.6150771379470825,-0.23767858743667603
1725629111044625000,9.246625,-0.265392929315567,-0.6460899114608765,-0.18648624420166016
1725629111054658800,9.256658935546875,-0.3005117177963257,-0.6556268334388733,-0.15075066685676575
1725629111064691700,9.266691650390625,-0.3032603859901428,-0.6449683308601379,-0.1368742734193802
1725629111074726000,9.276725830078124,-0.26887860894203186,-0.6477688550949097,-0.14698703587055206
1725629111084759800,9.286759765625,-0.19646058976650238,-0.6624793410301208,-0.16446322202682495
1725629111094793700,9.296793701171875,-0.11413715034723282,-0.7001599073410034,-0.1813872903585434
1725629111104828000,9.306827880859375,-0.02056085877120495,-0.7217051386833191,-0.19049771130084991
1725629111114861800,9.31686181640625,0.07152014970779419,-0.6716647744178772,-0.19905802607536316
1725629111124895700,9.326895751953124,0.12639057636260986,-0.6054931879043579,-0.20152199268341064
1725629111134930000,9.336929931640626,0.1624540537595749,-0.5342974662780762,-0.20363971590995789
1725629111144963800,9.3469638671875,0.2066662609577179,-0.4468539357185364,-0.21510489284992218
1725629111154997800,9.356997802734375,0.2521919310092926,-0.3663083016872406,-0.23812207579612732
1725629111165031700,9.36703173828125,0.2930853068828583,-0.26899880170822144,-0.2545852065086365
1725629111175065900,9.37706591796875,0.3185340166091919,-0.17449389398097992,-0.25517749786376953
1725629111185099800,9.387099853515625,0.3195692002773285,-0.09480650722980499,-0.2477685958147049
1725629111195133700,9.3971337890625,0.28412124514579773,-0.013191590085625648,-0.23626485466957092
1725629111205167900,9.40716796875,0.22271622717380524,0.09687579423189163,-0.2286388874053955
1725629111215201800,9.417201904296874,0.17539162933826447,0.22274792194366455,-0.2269359529018402
1725629111225234700,9.427234619140625,0.15167272090911865,0.30382224917411804,-0.24965909123420715
1725629111235268900,9.437268798828125,0.14591947197914124,0.3210492730140686,-0.3122640550136566
1725629111245302800,9.447302734375,0.1394549161195755,0.273578405380249,-0.36493393778800964
1725629111255336700,9.457336669921874,0.11893659830093384,0.27515366673469543,-0.40097102522850037
1725629111265371000,9.467370849609376,0.12041598558425903,0.316127747297287,-0.4506072998046875
1725629111275404800,9.47740478515625,0.13111931085586548,0.39559465646743774,-0.5798683166503906
1725629111285438700,9.487438720703125,0.09640715271234512,0.4384568929672241,-0.8263733983039856
1725629111295473000,9.497472900390624,0.14624333381652832,0.22037982940673828,-0.9650108218193054
1725629111305507000,9.507507080078126,0.1857670396566391,-0.01352853886783123,-0.9840499758720398
1725629111315541000,9.517541015625,0.18891577422618866,-0.1889590620994568,-0.9547303318977356
1725629111325575000,9.527574951171875,0.17608705163002014,-0.29378774762153625,-0.9233531951904297
1725629111335608800,9.53760888671875,0.16253210604190826,-0.40562641620635986,-0.8889515399932861
1725629111345642800,9.547642822265624,0.1372901201248169,-0.48604774475097656,-0.8390404582023621
1725629111355677000,9.557677001953126,0.05305425450205803,-0.5241027474403381,-0.7729781866073608
1725629111365710800,9.5677109375,0.007962409406900406,-0.5632756948471069,-0.6901639699935913
1725629111375744800,9.577744873046875,-0.04468066990375519,-0.5319909453392029,-0.6346728205680847
1725629111385779000,9.587779052734374,-0.11249860376119614,-0.5283756852149963,-0.5590289235115051
1725629111395811800,9.597811767578126,-0.12470512092113495,-0.5313881039619446,-0.4351654350757599
1725629111405845800,9.607845703125,-0.1224060133099556,-0.43271908164024353,-0.2693149447441101
1725629111415880000,9.6178798828125,-0.19132627546787262,-0.2016778290271759,-0.0707407221198082
1725629111425913900,9.627913818359374,-0.24689152836799622,0.03232908248901367,0.09067054092884064
1725629111435947800,9.63794775390625,-0.29599058628082275,0.22429686784744263,0.21276462078094482
1725629111445982000,9.64798193359375,-0.32345443964004517,0.38741838932037354,0.3383598327636719
1725629111456016000,9.658015869140625,-0.3516128659248352,0.5224035382270813,0.5066258311271667
1725629111466049800,9.6680498046875,-0.3303379416465759,0.6337020993232727,0.7010554671287537
1725629111476084000,9.678083984375,-0.2890509068965912,0.7109691500663757,0.872271716594696
1725629111486118000,9.688117919921876,-0.23380149900913239,0.7477673888206482,1.014256238937378
1725629111496151800,9.69815185546875,-0.14444564282894135,0.7281585335731506,1.1452008485794067
1725629111506186000,9.70818603515625,-0.03379929065704346,0.7510835528373718,1.204379677772522
1725629111516220000,9.718219970703124,0.040496788918972015,0.8246476054191589,1.1171096563339233
1725629111526253800,9.72825390625,-0.03416386619210243,0.8577679991722107,0.8947151303291321
1725629111536288000,9.7382880859375,-0.220387801527977,0.8297197818756104,0.6045725345611572
1725629111546322000,9.748322021484375,-0.3917526304721832,0.718339204788208,0.3565155863761902
1725629111556355800,9.75835595703125,-0.4906879663467407,0.488209068775177,0.21661913394927979
1725629111566388700,9.768388671875,-0.49313223361968994,0.10280517488718033,0.22618921101093292
1725629111576423000,9.7784228515625,-0.38486218452453613,-0.2707342207431793,0.33860036730766296
1725629111586457000,9.78845703125,-0.22766774892807007,-0.45199480652809143,0.4224502742290497
1725629111596490800,9.79849072265625,-0.08823206275701523,-0.4435083568096161,0.38583627343177795
1725629111606525000,9.80852490234375,-0.015632962808012962,-0.3270725607872009,0.2597915232181549
1725629111616559000,9.81855908203125,-0.002363587263971567,-0.1914995163679123,0.11478623002767563
1725629111626592800,9.8285927734375,-0.01770206354558468,-0.07199522107839584,0.02303207293152809
1725629111636627000,9.838626953125,-0.03862893581390381,0.01527450978755951,0.017046170309185982
1725629111646660900,9.848660888671875,-0.058284927159547806,0.034498002380132675,0.05570168420672417
1725629111656694800,9.85869482421875,-0.07788344472646713,0.00886540487408638,0.08076164126396179
1725629111666729000,9.86872900390625,-0.09829816967248917,-0.0517265722155571,0.07747051119804382
1725629111676763000,9.878762939453125,-0.11102615296840668,-0.11079490929841995,0.05086672678589821
1725629111686796800,9.888796875,-0.1124834418296814,-0.14667753875255585,0.030160652473568916
1725629111696831000,9.8988310546875,-0.11189760267734528,-0.1253398060798645,0.026254728436470032
1725629111706865000,9.908864990234376,-0.11838772892951965,-0.06672495603561401,0.04042647406458855
1725629111716898800,9.91889892578125,-0.1382358819246292,0.012586268596351147,0.062241826206445694
1725629111726931700,9.928931640625,-0.18688279390335083,0.10851731896400452,0.0848211795091629
1725629111736966000,9.9389658203125,-0.23920577764511108,0.21036122739315033,0.09387334436178207
1725629111747000000,9.949,-0.2839388847351074,0.33324745297431946,0.11366462707519531
1725629111757033700,9.95903369140625,-0.2921018600463867,0.49102315306663513,0.13963961601257324
1725629111767068000,9.96906787109375,-0.2743111252784729,0.5841944217681885,0.15877069532871246
1725629111777102000,9.97910205078125,-0.23926076292991638,0.6883601546287537,0.1567152589559555
1725629111787135700,9.9891357421875,-0.15821251273155212,0.7504498958587646,0.11865336447954178
1725629111797170000,9.999169921875,-0.07149457931518555,0.7646031379699707,0.054722368717193604
1725629111807204000,10.0092041015625,0.006418326869606972,0.7657650709152222,-0.021193968132138252
1725629111817237800,10.01923779296875,0.0671006441116333,0.7864237427711487,-0.07631053030490875
1725629111827272000,10.02927197265625,0.105219267308712,0.7752296924591064,-0.10440155118703842
1725629111837306000,10.03930615234375,0.113987997174263,0.7531833052635193,-0.11083903908729553
1725629111847339800,10.04933984375,0.10325305908918381,0.7312617897987366,-0.07786830514669418
1725629111857374000,10.0593740234375,0.07054205983877182,0.625984251499176,-0.01833985187113285
1725629111867408000,10.069407958984375,0.009281896986067295,0.39113950729370117,0.05512717366218567
1725629111877441800,10.07944189453125,-0.06170569360256195,0.11309618502855301,0.14412090182304382
1725629111887476000,10.08947607421875,-0.08433909714221954,-0.0638362467288971,0.2351890206336975
1725629111897508900,10.0995087890625,-0.0648183524608612,-0.10674683749675751,0.2972550094127655
1725629111907543000,10.10954296875,-0.06564605981111526,-0.030007055029273033,0.3570685386657715
1725629111917577000,10.119576904296874,-0.06587356328964233,0.06280246376991272,0.43688148260116577
1725629111927611000,10.12961083984375,-0.03152730315923691,0.04321731626987457,0.4727521240711212
1725629111937645000,10.13964501953125,0.042038481682538986,-0.0030315264593809843,0.45981454849243164
1725629111947678700,10.1496787109375,0.12917286157608032,-0.024569308385252953,0.39662227034568787
1725629111957713000,10.159712890625,0.21771804988384247,-0.020131845027208328,0.3149685859680176
1725629111967747000,10.1697470703125,0.2670634984970093,-0.02051480859518051,0.2336023598909378
1725629111977780700,10.17978076171875,0.30633819103240967,0.018224863335490227,0.1540372371673584
1725629111987815000,10.18981494140625,0.33445239067077637,0.1059240847826004,0.08356013894081116
1725629111997849000,10.19984912109375,0.34148192405700684,0.1871395856142044,0.00912247784435749
1725629112007882800,10.2098828125,0.3407772481441498,0.21747751533985138,-0.07885505259037018
1725629112017917000,10.2199169921875,0.31643083691596985,0.2563476264476776,-0.18911616504192352
1725629112027951000,10.229951171875,0.2486105114221573,0.2678873538970947,-0.30702656507492065
1725629112037984800,10.23998486328125,0.17649629712104797,0.21006442606449127,-0.3976231813430786
1725629112048019000,10.25001904296875,0.11886362731456757,0.16010165214538574,-0.4468647539615631
1725629112058053000,10.26005322265625,0.06325642019510269,0.11730580031871796,-0.4545530378818512
1725629112068086000,10.2700859375,0.020662885159254074,0.0909959003329277,-0.4228813946247101
1725629112078120000,10.280119873046875,0.003194990335032344,0.04716918244957924,-0.3404427766799927
1725629112088153900,10.29015380859375,0.02605077251791954,-0.027456054463982582,-0.2394423931837082
1725629112098188000,10.30018798828125,0.07156166434288025,-0.13274447619915009,-0.1727278083562851
1725629112108222000,10.310221923828125,0.10699769109487534,-0.2725106179714203,-0.15014074742794037
1725629112118255900,10.320255859375,0.13771487772464752,-0.37977370619773865,-0.17491725087165833
1725629112128290000,10.3302900390625,0.14637868106365204,-0.3892867863178253,-0.21213653683662415
1725629112138324000,10.340323974609374,0.15177367627620697,-0.37578535079956055,-0.23784422874450684
1725629112148358000,10.35035791015625,0.1324596405029297,-0.3705165386199951,-0.24835307896137238
1725629112158392000,10.36039208984375,0.11376364529132843,-0.31906628608703613,-0.2521878778934479
1725629112168425700,10.37042578125,0.09057895839214325,-0.2662550210952759,-0.2362576574087143
1725629112178460000,10.3804599609375,0.05745163559913635,-0.26994749903678894,-0.20748725533485413
1725629112188494000,10.390494140625,0.03524646535515785,-0.3053757846355438,-0.1767975240945816
1725629112198527700,10.40052783203125,0.02701670117676258,-0.3342452645301819,-0.1617974042892456
1725629112208562000,10.41056201171875,0.024737566709518433,-0.36367693543434143,-0.16266267001628876
1725629112218596000,10.42059619140625,0.029215939342975616,-0.380594402551651,-0.16873493790626526
1725629112228629000,10.43062890625,0.04405533894896507,-0.37320518493652344,-0.177812859416008
1725629112238663000,10.440662841796875,0.07366509735584259,-0.278253972530365,-0.1783863604068756
1725629112248696800,10.45069677734375,0.10017500072717667,-0.15717680752277374,-0.16215039789676666
1725629112258731000,10.46073095703125,0.08779821544885635,-0.1397467851638794,-0.15143197774887085
1725629112268765000,10.470764892578124,0.04661695659160614,-0.18654917180538177,-0.15535642206668854
1725629112278798800,10.480798828125,-0.030503882095217705,-0.19437208771705627,-0.1869402378797531
1725629112288832500,10.49083251953125,-0.10841412842273712,-0.17157037556171417,-0.23600178956985474
1725629112298866400,10.500866455078125,-0.16403543949127197,-0.16881346702575684,-0.27739033102989197
1725629112308900600,10.510900634765624,-0.17010077834129333,-0.15445742011070251,-0.29943597316741943
1725629112318934500,10.5209345703125,-0.15443336963653564,-0.09264214336872101,-0.2977939248085022
1725629112328968400,10.530968505859375,-0.13108010590076447,0.051793064922094345,-0.28376731276512146
1725629112339002600,10.541002685546875,-0.13225653767585754,0.21210356056690216,-0.27212291955947876
1725629112349036500,10.55103662109375,-0.1700635701417923,0.34350791573524475,-0.27389419078826904
1725629112359070500,10.561070556640624,-0.21291157603263855,0.5104352831840515,-0.2928774654865265
1725629112369104600,10.571104736328126,-0.25535649061203003,0.6275997161865234,-0.3137473165988922
1725629112379138600,10.581138671875,-0.3001789152622223,0.6406873464584351,-0.3138284385204315
1725629112389172500,10.59117236328125,-0.31805458664894104,0.6339189410209656,-0.3413380980491638
1725629112399205400,10.601205322265624,-0.2817767858505249,0.5904229283332825,-0.379457950592041
1725629112409239600,10.611239501953126,-0.17822188138961792,0.4956364929676056,-0.42630723118782043
1725629112419273700,10.621273681640625,-0.02259918302297592,0.4649503827095032,-0.4944789409637451
1725629112429307400,10.631307373046875,0.17056281864643097,0.4666782319545746,-0.6932687759399414
1725629112439341600,10.641341552734374,0.37764737010002136,0.23957738280296326,-0.8035696148872375
1725629112449375700,10.651375732421876,0.5309969782829285,-0.017380638048052788,-0.8509626984596252
1725629112459409400,10.661409423828125,0.6235660910606384,-0.2999352812767029,-0.8389191031455994
1725629112469443600,10.671443603515625,0.6248198747634888,-0.5502915978431702,-0.8253675699234009
1725629112479477800,10.681477783203125,0.5543946623802185,-0.7397384643554688,-0.8621563911437988
1725629112489511400,10.691511474609374,0.411323219537735,-0.9250832796096802,-0.9346497654914856
1725629112499545600,10.701545654296876,0.2677135169506073,-1.0448381900787354,-1.0187370777130127
1725629112509579500,10.71157958984375,0.10041641443967819,-1.1425580978393555,-1.018059492111206
1725629112519613400,10.721613525390625,-0.04972797632217407,-1.1477504968643188,-0.9309426546096802
1725629112529647600,10.731647705078124,-0.2382534146308899,-0.9919662475585938,-0.8144400119781494
1725629112539681500,10.741681640625,-0.32630622386932373,-0.8626624941825867,-0.6787041425704956
1725629112549715500,10.751715576171875,-0.3460756540298462,-0.7118167877197266,-0.5352572798728943
1725629112559749600,10.76174951171875,-0.33738863468170166,-0.4745910167694092,-0.4004484713077545
1725629112569782500,10.771782470703124,-0.3290782570838928,-0.21842873096466064,-0.260955274105072
1725629112579816700,10.781816650390626,-0.3195798397064209,0.054096516221761703,-0.12735667824745178
1725629112589850400,10.791850341796875,-0.31360024213790894,0.28052061796188354,-0.01311453152447939
1725629112599884500,10.801884521484375,-0.32704290747642517,0.4560227692127228,0.08427179604768753
1725629112609918700,10.811918701171875,-0.21540266275405884,0.5189039707183838,0.2272758185863495
1725629112619952400,10.821952392578124,-0.09139265865087509,0.5222806930541992,0.3745358884334564
1725629112629986600,10.831986572265626,-0.029413709416985512,0.47780248522758484,0.44629183411598206
1725629112640020700,10.842020751953125,0.014559687115252018,0.42907965183258057,0.4902864992618561
1725629112650054400,10.852054443359375,0.07600387185811996,0.38930293917655945,0.5513405203819275
1725629112660088600,10.862088623046875,0.11114125698804855,0.38039299845695496,0.6534111499786377
1725629112670122500,10.87212255859375,0.13861416280269623,0.3946044445037842,0.7692461609840393
1725629112680156400,10.882156494140625,0.15598566830158234,0.41398078203201294,0.876324474811554
1725629112690190600,10.892190673828125,0.16383452713489532,0.4667806029319763,0.9887460470199585
1725629112700224500,10.902224609375,0.14631937444210052,0.5093289017677307,1.0946649312973022
1725629112710258400,10.912258544921874,0.15462283790111542,0.5415470004081726,1.189368724822998
1725629112720292600,10.922292724609376,0.19177846610546112,0.6123595833778381,1.2564973831176758
1725629112730325500,10.932325439453125,0.18564467132091522,0.7095322012901306,1.2848211526870728
1725629112740359400,10.942359375,0.145271435379982,0.7863263487815857,1.2603797912597656
1725629112750393600,10.9523935546875,0.08044476807117462,0.8034763336181641,1.1548027992248535
1725629112760427500,10.962427490234376,-0.07452220469713211,0.681034505367279,0.9340258240699768
1725629112770461400,10.97246142578125,-0.2814895212650299,0.4047427475452423,0.6069014668464661
1725629112780495600,10.98249560546875,-0.3854723572731018,0.11148546636104584,0.3486193120479584
1725629112790529500,10.992529541015625,-0.405850887298584,-0.157827228307724,0.2719796597957611
1725629112800563500,11.0025634765625,-0.3720850348472595,-0.3281218111515045,0.3310592472553253
1725629112810597400,11.012597412109375,-0.2862257957458496,-0.421142041683197,0.4212477207183838
1725629112820631600,11.022631591796875,-0.20670464634895325,-0.49944886565208435,0.45556047558784485
1725629112830665500,11.03266552734375,-0.15940238535404205,-0.5320538878440857,0.4142015874385834
1725629112840699400,11.042699462890624,-0.13135232031345367,-0.48481082916259766,0.3227410316467285
1725629112850733600,11.052733642578126,-0.12342596054077148,-0.3769485652446747,0.2191390097141266
1725629112860767500,11.062767578125,-0.14344282448291779,-0.2947840988636017,0.14026477932929993
1725629112870801400,11.072801513671875,-0.1613006591796875,-0.2668246328830719,0.10662852227687836
1725629112880835600,11.082835693359375,-0.19830982387065887,-0.26617661118507385,0.10953011363744736
1725629112890868500,11.092868408203126,-0.22695212066173553,-0.23562483489513397,0.12391038984060287
1725629112900902400,11.10290234375,-0.22763334214687347,-0.19047899544239044,0.12636999785900116
1725629112910936600,11.1129365234375,-0.2096593976020813,-0.17850516736507416,0.1115252822637558
1725629112920970500,11.122970458984375,-0.18904328346252441,-0.1982371211051941,0.0690532997250557
1725629112931004400,11.13300439453125,-0.13173791766166687,-0.20181293785572052,0.014171143993735313
1725629112941038600,11.14303857421875,-0.06543488800525665,-0.21515996754169464,-0.043195273727178574
1725629112951072500,11.153072509765625,0.004277614410966635,-0.16846223175525665,-0.09748327732086182
1725629112961106400,11.1631064453125,0.06267445534467697,-0.07368150353431702,-0.12291133403778076
1725629112971140600,11.173140625,0.10664963722229004,0.006178175564855337,-0.1204439178109169
1725629112981174500,11.183174560546876,0.10335877537727356,0.059828706085681915,-0.08872789144515991
1725629112991208400,11.19320849609375,0.06163742393255234,0.016001328825950623,-0.04492128640413284
1725629113001242600,11.20324267578125,0.009921981021761894,0.0019540146458894014,-0.011435880325734615
1725629113011276500,11.213276611328125,-0.05587780475616455,0.10871054977178574,0.02280092053115368
1725629113021310500,11.223310546875,-0.11052751541137695,0.22041131556034088,0.05848370119929314
1725629113031344600,11.2333447265625,-0.1313164234161377,0.29811516404151917,0.1173587366938591
1725629113041378600,11.243378662109375,-0.10357172787189484,0.3725702166557312,0.18332114815711975
1725629113051411700,11.25341162109375,-0.05538156256079674,0.33952784538269043,0.24145422875881195
1725629113061445400,11.2634453125,-0.00309433089569211,0.20947712659835815,0.2673491835594177
1725629113071479600,11.2734794921875,0.0910489410161972,0.10214481502771378,0.26914334297180176
1725629113081513700,11.283513671875,0.23325791954994202,0.06016090512275696,0.25793927907943726
1725629113091547400,11.29354736328125,0.3544416129589081,0.06132523715496063,0.25189468264579773
1725629113101581600,11.30358154296875,0.44171199202537537,0.07497450709342957,0.2610498070716858
1725629113111615500,11.313615478515626,0.49231207370758057,0.0942230373620987,0.315394788980484
1725629113121649400,11.3236494140625,0.4812127351760864,0.010621330700814724,0.3997270464897156
1725629113131683600,11.33368359375,0.4486902356147766,-0.12241954356431961,0.4479430317878723
1725629113141717500,11.343717529296875,0.43980905413627625,-0.23896192014217377,0.43816593289375305
1725629113151751400,11.35375146484375,0.4196297526359558,-0.25931644439697266,0.4166470468044281
1725629113161785600,11.36378564453125,0.4061920940876007,-0.18612073361873627,0.39802390336990356
1725629113171819500,11.373819580078125,0.38899287581443787,-0.09859435260295868,0.36338841915130615
1725629113181853400,11.383853515625,0.3531886041164398,0.01288928184658289,0.3164216876029968
1725629113191887600,11.3938876953125,0.30929332971572876,0.12085437029600143,0.21904851496219635
1725629113201921500,11.403921630859376,0.2625097632408142,0.14315606653690338,0.08166912198066711
1725629113211955500,11.41395556640625,0.1947176605463028,0.14185963571071625,-0.05729435756802559
1725629113221989600,11.42398974609375,0.13247643411159515,0.11933722347021103,-0.16781967878341675
1725629113232022500,11.4340224609375,0.07212521880865097,0.057450950145721436,-0.2509894073009491
1725629113242056700,11.444056640625,0.009085198864340782,-0.01735249161720276,-0.30266258120536804
1725629113252090400,11.45409033203125,-0.02535240352153778,-0.031955137848854065,-0.3246126174926758
1725629113262124500,11.46412451171875,-0.03774119168519974,0.015505834482610226,-0.3186928927898407
1725629113272158700,11.47415869140625,-0.01743086241185665,0.05053519085049629,-0.2781054973602295
1725629113282192400,11.4841923828125,0.03359279781579971,0.062473978847265244,-0.20710597932338715
1725629113292227300,11.494227294921876,0.07679379731416702,0.061939749866724014,-0.1652541309595108
1725629113302261200,11.50426123046875,0.06745052337646484,0.0060507552698254585,-0.13855202496051788
1725629113312295200,11.514295166015625,0.037595950067043304,-0.12902264297008514,-0.11552207171916962
1725629113322329300,11.524329345703125,0.011673304252326488,-0.25742968916893005,-0.08842651546001434
1725629113332363300,11.53436328125,-0.007578421384096146,-0.33390259742736816,-0.07577010989189148
1725629113342397200,11.544397216796876,-0.02811654470860958,-0.3913733661174774,-0.08117886632680893
1725629113352431400,11.554431396484375,-0.011665399186313152,-0.43037402629852295,-0.09118116647005081
1725629113362465300,11.56446533203125,0.02364048920571804,-0.4417373836040497,-0.1005498468875885
1725629113372499200,11.574499267578124,0.07391350716352463,-0.41396379470825195,-0.09854182600975037
1725629113382533400,11.584533447265626,0.11860879510641098,-0.40048545598983765,-0.10417192429304123
1725629113392566300,11.594566162109375,0.17570136487483978,-0.375836044549942,-0.11401763558387756
1725629113402600200,11.60460009765625,0.22287368774414062,-0.32711926102638245,-0.11401230096817017
1725629113412634400,11.61463427734375,0.23689976334571838,-0.2504878640174866,-0.10975071042776108
1725629113422668300,11.624668212890626,0.2293335199356079,-0.1786963939666748,-0.101548932492733
1725629113432702200,11.6347021484375,0.18641428649425507,-0.11857126653194427,-0.08749915659427643
1725629113442736400,11.644736328125,0.12763339281082153,-0.057280220091342926,-0.07537050545215607
1725629113452770300,11.654770263671875,0.06856580823659897,-0.03185582160949707,-0.0826374739408493
1725629113462804200,11.66480419921875,0.012779396027326584,-0.01625092513859272,-0.1160154789686203
1725629113472838400,11.67483837890625,-0.020722106099128723,0.02437506429851055,-0.14787673950195312
1725629113482872300,11.684872314453125,-0.027491847053170204,0.043490536510944366,-0.1734103113412857
1725629113492906200,11.69490625,-0.027557093650102615,0.03149032965302467,-0.19007450342178345
1725629113502940200,11.704940185546874,-0.01652001217007637,-0.009785465896129608,-0.22065594792366028
1725629113512974300,11.714974365234376,0.0027863075956702232,-0.05072623863816261,-0.2704852819442749
1725629113523008300,11.72500830078125,0.006614913698285818,-0.08116525411605835,-0.30982688069343567
1725629113533042200,11.735042236328125,-0.002644897671416402,-0.11912648379802704,-0.31934794783592224
1725629113543076400,11.745076416015625,0.0013994594337418675,-0.12370581924915314,-0.32721835374832153
1725629113553109200,11.755109130859376,0.007434715051203966,-0.08536189794540405,-0.32845112681388855
1725629113563143200,11.76514306640625,0.010361813008785248,-0.0018700174987316132,-0.3215174078941345
1725629113573177300,11.77517724609375,0.0029872532468289137,0.08170504122972488,-0.3103931248188019
1725629113583211300,11.785211181640625,0.009903931058943272,0.19823427498340607,-0.3106040060520172
1725629113593245200,11.7952451171875,0.027869882062077522,0.28942328691482544,-0.344622939825058
1725629113603279400,11.805279296875,0.06530409306287766,0.28387051820755005,-0.37755993008613586
1725629113613313300,11.815313232421875,0.12729395925998688,0.2637876272201538,-0.4471834897994995
1725629113623347200,11.82534716796875,0.12311878055334091,0.37389981746673584,-0.7177984714508057
1725629113633381400,11.83538134765625,0.1688987910747528,0.17733511328697205,-0.9418704509735107
1725629113643415300,11.845415283203126,0.21903957426548004,-0.11422500014305115,-1.1195369958877563
1725629113653449200,11.85544921875,0.2469327300786972,-0.4236917793750763,-1.2032374143600464
1725629113663483400,11.8654833984375,0.2657257318496704,-0.6650088429450989,-1.2037705183029175
1725629113673517300,11.875517333984375,0.28819987177848816,-0.8014348745346069,-1.14462411403656
1725629113683551200,11.88555126953125,0.23002159595489502,-0.760930597782135,-1.0679882764816284
1725629113693585400,11.89558544921875,0.16921202838420868,-0.667079746723175,-1.0119034051895142
1725629113703619300,11.905619384765625,0.11272997409105301,-0.5911902189254761,-0.9719294309616089
1725629113713653200,11.9156533203125,0.049471378326416016,-0.4947981536388397,-0.9086481928825378
1725629113723686100,11.92568603515625,-0.03333442658185959,-0.3709975481033325,-0.8598508238792419
1725629113733720300,11.93572021484375,-0.09368351846933365,-0.3093070387840271,-0.7645626664161682
1725629113743754500,11.94575439453125,-0.11851491034030914,-0.26396480202674866,-0.6254363059997559
1725629113753788200,11.9557880859375,-0.14567676186561584,-0.20793749392032623,-0.4697963297367096
1725629113763822300,11.965822265625,-0.1646541804075241,-0.0850970596075058,-0.31933197379112244
1725629113773856500,11.9758564453125,-0.17948772013187408,0.10939838737249374,-0.17517240345478058
1725629113783890200,11.98589013671875,-0.18881744146347046,0.27935752272605896,-0.04658966138958931
1725629113793924400,11.99592431640625,-0.20924335718154907,0.416607528924942,0.03481598198413849
1725629113803958300,12.005958251953125,-0.23396989703178406,0.5034626126289368,0.1164318099617958
1725629113813992200,12.0159921875,-0.22872532904148102,0.5592789649963379,0.22223573923110962
1725629113824026400,12.0260263671875,-0.19177891314029694,0.5902268290519714,0.3334847688674927
1725629113834060300,12.036060302734375,-0.13116750121116638,0.5722078680992126,0.42520269751548767
1725629113844094200,12.04609423828125,-0.06643744558095932,0.5498194694519043,0.49499157071113586
1725629113854128400,12.05612841796875,-0.01519902516156435,0.5415332913398743,0.536331832408905
1725629113864162300,12.066162353515624,-0.0073891025967895985,0.5566557049751282,0.5666744112968445
1725629113874196200,12.0761962890625,-0.03747323527932167,0.5826036930084229,0.6216233968734741
1725629113884229000,12.08622900390625,-0.07398474961519241,0.5933278799057007,0.6908959150314331
1725629113894263300,12.09626318359375,-0.09805333614349365,0.575526237487793,0.7624473571777344
1725629113904297500,12.10629736328125,-0.12338589876890182,0.49613699316978455,0.8240559101104736
1725629113914331100,12.1163310546875,-0.14036327600479126,0.3713679015636444,0.8377501368522644
1725629113924365300,12.126365234375,-0.15716536343097687,0.2808966636657715,0.7618304491043091
1725629113934399500,12.1363994140625,-0.21572402119636536,0.1651868224143982,0.6217185854911804
1725629113944433200,12.14643310546875,-0.3076006770133972,0.03656865656375885,0.46372100710868835
1725629113954467300,12.15646728515625,-0.3747144639492035,-0.0581008605659008,0.3090696334838867
1725629113964501500,12.16650146484375,-0.3896459639072418,-0.19277900457382202,0.24047712981700897
1725629113974535200,12.17653515625,-0.34002619981765747,-0.30447331070899963,0.26698169112205505
1725629113984569300,12.1865693359375,-0.26052287220954895,-0.34370970726013184,0.3023911714553833
1725629113994603500,12.196603515625,-0.18656077980995178,-0.3830523192882538,0.3099716007709503
1725629114004637200,12.20663720703125,-0.12670330703258514,-0.3680155575275421,0.279252290725708
1725629114014671400,12.21667138671875,-0.0605866014957428,-0.30817273259162903,0.24104204773902893
1725629114024705300,12.226705322265625,-0.022106416523456573,-0.292728066444397,0.21401649713516235
1725629114034739200,12.2367392578125,-0.004497062880545855,-0.25793546438217163,0.19912089407444
1725629114044772400,12.2467724609375,-0.0010436474112793803,-0.18353626132011414,0.20057477056980133
1725629114054806300,12.25680615234375,-0.03133950009942055,-0.07610088586807251,0.21155792474746704
1725629114064840200,12.266840087890625,-0.09812385588884354,0.050010450184345245,0.2221897840499878
1725629114074874400,12.276874267578124,-0.1560758352279663,0.14514708518981934,0.22917713224887848
1725629114084908300,12.286908203125,-0.2077510952949524,0.1599942445755005,0.24943095445632935
1725629114094942200,12.296942138671875,-0.232417032122612,0.14591704308986664,0.2629547715187073
1725629114104976100,12.30697607421875,-0.22986085712909698,0.1399035006761551,0.2586650550365448
1725629114115010300,12.31701025390625,-0.20033705234527588,0.10911282896995544,0.23586468398571014
1725629114125044200,12.327044189453124,-0.15175285935401917,0.03500566631555557,0.19573652744293213
1725629114135078100,12.337078125,-0.08449285477399826,0.014105445705354214,0.15455341339111328
1725629114145112300,12.3471123046875,-0.02080685831606388,0.001367441494949162,0.1232699453830719
1725629114155146200,12.357146240234375,0.02372412383556366,-0.0294160358607769,0.10197503864765167
1725629114165180200,12.36718017578125,0.0484396256506443,-0.018553514033555984,0.08985359966754913
1725629114175214300,12.37721435546875,0.04433010146021843,0.01065284013748169,0.08184120804071426
1725629114185248300,12.387248291015625,0.008512601256370544,0.054041340947151184,0.09540071338415146
1725629114195282200,12.3972822265625,-0.025661880150437355,0.05493776127696037,0.12320864200592041
1725629114205315300,12.4073154296875,-0.04786533862352371,0.017286773771047592,0.153706356883049
1725629114215349200,12.417349365234376,-0.05774407088756561,0.02605709619820118,0.193531796336174
1725629114225383200,12.427383056640625,-0.03541366755962372,-0.012962349690496922,0.23349787294864655
