time,seconds_elapsed,z,y,x
1725629495102571800,0.02157177734375,-0.5746820481956004,-0.1671066249549389,-0.2589870362728834
1725629495112605700,0.031605712890625,-0.3786889359742403,0.31682781534492965,0.05597410841733217
1725629495122639600,0.0416396484375,-0.21851649419665337,-0.2856418189644813,0.741315502680838
1725629495132673800,0.051673828125,0.12272270882725715,-0.03258475726246834,0.7499372005537152
1725629495142707700,0.061707763671875,0.9594342297315597,0.7267483404070139,0.24786329245120287
1725629495152741600,0.07174169921875,1.625847051641345,0.6094792208105325,0.4513441300794482
1725629495162775800,0.08177587890625,1.620026382663846,0.09684417120516299,1.2021665890350937
1725629495172809000,0.09180908203125,1.526423385336995,-0.05843348426818847,1.2942641502350567
1725629495182842600,0.101842529296875,1.590820161923766,0.37257659057378767,0.45384442246258255
1725629495192876800,0.111876708984375,1.26040805786252,0.3089478757500648,0.46342590527832506
1725629495202910700,0.12191064453125,0.8416793724447488,0.10688859535753727,0.6438438472270965
1725629495212944600,0.131944580078125,0.3442635192811489,0.055368251478672026,0.7265624624460936
1725629495222978800,0.141978759765625,0.08367021685540675,0.12234393864274025,0.6961345909565687
1725629495233012700,0.1520126953125,0.3093880207329988,0.5212453493013978,0.10036913046091794
1725629495243046700,0.162046630859375,0.8863976350933312,1.0654603630408643,-1.33771283133924
1725629495253080800,0.172080810546875,1.362640351846814,1.6352864956378936,-1.75540895883888
1725629495263114800,0.18211474609375,1.500169584661722,1.9900009740456936,-1.515630480904877
1725629495273148700,0.192148681640625,1.3737982901990413,2.0665312560185787,-1.2616899143666027
1725629495283181600,0.202181640625,1.0969020877480506,1.8534996229737997,-0.9531021041005849
1725629495293215700,0.2122158203125,1.0395715962857008,1.4558938050836323,-0.9714102064684033
1725629495303250000,0.22225,1.0047726701050996,1.0376777453631163,-1.0511796164929865
1725629495313283600,0.23228369140625,0.497592963296175,0.586710339641571,-1.0010209163561463
1725629495323317800,0.24231787109375,-0.2024585088431835,0.42792438378632064,-0.746332454060018
1725629495333352000,0.25235205078125,-1.0084650948822498,-0.4081368565157056,-0.08683511062711477
1725629495343385600,0.262385498046875,-2.009952751967311,-2.5687334666758774,3.608733809767663
1725629495353419800,0.272419677734375,-2.1427046873778104,-4.9552457413733,8.59631442529559
1725629495363454000,0.282453857421875,-0.11919862635433673,-3.1960990573108194,4.132651885409653
1725629495373487600,0.292487548828125,2.035980927193165,-0.06623012949377298,-1.1477259737953542
1725629495383520800,0.302520751953125,3.221538034471869,0.2012999864578247,-1.6692109770715235
1725629495393554700,0.3125546875,3.3054064042478797,-0.9998834367588162,-0.4761065231531858
1725629495403588900,0.3225888671875,2.2725626549124716,-2.2912860600829124,0.9493106028631328
1725629495413622800,0.332622802734375,0.44335400810837744,-2.5255881524324417,1.29993722743541
1725629495423656700,0.34265673828125,-0.3771943135023117,-1.6618997772753237,0.24733254657536743
1725629495433691000,0.35269091796875,-1.1680875015616417,-0.4394651839762926,-0.36273031934201716
1725629495443724800,0.362724853515625,-1.6168290479272602,0.0755599756360054,-0.5345692335158586
1725629495453758700,0.3727587890625,-1.6934060916513203,0.4514642493277788,-0.4560758347764611
1725629495463793000,0.38279296875,-1.8446388556480406,0.7075614093780517,-0.1051025887235999
1725629495473826800,0.392826904296875,-2.957332386767864,-0.2888455834418535,0.45142128696888684
1725629495483860700,0.40286083984375,-2.950186022144556,-1.297126553928852,0.06648468877673148
1725629495493894000,0.412893798828125,-1.1811696859747172,-0.2895835423275828,-1.3113204989761114
1725629495503927800,0.422927734375,-0.10575871454477309,0.7139049331858753,-1.84007081708014
1725629495513961700,0.432961669921875,0.13476269071102143,0.4564586966142058,-0.6282096402436494
1725629495523996000,0.442995849609375,0.49781508161425586,-0.33997926609069107,0.14123217898607254
1725629495534029800,0.45302978515625,0.01450198808312416,-0.7343497553214431,0.1781464898854494
1725629495544063700,0.463063720703125,-0.3777075237214565,-0.8231582118481398,-0.30788463043272496
1725629495554097700,0.47309765625,-0.5124170229405164,-0.5989417524442077,-1.0170856237113475
1725629495564131800,0.4831318359375,-0.48314124409556386,-0.4715788165956735,-1.9138842413097619
1725629495574165800,0.493165771484375,1.2044874331980944,0.40828035663962364,-1.3013012092649936
1725629495584199700,0.50319970703125,3.929692733567953,1.2351733711019157,-0.8120821065604686
1725629495594233900,0.51323388671875,2.9062767377912997,0.19352116914987563,-1.2578922756493092
1725629495604267000,0.52326708984375,1.8210434605270622,-1.3436737855702638,0.5145639718413353
1725629495614300700,0.53330078125,1.81088330104053,-2.386608720809221,3.321795521251857
1725629495624334800,0.5433349609375,1.3855682229697703,-1.3806576545745133,2.675558056886494
1725629495634368800,0.55336865234375,1.8619050477474928,0.014443828155100345,0.3158423114389181
1725629495644402700,0.563402587890625,1.7553215728163718,0.059817047581076616,-0.4329261375963688
1725629495654436900,0.573436767578125,0.06928805575966834,-0.5508265408337116,-0.30575229457914826
1725629495664470800,0.583470703125,-0.8812234473258257,-0.9273919087827205,-0.15611206047087905
1725629495674504700,0.593504638671875,-1.19494686691463,-0.47462271433621644,-0.86755411067456
1725629495684539000,0.603538818359375,-1.6793758127331733,-0.4040077938869595,-1.0945967334151268
1725629495694572800,0.61357275390625,-2.0465134271234273,-0.28000439759939905,-1.2289540581956504
1725629495704606700,0.623606689453125,-1.5639911917090414,0.7785156447842717,-1.9939532188028095
1725629495714639600,0.6336396484375,-1.590223365074396,-0.1356686996400356,-1.5347341175645588
1725629495724673800,0.643673828125,-1.6953636554598808,-1.1371122253224253,-0.3498933418616652
1725629495734707700,0.653707763671875,-1.744084724009037,-1.1256330921918154,-0.14011311182826758
1725629495744741600,0.66374169921875,-1.525783918389678,-0.7610124290585517,-0.6899998875938356
1725629495754775800,0.67377587890625,-1.1322539716362952,-0.7808204145953058,-0.640260143521428
1725629495764809700,0.683809814453125,-0.4730991580307483,-0.6801584386676549,-0.629653993833065
1725629495774843600,0.69384375,-0.0019289222359657287,-0.6053317457422613,-0.5974653962813318
1725629495784877800,0.7038779296875,0.31399171513617036,-0.45229543945491313,-0.7654796376004814
1725629495794911700,0.713911865234375,0.7729822683155536,-0.03147591923773289,-1.6678835278600452
1725629495804945700,0.723945556640625,0.8820587291061878,0.16015578290373086,-1.695509932062775
1725629495814979800,0.733979736328125,0.40179099462032314,-0.050588031464815136,-1.2456705074578522
1725629495825012700,0.7440126953125,0.08588789290487765,-0.056010933296382424,-0.5892763907372951
1725629495835046700,0.754046630859375,0.2765378905326128,0.070265960881114,-0.2298034657560289
1725629495845080800,0.764080810546875,0.35398178021907806,0.25561931340545413,0.011179127270728348
1725629495855114800,0.77411474609375,0.02757832727730274,0.38634558820724485,-0.109477735067904
1725629495865148700,0.784148681640625,-0.33618718033134937,0.6299450857341289,-0.5798492217004299
1725629495875182800,0.794182861328125,-0.9227969822078943,0.8157686861187219,-0.9086204266868532
1725629495885216800,0.804216796875,-1.086074988785386,1.3432774797290563,-1.149000231514871
1725629495895250700,0.814250732421875,-0.44171676229536533,2.302808740094304,-1.735595128083229
1725629495905284900,0.824284912109375,-0.5714315219670534,2.763140186488628,-1.5299489291146398
1725629495915318800,0.83431884765625,-0.719778501394391,1.982359227120876,-0.1453951804170385
1725629495925352000,0.84435205078125,-0.1319049631923437,2.311127363367379,0.44679432128798213
1725629495935385600,0.854385498046875,0.1524140827357769,2.629535433641076,1.03242778894566
1725629495945419800,0.864419677734375,0.43903497586548323,2.7161428729921577,1.510032953158766
1725629495955454000,0.874453857421875,0.7861363489210605,3.3011516694128513,1.8902976140171288
1725629495965487600,0.884487548828125,1.3608920468747614,2.839370608732104,0.4882601214792579
1725629495975521800,0.894521728515625,1.2346885101944207,2.403407295396924,0.9418697122726589
1725629495985555700,0.9045556640625,1.2331184843987226,1.1068132409095763,2.439061669363081
1725629495995589600,0.914589599609375,1.250995501872897,1.005413306096196,2.8792212653443214
1725629496005623800,0.924623779296875,1.0960802499711513,1.3937521139472722,3.0108067873239515
1725629496015657700,0.93465771484375,1.4075018223583697,1.108035476180911,2.6040342048987744
1725629496025691600,0.944691650390625,2.3369752135902644,0.4693447739332914,2.368902383726835
1725629496035724800,0.954724853515625,3.5738685403525827,0.06274667129218578,2.343859127885103
1725629496045758700,0.9647587890625,4.2309734356909985,-0.3464040384411812,2.1425316688984632
1725629496055793000,0.97479296875,3.8656338106334207,-0.8449339903265237,1.6041884698018432
1725629496065826600,0.98482666015625,2.489295772823691,-1.003669677299261,1.2394796899937093
1725629496075860700,0.99486083984375,0.6055787062406539,-0.9297212285131216,1.1079656258150934
1725629496085895000,1.00489501953125,-0.9404530504077673,-0.9345599007159471,1.3562760775119065
1725629496095928600,1.014928466796875,-1.8267858035713433,-0.9075129038363695,1.3254481007888912
1725629496105962800,1.024962646484375,-2.3097674731910227,-0.8005442289799451,1.0620011624976993
1725629496115997000,1.034996826171875,-2.514156073313951,-0.5480979926526546,0.7676374001562595
1725629496126030600,1.045030517578125,-2.3150082964539527,-0.40957273453772064,0.7371712424829602
1725629496136064800,1.055064697265625,-2.0243232226252554,-0.4716057046025991,0.8141466378748416
1725629496146097700,1.06509765625,-1.9284043495714662,-0.33053952983319757,0.6274424552634358
1725629496156131800,1.0751318359375,-2.090949365699291,-0.24366905563175678,0.5641404881760478
1725629496166165800,1.085165771484375,-2.1998855412364007,0.01590367157459259,0.8623737854272127
1725629496176199700,1.09519970703125,-2.04386028226614,0.18238310454189777,0.8148574164927005
1725629496186233900,1.10523388671875,-1.3609054908782243,0.29927111586630345,0.9818290168911218
1725629496196267800,1.115267822265625,-0.4247042526960373,0.2744429640799761,1.0598992217823862
1725629496206301700,1.1253017578125,0.1992693574130535,-0.19943594615161417,0.8215203815132379
1725629496216336000,1.1353359375,0.5146341144680977,-0.051503392744064326,1.10629389321059
1725629496226369800,1.145369873046875,0.732583622431755,0.06074994451701641,1.0164496638953686
1725629496236403700,1.15540380859375,0.7385375624001026,-0.12075754623413085,0.660506812736392
1725629496246436900,1.165436767578125,0.45987318123281,-0.7857505644738674,0.229746328741312
1725629496256470800,1.175470703125,0.5147971960753203,-0.7811345951110125,0.4528878523901105
1725629496266504700,1.185504638671875,0.5116138898640871,-0.3558569264411926,0.9278592340335249
1725629496276539000,1.195538818359375,-0.08418751872777938,-0.012856558963656424,1.4829367103099822
1725629496286572800,1.20557275390625,-0.8126964390665292,0.6071925711780786,1.9096549331769346
1725629496296606700,1.215606689453125,-1.8353011184602974,1.0083879379928111,2.4288632236927747
1725629496306641200,1.22564111328125,-2.958750436872244,1.4400012394249437,2.7946505925178524
1725629496316675000,1.235675048828125,-4.137654516002535,1.6108441282987593,2.2629744500949975
1725629496326709000,1.245708984375,-5.374880435720086,1.6330226423591374,1.533275443188846
1725629496336743200,1.2557431640625,-5.699187793165445,2.003708304619789,1.5050406978294253
1725629496346777000,1.265777099609375,-5.2104269556224345,2.6641011355876922,2.146575975853205
1725629496356810000,1.27581005859375,-4.42980031003356,3.6776305281221866,3.0797745250880717
1725629496366844200,1.28584423828125,-4.254738342159986,3.962518313848972,2.5633120261490343
1725629496376878300,1.29587841796875,-3.928077115064859,3.788160694852471,1.3836281948179006
1725629496386912000,1.305912109375,-2.864130955979228,3.0845699426710604,1.5341642087221146
1725629496396946200,1.3159462890625,-0.9120318425655365,5.5407776848852635,-0.8398656010210513
1725629496406980000,1.32597998046875,-0.5965121872097253,5.3846863749414675,-0.7490308993637561
1725629496417014000,1.336013916015625,-1.7642261792838572,1.997313050624728,1.6147534106969832
1725629496427048200,1.346048095703125,-2.8000650187820195,1.1431681643605232,2.0025532893657685
1725629496437082000,1.35608203125,-3.096044107365608,2.1823922623828054,0.9310124373674392
1725629496447116000,1.366115966796875,-2.4791151550710198,3.609208149281144,-0.7775900543719529
1725629496457150200,1.376150146484375,-1.95529118745327,4.027232485821843,-1.8717904819458722
1725629496467183000,1.38618310546875,-1.415056767782569,3.50786228274256,-2.1676655256330966
1725629496477217300,1.39621728515625,-0.42989305351078505,2.925032583926618,-2.409182956188917
1725629496487251000,1.4062509765625,-0.2939215715318918,2.404380816604197,-1.4538777890861034
1725629496497285000,1.41628515625,0.35481881556510925,1.5969282695405185,-0.12545885579288005
1725629496507319300,1.4263193359375,1.4311743743687868,0.7699784103244542,0.2948106293261051
1725629496517353000,1.43635302734375,1.6575427511096,0.24332199575975536,0.07243512161374091
1725629496527387100,1.44638720703125,2.265965156343579,-0.07810600685700773,-1.0594891796767711
1725629496537421300,1.45642138671875,2.8613521389156578,-0.74797934448421,-2.50039525898695
1725629496547455000,1.466455078125,3.169977358582616,-1.6569700657881796,-3.894339680635929
1725629496557489200,1.4764892578125,2.572641580030322,-2.7090748343020676,-4.09999260160625
1725629496567522000,1.48652197265625,2.713622414603829,-3.91923505243957,-4.065333376157284
1725629496577556200,1.49655615234375,4.3511452909916635,-4.492395882417261,-4.3727614949941636
1725629496587590100,1.506590087890625,5.386643938750028,-5.373035100114345,-4.014083665913343
1725629496597624000,1.5166240234375,6.16058131583333,-6.078849373564124,-3.673873221415281
1725629496607658200,1.526658203125,7.241001055335998,-5.763519103300571,-3.2047301075339316
1725629496617692200,1.536692138671875,8.285554531687497,-5.373215717378258,-2.9429993255108595
1725629496627726000,1.54672607421875,8.676404445576667,-4.866427347974479,-3.065238050213456
1725629496637760300,1.55676025390625,9.26630276760459,-3.907420696005225,-3.3922084893882274
1725629496647794200,1.566794189453125,7.8899477786600585,-2.8106781827330587,-3.2135850296407935
1725629496657828000,1.576828125,4.30687652567625,-1.9173272213704884,-2.419320903843641
1725629496667862300,1.5868623046875,1.762945199562609,-1.0434715263336896,-0.9988882882416248
1725629496677895200,1.596895263671875,0.8323942422270775,-0.24247458515018222,-0.524018028885126
1725629496687929000,1.60692919921875,0.7203517712377011,-1.6944415721789001,-0.06210019008219242
1725629496697963300,1.61696337890625,2.266468575821072,-2.7607728728353975,1.9224901570916175
1725629496707997200,1.6269970703125,6.912953926840424,-5.743899626073241,3.2919372663438318
1725629496718031000,1.637031005859375,3.431204282736778,-14.971720395070314,4.269530837622285
1725629496728065300,1.647065185546875,-2.7814555953800677,-9.268505830606818,0.2556897482931614
1725629496738099200,1.65709912109375,-3.0818735431939364,-1.6611466208204626,-3.1085283258855343
1725629496748133000,1.667133056640625,-3.0415532232433558,1.447386381240189,-5.689456088224053
1725629496758167000,1.6771669921875,-2.7337884197980165,1.305114337812364,-3.854737153565883
1725629496768201200,1.687201171875,-3.506837908130884,-1.0392451408103107,-1.140367135465145
1725629496778235100,1.697235107421875,-4.797337737396359,0.47638577848598357,-0.6002835224419832
1725629496788268000,1.70726806640625,-4.578218016609549,4.600789913901687,1.7479513363093138
1725629496798302200,1.71730224609375,-3.108506698575616,4.504242387555539,4.6806695063024755
1725629496808336400,1.72733642578125,-2.1553099019289017,2.532804951943457,5.340045269182324
1725629496818370000,1.7373701171875,-1.1059048938930034,2.641443313577771,3.752028474241495
1725629496828404200,1.747404296875,0.09890811799764633,0.6683746235020458,-0.5955833819270133
1725629496838438100,1.757438232421875,0.9492577036321163,5.698349588775635,0.70959729911983
1725629496848472000,1.76747216796875,1.9673522121250628,5.858794417753815,2.9266391423404214
1725629496858506200,1.77750634765625,3.1753415159642695,3.2562609728068113,1.8220786487936973
1725629496868540200,1.7875400390625,3.157922763651609,-0.6083491938672959,-1.378953773266077
1725629496878574000,1.797573974609375,0.5156454104024917,-0.6532996578365564,-5.491575554820895
1725629496888607000,1.80760693359375,-1.7556220170676706,2.5321236916810275,-5.7933156911492345
1725629496898641200,1.81764111328125,-1.9143653028249739,2.082383781927824,-6.777164231169223
1725629496908675000,1.827675048828125,-1.4974796149253844,2.233207965123653,-6.3884484066992995
1725629496918709000,1.837708984375,-0.850655290582776,3.7688551058799025,-5.055372587510943
1725629496928743200,1.8477431640625,-0.18287286082021892,4.959481186985969,-3.261736773869395
1725629496938777000,1.857777099609375,0.5260557452578097,6.257560511595011,-0.702570176962018
1725629496948811000,1.86781103515625,1.4474538935184478,4.577953812715411,0.2776256857693195
1725629496958845200,1.87784521484375,2.3677244259886443,2.3252795150995254,-0.91795597191751
1725629496968879000,1.887879150390625,4.178444207030535,5.31605064561069,1.1722019511431454
1725629496978913000,1.8979130859375,5.804013610774279,7.360065826177596,4.310240449151396
1725629496988947200,1.907947265625,5.946936227065325,6.529678832119703,5.9407712746948
1725629496998980000,1.91797998046875,4.8924572767660015,5.634392372649907,5.813213985317945
1725629497009014000,1.928013916015625,3.075801529803872,5.4898763496875755,4.4891450639277695
1725629497019048200,1.938048095703125,1.635912518581748,4.912922849428654,3.777023214766383
1725629497029082000,1.94808203125,1.0353592392876743,4.828513796904683,3.3759780700773
1725629497039116000,1.958115966796875,0.8747524977460504,3.8872944382995365,2.8913457106411453
1725629497049150200,1.968150146484375,0.3345902665287256,2.5316069743305443,0.9449480237394571
1725629497059184000,1.97818408203125,-0.4427025584623217,0.5707113909989595,-1.3035434352338313
1725629497069218000,1.988218017578125,-1.197839081224799,-0.5642828192561865,-2.5670512126773595
1725629497079252200,1.998252197265625,-1.5298203342989085,-0.7923278970375657,-4.322920482504368
1725629497089286100,2.0082861328125,-2.999206950423121,-1.7928662905737756,-5.454080813685059
1725629497099320000,2.018320068359375,-3.9069609695389866,-2.844493358573317,-5.560733846721053
1725629497109353000,2.02835302734375,-5.03622481944859,-3.5884564531534906,-5.582542358425259
1725629497119387100,2.03838720703125,-5.300324084168672,-3.8714094714254137,-5.3729924300163985
1725629497129421300,2.04842138671875,-4.206783581808209,-3.6425291118636727,-4.843840545374155
1725629497139455000,2.058455078125,-1.9917975020736454,-2.2150226123526693,-3.244083043757081
1725629497149489200,2.0684892578125,0.7178577624648809,-1.055569083623588,-1.3130840015172958
1725629497159523300,2.0785234375,2.9752526588618755,-0.9036442457094788,0.2301262679696083
1725629497169557000,2.088556884765625,3.804591605171561,-1.2078829208552837,1.6196785921394825
1725629497179591200,2.098591064453125,4.49509374319911,-1.352864223241806,2.237982924440503
1725629497189625000,2.108625,4.870468440058827,-1.1874658635094761,1.765332679221034
1725629497199659000,2.118658935546875,4.921263976794481,-1.4652365107074379,0.7770014408290385
1725629497209693200,2.128693115234375,4.832989481014013,-2.0219956564605237,0.25563714132308957
1725629497219726000,2.13872607421875,4.204794453817605,-2.117621391786635,-0.34980361775159835
1725629497229760300,2.14876025390625,1.5451210715442896,-2.0617592193111776,-3.0391163514852524
1725629497239794200,2.158794189453125,0.6559861204415559,-1.0595654597833752,-3.524337908986211
1725629497249828000,2.168828125,0.4064642471283674,0.3694815471678972,-2.5793407854080197
1725629497259862300,2.1788623046875,-0.4084247335463762,0.11501885645166039,-2.567212540718913
1725629497269896000,2.18889599609375,-1.7361334727436304,0.14578238963633774,-1.6603566394865512
1725629497279930000,2.19893017578125,-1.9341361712217329,2.493114454329014,-0.12042904493212699
1725629497289964300,2.20896435546875,-2.8001374994963406,2.863647848637402,-0.10876315705776214
1725629497299998000,2.218998046875,-4.091639199280738,-0.7594754287496208,0.9098527449607848
1725629497310032100,2.2290322265625,-3.757397307798266,-0.9918415115352719,0.9761363582074641
1725629497320066300,2.23906640625,-0.855157278177142,3.1505151177436113,1.9666852726489303
1725629497330099200,2.24909912109375,1.9225673139810562,4.827575054749846,3.144521430286765
1725629497340133000,2.259133056640625,4.436481395232677,6.469018903973698,4.403341926696896
1725629497350167000,2.2691669921875,3.9498634149372576,5.017552267682552,8.582915430018305
1725629497360201200,2.279201171875,2.2919547531247138,3.7302383749768135,9.873314721518755
1725629497370235100,2.289235107421875,1.0866986736416817,1.6141792640708386,7.573611546224355
1725629497380269000,2.29926904296875,0.03739128076136112,-1.4836271767921745,5.863683358839154
1725629497390303200,2.30930322265625,0.5872209195122122,-1.2761223443448544,4.032687244096398
1725629497400337200,2.319337158203125,0.7016776120364665,-0.8146927274502813,2.0690122591793534
1725629497410371000,2.32937109375,-2.4058120184510945,-2.9251810524865984,0.7069125900804996
1725629497420405200,2.3394052734375,-2.9882752220422026,-2.693630012410879,3.96746395355761
1725629497430439200,2.349439208984375,-0.8441945701360702,0.09108326959088445,2.3832477199435234
1725629497440473000,2.35947314453125,-0.017567805394530296,1.7518576960980892,0.47478842629194257
1725629497450506200,2.36950634765625,-0.7722995467483997,-0.060893736901879304,-1.7065554960817098
1725629497460540200,2.3795400390625,-0.7699909775450825,-0.166603789999336,-2.5618916379570957
1725629497470574000,2.389573974609375,-0.5341571455836296,0.9633888125762343,-2.642963070490956
1725629497480608300,2.399608154296875,-0.44035424177050586,1.425128226072341,-2.3328309533923863
1725629497490642200,2.40964208984375,-0.13807283817231655,0.8148850351519882,-1.8155770118147134
1725629497500676000,2.419676025390625,0.0681441464215517,-0.14836378443166612,-3.4089217237800358
1725629497510710300,2.429710205078125,-0.4385410548686981,-1.1402259003635495,-5.356339985901117
1725629497520744200,2.439744140625,-0.9796242003232241,-1.2833563872516154,-5.978607376614213
1725629497530778000,2.449778076171875,-1.9471075887367129,-0.3867538036819547,-3.3468659573614596
1725629497540812300,2.459812255859375,-2.6545117617264387,0.2553623064370826,0.43304011936485765
1725629497550846200,2.46984619140625,-2.6206267355203625,0.014289550908841191,1.9091519520908593
1725629497560879000,2.479879150390625,-1.3107627189628779,0.2693612038362771,1.1219009199261665
1725629497570913000,2.4899130859375,0.19603943558111786,0.5993460954613983,0.7837900780558585
1725629497580947200,2.499947265625,1.4608528887957333,0.6266401989698409,0.1213999357908964
1725629497590981000,2.509981201171875,3.8595471841961144,0.4583119232654571,-0.4966992293268442
1725629497601015000,2.52001513671875,5.213546548947692,0.2875367110666819,0.06511398494541645
1725629497611049200,2.53004931640625,5.480858345973491,0.9504282817814499,0.6081558632522821
1725629497621083100,2.540083251953125,5.54249910185039,1.6047782523885368,1.194922316995263
1725629497631117000,2.550116943359375,5.52274927624166,1.8187912976860998,1.4776140539824962
1725629497641151200,2.560151123046875,4.920346861949563,1.3247273852989077,3.7256454942286013
1725629497651185200,2.57018505859375,5.069419233042002,2.0762705597445366,5.387930471429229
1725629497661219000,2.580218994140625,3.5517701057910918,0.7853891838155687,8.119759573853015
1725629497671252200,2.590252197265625,1.3582465008020401,-0.39420316983982917,8.68527514977455
1725629497681286100,2.6002861328125,2.06525144534111,3.529924769207835,6.365847867834567
1725629497691320000,2.610320068359375,2.2409417742460964,5.27444320845902,7.117746431589127
1725629497701354000,2.62035400390625,1.0618997479498387,5.790149336072802,9.773912682524323
1725629497711388200,2.63038818359375,-0.5676830561537295,6.40493367755413,11.732675345480441
1725629497721422000,2.640422119140625,-2.5211107147574423,6.358384692347049,11.171148546934127
1725629497731456000,2.6504560546875,-4.852003978085517,5.120693493205309,8.520922791963816
1725629497741490200,2.660490234375,-6.651267568480968,5.491383831641078,2.486083240517974
1725629497751524000,2.670524169921875,-5.5600587239384645,7.612353657072782,-4.874487028050423
1725629497761558000,2.68055810546875,-6.160832660245895,6.302381650096177,-13.506881651508808
1725629497771592200,2.69059228515625,-1.100737720388174,-0.6558470042318105,-31.238182494759556
1725629497781625000,2.700625,8.875527672517299,-10.88814642882347,-37.27201023881435
1725629497791659000,2.710658935546875,8.966824730989336,-14.992992315679787,-24.615776279103756
1725629497801693200,2.720693115234375,3.469913952620327,-6.66836600279808,-6.9581164261251685
1725629497811727000,2.73072705078125,5.153989029085636,1.2437272644355892,-2.6111452059477567
1725629497821761000,2.740760986328125,5.0607168711483475,4.2182977862522,-3.50512935064733
1725629497831795200,2.750795166015625,0.1889014003947377,4.102486171987652,-0.3475672370016575
1725629497841829000,2.7608291015625,-2.2573034187212584,3.3213696970552204,1.2500859858125448
1725629497851863000,2.770863037109375,-1.7980033612012862,2.9600395998999476,1.2267378434509038
1725629497861897200,2.780897216796875,-1.0405337193161248,1.991075033017993,1.9730337648928165
1725629497871931100,2.79093115234375,-0.29389409900307656,0.8826659012190997,2.559790281763673
1725629497881965000,2.800965087890625,-1.5768328453645108,0.26895883358046413,1.3882961866289376
1725629497891998000,2.810998046875,-2.60759598903358,-0.11416340866610407,0.20948329291343687
1725629497902032100,2.8210322265625,-2.6615400529280304,-0.4224295857623219,0.19182137949466704
1725629497912066300,2.83106640625,-2.3248817479535937,-0.521107840526849,0.3223474555492401
1725629497922100000,2.841099853515625,-1.845792409597337,-0.7240671384990215,0.5716337665408849
1725629497932134100,2.851134033203125,-1.3333818163976072,-0.697578506154567,1.225970950731635
1725629497942168300,2.861168212890625,-1.3034797223478556,-0.6238955764368176,1.4675257906883954
1725629497952202000,2.871201904296875,-1.8096201492369175,-0.702218440914899,1.2772522251576184
1725629497962236200,2.881236083984375,-1.4594149649471044,-0.5216550991460681,0.9209463859051465
1725629497972270300,2.891270263671875,-1.1604723503828047,-0.19417086523026228,0.5039221663177013
1725629497982304000,2.901303955078125,-0.49534284628182645,0.045768502353876826,-0.22594109123945236
1725629497992337200,2.911337158203125,2.2552216440111397,0.4713692654982209,0.6157137312859297
1725629498002371000,2.92137109375,2.687020823404193,0.9654078973136841,-0.27211715148091314
1725629498012405200,2.9314052734375,0.8290355794489384,0.7014050787054001,-3.9887247682511804
1725629498022439200,2.941439208984375,-1.5346531612828374,-1.0091145717669279,-2.216977545812726
1725629498032473000,2.95147314453125,-2.0304288460239768,-1.2199071937132626,2.4313924499094486
1725629498042507300,2.96150732421875,-1.2007158057048917,-1.276381141411513,5.037154209253192
1725629498052541200,2.971541259765625,0.05657207431048154,-1.0179655483510344,6.641879562410712
1725629498062575000,2.9815751953125,0.8605421860858797,-0.1503944134764373,7.062211591371893
1725629498072609300,2.991609375,0.3208803056061268,0.15293956791460514,5.557972565314174
1725629498082643000,3.001642822265625,-0.22314824565052985,0.5320481906056403,3.395106548917293
1725629498092677000,3.011677001953125,1.1171642467930913,1.1755660207487642,1.2184814717590808
1725629498102710300,3.021710205078125,3.034558542050421,1.6769038696616887,-0.7908639619648457
1725629498112744200,3.031744140625,1.4589873871847987,1.9302866561867296,-2.8867449388474222
1725629498122778000,3.041778076171875,-1.4824904278472064,1.548993529063463,-4.8188335298895835
1725629498132812300,3.051812255859375,-1.1503072224602102,-0.05403451865687966,-5.817749290660023
1725629498142846200,3.06184619140625,-0.06721358757317066,-1.9493512760102747,-5.0459144388139245
1725629498152880000,3.071880126953125,-0.34575638818740845,-1.8981747771330177,-2.088120279753208
1725629498162914000,3.0819140625,-0.8302667286790907,-0.7227997489117085,1.333188631913066
1725629498172948200,3.0919482421875,-0.5164180752754212,-0.2310046582393348,2.594594468641281
1725629498182982100,3.101982177734375,0.5910135897934436,-0.21892280997522173,2.4364292750328778
1725629498193016000,3.11201611328125,1.5140530024550853,-0.18844554638601838,1.4766864177435635
1725629498203050200,3.12205029296875,1.375287067452073,-0.3151616356983781,0.2705459566414356
1725629498213083100,3.132083251953125,1.0082876924887298,-0.2734980844452977,-0.5789513960778713
1725629498223117000,3.142116943359375,0.8159598247766494,-0.23834369589053092,-0.9188269095331429
1725629498233151200,3.152151123046875,0.7250432900547981,-0.3780137401264161,-1.0294114367991685
1725629498243185200,3.16218505859375,0.45820115636736153,-0.70902402927652,-0.8356640576779842
1725629498253219000,3.172218994140625,0.22962241010069845,-1.0453057560235262,-0.3251408856600523
1725629498263253200,3.182253173828125,0.5301283284589648,-1.181741859839484,-0.16755670680999754
1725629498273287200,3.192287109375,0.9162216954708099,-1.1235340010207147,-0.4214841216057539
1725629498283321000,3.202321044921875,0.9399380866229533,-1.1489222709078342,-0.7666869675636291
1725629498293355300,3.212355224609375,0.7723376868017018,-1.088112778223306,-0.86027126019001
1725629498303389200,3.22238916015625,1.0169161123633383,-0.8478124683722853,-0.9811667535901069
1725629498313423600,3.232423583984375,0.862001006592065,-0.7233957420434802,-1.1710475204110145
1725629498323456500,3.24245654296875,0.4664160270050168,-0.5945627701750025,-1.0981927120804786
1725629498333490700,3.25249072265625,0.21368162138611077,-0.42867089130468666,-0.8099509397506713
1725629498343524400,3.2625244140625,0.1263232175372541,-0.34538514372222123,-0.48222880542576313
1725629498353558500,3.27255859375,0.2746294265627861,-0.3061048708764836,-0.20234101994335651
1725629498363592700,3.2825927734375,0.49224604931026694,-0.36225638168733565,-0.01897007340788841
1725629498373626400,3.29262646484375,0.2957286209538579,-0.6520784454785287,-0.08236147234439849
1725629498383660500,3.30266064453125,-0.25011194816082716,-0.9463815636739135,0.020014029502868652
1725629498393694700,3.31269482421875,-0.5537231390580535,-1.1821379464849828,0.38993572165369983
1725629498403728400,3.322728271484375,-0.5485469054639339,-1.4268883676126598,0.7272475221008062
1725629498413762600,3.332762451171875,-0.49198155315518377,-1.7698130395054816,0.8335118480801582
1725629498423796700,3.342796630859375,-0.553992603649199,-1.8377097870372234,0.4660533311724662
1725629498433829600,3.35282958984375,-0.5185489498242736,-1.424271463112533,0.47392742554843426
1725629498443863600,3.362863525390625,-0.589140489397943,-1.487254573509097,-0.1491851838171482
1725629498453897500,3.3728974609375,-0.4690227023720741,-1.0275159053761511,0.028622867894172666
1725629498463931600,3.382931640625,-0.025621347990632055,-0.654977600986138,-0.043829789376258844
1725629498473965600,3.392965576171875,0.5506234194770455,0.1003702264394611,0.4608692065328359
1725629498483999500,3.40299951171875,0.6429343311667441,0.6176647192232311,0.6838420956164598
1725629498494033700,3.41303369140625,-0.017919103050231932,1.0511806394062935,0.6525970625251531
1725629498504067600,3.423067626953125,-0.5357818241760134,1.443286836966872,0.39207507176995277
1725629498514101500,3.4331015625,-0.8703370193913579,2.1013202453270554,0.39072541072666644
1725629498524135700,3.4431357421875,-0.6200831785418093,2.763459043179452,0.2945715598732233
1725629498534168600,3.45316845703125,-0.2741515799179673,3.0190058758705853,-0.33370939204096794
1725629498544202500,3.463202392578125,-0.16388444803804159,2.4336644864946604,-1.0207727877914905
1725629498554236700,3.473236572265625,-0.2144973216831684,1.6539385891377925,-1.2101134563863276
1725629498564270600,3.4832705078125,-0.3463404716856777,0.9145759740903973,-1.1240794330090285
1725629498574304500,3.493304443359375,-0.3375681132957339,0.30751134014092385,-0.7376783152222633
1725629498584338700,3.503338623046875,-0.21123817375674842,0.038738311456143856,-0.16987608966827392
1725629498594372600,3.51337255859375,-0.07288286538124084,-0.17692754254974424,0.19888123487830162
1725629498604406500,3.523406494140625,-0.09981076592579484,-0.5141846902001649,0.20699556775093078
1725629498614440400,3.5334404296875,-0.07312251935601234,-0.7755842675074934,0.2070768162935972
1725629498624474600,3.543474609375,-0.14901216533780098,-0.8682593363344668,0.2465396426320076
1725629498634508500,3.553508544921875,-0.45030835729092356,-0.7873078038532286,0.44653789884150025
1725629498644541400,3.56354150390625,-0.8262108774170279,-0.6401289914224296,0.9534311899244785
1725629498654575600,3.57357568359375,-0.6998150330349803,-0.4700287376094609,1.0413631558775902
1725629498664609800,3.58360986328125,-0.8280173423171043,-0.2457789604578167,1.0270189887046814
1725629498674643500,3.5936435546875,-0.8527673143006861,0.11335457650125026,1.2376964598387479
1725629498684677600,3.603677734375,-0.853725930199772,0.5864557803586125,1.496225230950117
1725629498694711600,3.613711669921875,-0.8810317241460084,0.7222191725447773,1.6694021157294512
1725629498704745500,3.623745361328125,-0.7888307025715708,1.1918875524092465,1.7076111426144838
1725629498714779600,3.633779541015625,-0.3450833112314343,1.5832944425940512,1.1317670649021863
1725629498724813600,3.6438134765625,0.8456696111246943,2.079541251978278,0.13353519474267958
1725629498734847500,3.653847412109375,1.4212448087677358,2.1194519682146606,-0.8650088101059198
1725629498744881700,3.663881591796875,1.9703662992492317,1.8506961098603902,-1.634239616933465
1725629498754914600,3.67391455078125,2.756752531278133,1.4376973463967442,-1.8950918625563382
1725629498764948500,3.683948486328125,2.781039415794611,1.187698064830154,-1.5387164651989935
1725629498774982400,3.693982421875,2.2714757364585996,1.0706700605131685,-0.9146844029009341
1725629498785016600,3.7040166015625,1.6868705524027348,0.8699972660429776,-0.3378203344911337
1725629498795050500,3.714050537109375,1.4473109779164195,0.7281102033447474,-0.007491817060112952
1725629498805084400,3.72408447265625,1.2270464710086584,0.5884321584654971,0.1269604925274849
1725629498815118600,3.73411865234375,0.9424936163246631,0.5505907958490773,0.08198679381310939
1725629498825152500,3.744152587890625,0.6599298896312713,0.5510153414040804,-0.15876666663289069
1725629498835186400,3.7541865234375,0.424706590783596,0.6506308770187199,-0.37740941755771634
1725629498845220600,3.764220703125,0.4217772593334317,0.6331530879952013,-0.4571761972337961
1725629498855253500,3.77425341796875,0.5763559727571904,0.35075755747556686,-0.5254910240471363
1725629498865287400,3.784287353515625,0.8551894268810749,0.14996712797507644,-0.6213590436965227
1725629498875321600,3.794321533203125,0.9655259707354008,-0.17797288688421248,-0.8154132968097925
1725629498885355500,3.80435546875,0.9274747647605835,-0.5073213072367012,-0.7817863370180129
1725629498895389400,3.814389404296875,0.6425543919384479,-0.48528373601697383,-0.6554957065761089
1725629498905423600,3.824423583984375,0.40695349195003505,0.05705138226002454,-0.4409709123641252
1725629498915457500,3.83445751953125,0.4629624524850398,0.7409681505478918,-0.14546353294551373
1725629498925491500,3.844491455078125,0.5385585223477334,0.9465804472468793,-0.1351204181075096
1725629498935525600,3.854525634765625,0.5295803391873837,0.9661858959488571,0.00043429976403713225
1725629498945559600,3.8645595703125,0.5015198544163256,0.8179343397200107,0.26329379355609417
1725629498955593500,3.874593505859375,0.22393614462520925,0.5046479963742196,0.6831219646483659
1725629498965626400,3.88462646484375,-0.09376896501090377,0.19192995443567631,1.377638599014282
1725629498975660500,3.89466064453125,-0.4522293884813785,0.17635113090127705,1.7409516866803167
1725629498985694700,3.90469482421875,-0.5144645665874704,0.33443858309835195,1.2756535577893255
1725629498995728400,3.914728271484375,-0.41096798828840253,0.40235988054946065,-0.340451267516613
1725629499005762600,3.924762451171875,-0.13738604321824385,0.48260099973902104,-1.4504174194991588
1725629499015796700,3.934796630859375,0.1987082163989544,0.35303397797495123,-1.4213205043524504
1725629499025830400,3.944830322265625,0.35076164912879465,0.16478621918335556,-1.012280269256234
1725629499035864600,3.954864501953125,0.14883154807388782,-0.0176002463594079,-0.9196130914747714
1725629499045898800,3.964898681640625,-0.21411909948792307,-0.18938816099837422,-0.7760977699875831
1725629499055932400,3.974932373046875,-0.4889250151287764,-0.3787840669117868,-0.42430794685482975
1725629499065966600,3.984966552734375,-0.5627488876871765,-0.5385153407931328,-0.08011164759099483
1725629499075999500,3.99499951171875,-0.7013251453369855,-0.5332132888622582,0.36754444162547584
1725629499086033700,4.00503369140625,-0.9241093799807131,-0.31567791465744377,0.925000045210123
1725629499096067600,4.015067626953125,-1.064098573168367,0.20645064721927045,0.9824836814075708
1725629499106101500,4.0251015625,-0.5368322100117803,0.41974443833157415,0.8839221848905086
1725629499116135700,4.0351357421875,-0.0863277456268668,0.3958411463052034,0.8678215294390916
1725629499126169300,4.04516943359375,0.11644961990714073,0.46348026581406593,0.6834995657891034
1725629499136203500,4.05520361328125,0.06726970167458057,0.8481528062425553,0.45986558244824405
1725629499146237700,4.06523779296875,0.014591419932246207,1.392937582693994,0.3304951061695814
1725629499156271400,4.075271240234375,0.19303747728615997,1.5176676858209073,0.03237374486029148
1725629499166305500,4.085305419921875,0.39641310097426175,1.43400769809857,0.07766951513588428
1725629499176338700,4.095338623046875,0.3728361182928085,1.3144161269038914,0.5589595784068108
1725629499186372600,4.10537255859375,0.34762101301550863,1.1035590614192188,1.145247893244028
1725629499196406500,4.115406494140625,0.4931462130203843,0.8337520865768193,1.463055951797962
1725629499206440400,4.1254404296875,0.6852747587680816,0.5960453003503382,1.386840727123618
1725629499216474600,4.135474609375,0.953230698916316,0.10907762983441352,0.7453677006810903
1725629499226508500,4.145508544921875,1.058724625045061,-0.16244506288468838,0.10574702410697936
1725629499236542500,4.15554248046875,0.8959159895449876,-0.16220307082235813,-0.29958909577429294
1725629499246576600,4.16557666015625,0.672217124274373,-0.1409409409545362,-0.6099667120665312
1725629499256610600,4.175610595703125,0.2680474178239703,-0.1717168952293694,-0.7951128515809774
1725629499266644500,4.18564453125,-0.13314941029548644,-0.1450008838698268,-0.599700169596076
1725629499276678700,4.1956787109375,-0.28144436727464195,-0.2720886560387909,-0.4888882633149624
1725629499286711600,4.205711669921875,0.13251958795934915,-0.24411738392114637,-0.8150245897531508
1725629499296745500,4.215745361328125,0.491582032443583,-0.08760784856528044,-1.2777706960737705
1725629499306779600,4.225779541015625,0.3722258774399757,-0.016269070820882914,-1.2870809607326983
1725629499316813000,4.23581298828125,-0.015275018282234668,0.02257686572819948,-0.6809604027003049
1725629499326846700,4.2458466796875,-0.05932663371562957,0.0913091142360121,-0.09355389748811721
1725629499336881000,4.255880859375,0.3886035962671041,0.1962930450160056,-0.05645546219348907
1725629499346915000,4.2659150390625,0.265729788531363,0.4371877405636012,-0.32743513407707214
1725629499356948700,4.27594873046875,0.13691636161357162,0.653161564540118,-0.6888561243861914
1725629499366983000,4.28598291015625,0.333511531381309,0.5994515285972506,-0.7799614596784115
1725629499377017000,4.29601708984375,0.5984986848518252,0.4077821978591382,-0.5211661465853452
1725629499387050800,4.30605078125,0.8456599665135145,0.284606849893555,-0.3458306224673986
1725629499397084000,4.316083984375,0.8993091391146183,0.132572560255602,-0.47780105211138724
1725629499407117800,4.326117919921875,0.7423708569526672,-0.13136523029245437,-0.796391200953722
1725629499417152000,4.336152099609375,0.2983946252927184,-0.194360688713938,-0.9340513666719198
1725629499427186000,4.34618603515625,-0.1047846088156104,-0.08297565871998668,-0.9219570242524147
1725629499437219800,4.3562197265625,-0.3913327289700508,-0.2728349260951392,-1.0453478415995836
1725629499447254000,4.36625390625,-0.11507818542346358,-0.5017013484630733,-1.316895668759942
1725629499457288000,4.376287841796875,0.03537409572005272,-0.43572314790375527,-1.4558616563796996
1725629499467321900,4.38632177734375,-0.05781885950118303,-0.7834500324465334,-1.5670213531851767
1725629499477356000,4.39635595703125,-0.16462211466282606,-0.4288798944128677,-1.0354863727986812
1725629499487390000,4.406389892578125,-0.5290811574935913,0.4676994909442961,-0.1411509304434061
1725629499497424000,4.416423828125,-0.8833328406952321,1.1254464105132966,0.4104992017328739
1725629499507457000,4.42645703125,-1.2463818705976009,1.690859329777956,0.6945791782081127
1725629499517491000,4.436490966796875,-1.2555457125231624,1.8775868932649493,0.5850234094679355
1725629499527524900,4.44652490234375,-0.6487538311004638,1.4405004211187362,0.12417173859179019
1725629499537559000,4.45655908203125,0.08308043426871299,1.111931972162798,-0.18281974239349363
1725629499547593000,4.466593017578125,0.5338184151485562,0.8865818325538187,-0.1940238579750061
1725629499557627000,4.476626953125,0.561400249557197,0.610423077531904,0.019443536138534546
1725629499567661000,4.4866611328125,0.3483342758513987,0.5790652317158878,0.41080899833440776
1725629499577695000,4.496695068359375,-0.3508585336320102,0.8553874336712062,0.8517161978125571
1725629499587729000,4.50672900390625,-0.6380024277225136,1.0875739951714873,1.1707768867760897
1725629499597762800,4.5167626953125,-0.3528682660192251,1.2092686761252582,1.138500172549486
1725629499607797000,4.526796875,0.11575067785754799,1.0449398453205823,0.6952040321081876
1725629499617830100,4.536830078125,0.18226561564207075,0.6357119786977767,0.12637363255023956
1725629499627863800,4.54686376953125,-0.00025075989067554474,0.16556027229577303,-0.30907822413146496
1725629499637898000,4.55689794921875,-0.26368805357068775,-0.0576208527110517,-0.1508370426774025
1725629499647932200,4.56693212890625,-0.4021373238399625,-0.20669410058632492,0.09570844517350197
1725629499657965800,4.5769658203125,-0.5885974685624241,-0.1788984772965312,0.040319735428690905
1725629499668000000,4.587,-0.642386341895163,-0.09310381563305854,-0.02772738035917282
1725629499678034000,4.597033935546875,-0.3659770461782813,-0.029631022023409604,0.24777473738491534
1725629499688067800,4.60706787109375,-0.2532984692424536,0.10791384675204753,0.8649643864423036
1725629499698102000,4.61710205078125,-0.14914339050203562,0.4197548135951161,1.3980723152339458
1725629499708136000,4.627135986328125,0.05878185931444168,0.6751669139906764,1.145757011809945
1725629499718169900,4.637169921875,0.16682283957749605,0.3936276349741965,0.02662497207522392
1725629499728202800,4.64720263671875,0.193664084751904,0.41723537812009454,-0.2178565689831972
1725629499738237000,4.65723681640625,0.24562077422142028,0.6383877007130533,0.07535013227760791
1725629499748271000,4.66727099609375,0.17960487200021744,0.5506434393517673,0.39099896697103975
1725629499758304800,4.6773046875,0.1162023671478033,0.5425367783289402,0.7582242596447467
1725629499768339000,4.6873388671875,-0.03766980544179678,0.7758768207132816,1.2195505622953176
1725629499778373000,4.697373046875,-0.2198439434081316,0.7471490311399102,1.508265797355771
1725629499788406800,4.70740673828125,-0.20396365270912645,0.7220863399453461,1.4449047935575245
1725629499798441000,4.71744091796875,-0.13515227455049753,0.7673200047701597,1.05083767118752
1725629499808475100,4.72747509765625,0.03584901975542307,0.6290785320326685,0.1218926877439022
1725629499818508800,4.7375087890625,0.20807897907346487,0.23285187527490778,-0.9147042766451835
1725629499828543000,4.74754296875,0.4109995524704456,0.22138772051772102,-1.6231681878209112
1725629499838575900,4.757575927734375,0.7815446372166276,0.11490832701558247,-2.2633342233181
1725629499848610000,4.767610107421875,1.246592298477888,-0.03364685180233791,-2.6403198625057933
1725629499858644000,4.77764404296875,1.5453852754384279,-0.14404402153640986,-2.7018168259978292
1725629499868678000,4.787677978515625,1.3312868899449706,-0.2816852998910472,-2.7524025193750856
1725629499878712000,4.797712158203125,0.9735895963340997,-0.6316337694734334,-2.7648072429180144
1725629499888746000,4.80774609375,0.34795243692696093,-0.814533518300578,-2.0629659647524354
1725629499898780000,4.81777978515625,-0.4170408784613013,-0.6684704850919544,-0.9383540323019027
1725629499908814000,4.82781396484375,-0.4247454614892602,-0.620136808425188,0.224492645996809
1725629499918848000,4.837847900390625,-0.4000149248585105,-0.5334115879133343,0.9049731562256812
1725629499928882000,4.8478818359375,-0.5089736044883728,-0.4350277860507369,1.0532283657163382
1725629499938915800,4.857915771484375,-0.4144949933707714,-0.30787111336402595,1.0183277327269316
1725629499948948700,4.86794873046875,-0.31972178322076794,0.09990655445046723,0.8815969568133354
1725629499958983000,4.87798291015625,-0.1943067665696144,0.47458837367519735,0.21502456042766568
1725629499969017000,4.88801708984375,-0.12345365345031022,0.6009660248134285,-0.5160860668420791
1725629499979050800,4.89805078125,-0.18998919563144445,0.7234341743577272,-0.7460685424268245
1725629499989085000,4.9080849609375,-0.21808920869529247,0.6825191033843905,-0.6898895590871572
1725629499999119000,4.918119140625,-1.0756374736621974,0.6964109967451543,-1.5635498776823282
1725629500009152800,4.92815283203125,-0.4513412074699998,0.6682630528863519,-1.886753657799959
1725629500019187000,4.93818701171875,0.5381435848712921,0.279003476928547,-0.8597615571022034
1725629500029220900,4.948220947265625,-0.025336101308465003,-0.19020064642503856,-0.22783611120581626
1725629500039254800,4.9582548828125,-0.732537152941525,-0.6927513782590627,0.17653320946991444
1725629500049289000,4.9682890625,-0.825337893974781,-1.068201916833967,0.8586644095152616
1725629500059321900,4.97832177734375,-1.0953536892622708,-1.4209015482880174,1.3453759133130312
1725629500069356000,4.98835595703125,-1.4425678750425577,-1.742077037448436,1.4667045374333858
1725629500079390000,4.998389892578125,-1.2721370741009712,-1.6521018752299248,1.3397048819392918
1725629500089424000,5.008423828125,-0.7653656558319926,-1.4442637191750107,1.3206956455647945
1725629500099458000,5.0184580078125,-0.4232075843974948,-1.288194328802079,1.2747206608533859
1725629500109491700,5.02849169921875,-0.017175298945605755,-1.2271718509539962,1.3522294324696063
1725629500119526000,5.03852587890625,0.33280425989478823,-1.212028057835996,1.574357687422633
1725629500129560000,5.04856005859375,0.46028760725259776,-1.2156554545529186,1.7542647572398185
1725629500139593700,5.05859375,0.6131351129695772,-1.1514607033442705,1.776988630223274
1725629500149628000,5.0686279296875,0.7498366627886891,-0.7894234808329492,1.6465724442839622
1725629500159662000,5.078662109375,0.6935287923723459,-0.0775002229835838,0.801976892131567
1725629500169695000,5.088695068359375,0.3253004601359367,0.11841419797837734,-0.043377953955531116
1725629500179729000,5.09872900390625,0.2657628140181303,-0.22489194751270114,-0.0947048210889101
1725629500189762800,5.1087626953125,0.11801350822299718,-0.5108718393251299,0.44151393319964405
1725629500199797000,5.118796875,-0.2686363236278295,-0.8121843978911638,0.8363906183868646
1725629500209831000,5.128830810546875,-0.5739560720086098,-1.0143464080058038,1.207030103418231
1725629500219864800,5.13886474609375,-0.7521037309378386,-1.2535273584380746,0.968941478267312
1725629500229899000,5.14889892578125,-0.6808075502261519,-1.1676522519495338,0.48874037927687164
1725629500239933000,5.158932861328125,-0.3630751872569322,-0.6434234298579394,-0.006548398730158805
1725629500249966800,5.168966796875,-0.2945405802130699,-0.08907426785603165,-0.472277320253849
1725629500260001000,5.1790009765625,-0.4046666961871087,0.27412502070460465,-0.7526286315947771
1725629500270035000,5.189034912109375,-0.8808749261491,0.3067592796646058,-0.6118354285478591
1725629500280068900,5.19906884765625,-1.1727689373761414,-0.08023406839426607,-0.2647217805325985
1725629500290102000,5.20910205078125,-0.8823976056717335,-0.7725435846373438,-0.045615503749251364
1725629500300136000,5.219135986328125,-0.2894090625435114,-0.9928352718129754,-0.12887012554109095
1725629500310169900,5.229169921875,0.2538482120797038,-0.8198870812229812,-0.789262956508994
1725629500320203800,5.239203857421875,0.3450459018304944,-0.7286508130274713,-1.0973556767344474
1725629500330238000,5.249238037109375,0.12414514284580945,-0.75237597200796,-1.1347370206236838
1725629500340271900,5.25927197265625,-0.04001256917566061,-0.8524690620064735,-0.8479232352703809
1725629500350305800,5.269305908203125,0.0048546004243195055,-0.8346605066586286,-0.35901392916738983
1725629500360340000,5.279340087890625,0.04373232035115361,-0.7728755200054496,-0.27552023792266844
1725629500370374000,5.289373779296875,0.03780512225925922,-0.8476537706792354,-0.17257541175484656
1725629500380407800,5.29940771484375,-0.020175795935839413,-1.112884742842987,-0.129888362672925
1725629500390442000,5.30944189453125,-0.08072188844382762,-1.3238757369056344,-0.15943886680603025
1725629500400475000,5.319474853515625,-0.2634654968611896,-1.455325649806857,-0.17058862185180187
1725629500410508800,5.3295087890625,0.04439341460838914,-1.4586534790553152,-0.13375497497320174
1725629500420543000,5.33954296875,0.33002646574452515,-1.3480737740948796,-0.02688157718479633
1725629500430577000,5.349576904296875,0.24317455011308192,-1.4050709419496357,-0.07158347322046757
1725629500440610800,5.35961083984375,0.2422165187358856,-1.5040559245757759,-0.07221241877377033
1725629500450645000,5.36964501953125,0.4478953047998249,-1.8569993016578257,-0.1025648869395256
1725629500460679000,5.379678955078125,0.38423034961894154,-2.057047680619359,-0.3973486282587051
1725629500470712800,5.389712890625,-0.22449922186806798,-1.9591179061345756,-0.4070797486782074
1725629500480747000,5.3997470703125,-0.8907784805260598,-2.008680540074408,-0.240516729080677
1725629500490781000,5.409781005859375,-1.079900099542737,-1.7909046351119875,0.14583762695491312
1725629500500814800,5.41981494140625,-0.9699275666952133,-1.444925397954136,0.4299649497032165
1725629500510847700,5.42984765625,-0.9754255795896053,-0.9591651304665952,0.3975584716171026
1725629500520882000,5.4398818359375,-0.9986819520145654,-0.3445592873573303,0.07522972076833248
1725629500530916000,5.449916015625,-1.06427013034299,0.4520706907883286,-0.4760469019204378
1725629500540949800,5.45994970703125,-1.035378236249089,0.8850140717804431,-1.1690116306692362
1725629500550984000,5.46998388671875,-1.0579594858914614,1.1661143748577683,-1.3714426669836044
1725629500561018000,5.48001806640625,-0.9662824151258915,1.1090891499523072,-1.092587731680274
1725629500571051800,5.4900517578125,-0.7313594874642789,0.8345937980979681,-0.6188800863623619
1725629500581086000,5.5000859375,-0.6104833563517779,0.6594789309933782,-0.03865910874009132
1725629500591120100,5.5101201171875,-0.41457858000099657,0.49488677307739853,0.37273031983077526
1725629500601153800,5.52015380859375,-0.08492233580835164,0.44384909814894197,0.6671937431544065
1725629500611188000,5.53018798828125,0.153245199797675,0.29089199457764625,0.9369581940293311
1725629500621222000,5.540221923828125,-0.015196400088071823,0.25618586124703285,1.087636246752739
1725629500631254800,5.5502548828125,-0.25401509307920933,0.19799553808495401,0.8930366347163915
1725629500641289000,5.5602890625,-0.08203932771794498,0.2185135715872049,0.7180494856446981
1725629500651323000,5.570322998046875,0.002629106394574046,0.10359159963876008,0.420402171587944
1725629500661356800,5.580356689453125,-0.18881518341600895,-0.2766292951431125,0.17975217151641845
1725629500671391000,5.590390869140625,-0.28011808710694314,-0.4046300905037671,0.2619599146038294
1725629500681425000,5.6004248046875,-0.43799861855506894,-0.3230029237832874,0.45645898887515063
1725629500691458800,5.610458740234375,-0.5860059176992625,-0.17266323616877197,0.5529582921653986
1725629500701492700,5.62049267578125,-0.6256282454483211,-0.05998056757971644,0.6498106466770172
1725629500711527000,5.63052685546875,-0.6244172622233629,0.13089417871460318,0.8771423154920339
1725629500721560800,5.640560791015625,-0.6179727622590959,0.3113859165519476,1.1127250953018664
1725629500731594800,5.6505947265625,-0.6220188958447426,0.41442689657062287,1.3250152623295783
1725629500741629000,5.66062890625,-0.7495330036669969,0.6526452125158161,1.61584120593369
1725629500751661800,5.670661865234375,-0.6903752967774868,0.9755632344946265,1.6774492285847662
1725629500761695700,5.68069580078125,-0.6860275498967617,1.4189767177052794,1.7799457264631986
1725629500771730000,5.69072998046875,-0.634984248945117,1.5696753748252987,1.4885422752320765
1725629500781763800,5.700763916015625,-0.26081359411291777,1.7042412277899681,0.789057789325714
1725629500791797800,5.7107978515625,0.2997825725197792,1.6182690176025032,-0.1651888086348772
1725629500801832000,5.72083203125,0.8605647632438689,1.149445564129576,-1.3275848205566405
1725629500811865900,5.730865966796875,1.4752017321437596,0.46459114966541526,-2.3579689017802474
1725629500821899800,5.740899658203125,2.0345447569102046,-0.4350197123421356,-2.74469209112823
1725629500831934000,5.750933837890625,2.3771949957758185,-1.2425161350801586,-2.4324966117590665
1725629500841967900,5.7609677734375,2.2754174598217007,-1.705278461883217,-1.825693332159519
1725629500852001800,5.771001708984375,1.6756401333361863,-1.815313830833882,-1.1867279046237469
1725629500862034700,5.78103466796875,0.7945791830956935,-1.5911434025287627,-0.6901169381022453
1725629500872068900,5.79106884765625,-0.0315806947864592,-1.1352062455706298,-0.25105916588306426
1725629500882103000,5.80110302734375,-0.4848461483173072,-0.7990335321560501,-0.08423252691328525
1725629500892136700,5.81113671875,-0.6602309184044599,-0.7178479717232287,-0.28453473450541494
1725629500902171000,5.8211708984375,-0.47248365648090834,-0.7207895781330764,-0.515015807262063
1725629500912205000,5.831205078125,-0.18492241376116872,-0.5874030711460858,-0.615726006245613
1725629500922238700,5.84123876953125,-0.2113034940779209,-0.39945962906330823,-0.5743710825502872
1725629500932273000,5.85127294921875,-0.40036578412279483,-0.13331439159885047,-0.4527765009701252
1725629500942307000,5.86130712890625,-0.5362159778095782,0.19925284466966986,-0.4084516215533018
1725629500952340700,5.8713408203125,-0.8284830601327121,0.505838959724456,-0.5326502481520176
1725629500962375000,5.881375,-0.6479359388463198,0.8949476559694856,-0.4132558069646358
1725629500972409000,5.8914091796875,-0.32274069265052674,1.0027813501574099,-0.22223171532750127
1725629500982442000,5.90144189453125,-0.27848449455574154,0.7811815029926598,-0.09754384390711784
1725629500992476000,5.911475830078125,-0.3499100007355213,0.5436532882034778,-0.1797755523920059
1725629501002509800,5.921509765625,-0.37986689371243115,0.1870819298826158,-0.44079789388477797
1725629501012544000,5.9315439453125,-0.22905980778187512,-0.34664230417646463,-0.6644733782798051
1725629501022578000,5.941577880859375,-0.5842265600018203,-0.626401421777904,-0.9610399113625288
1725629501032611800,5.95161181640625,-0.8793084074847399,-0.5549769385114312,-1.0446610283792017
1725629501042646000,5.96164599609375,-0.36181904971599577,-0.5571909612990915,-0.3103448830664158
1725629501052679700,5.9716796875,0.0010638298392295837,-0.7396180511131882,0.48491000733375544
1725629501062713900,5.9817138671875,-0.09836451264023781,-1.0346719876758754,0.9144207835286855
1725629501072748000,5.991748046875,-0.3038184039071202,-1.266063014884293,1.1938900513380766
1725629501082781700,6.00178173828125,-0.3991955712996423,-1.3294832015238702,1.2696347358912228
1725629501092816000,6.01181591796875,-0.35442660137712956,-1.02406992964074,1.6035627391189335
1725629501102849000,6.02184912109375,-0.646780192939937,-0.36940833580121396,1.6966636321425437
1725629501112883000,6.031883056640625,-0.6867606134116649,0.3349772200196981,1.6208569882690906
1725629501122916900,6.041916748046875,-0.28950667769908905,0.49949704335182904,1.488084594592452
1725629501132950800,6.05195068359375,0.13542320044636724,0.4117603077098727,1.0803881753206253
1725629501142985000,6.06198486328125,0.4996206697314977,0.39188860928714275,0.41403555916547774
1725629501153019000,6.072018798828125,0.4411792944177985,0.8065294408693909,0.17123451853990554
1725629501163052800,6.082052734375,0.15907880132198332,0.9381748763427138,0.4735796350240707
1725629501173087000,6.0920869140625,0.29028263050764797,0.7120518526650965,0.7365408356249332
1725629501183121000,6.102120849609375,0.45540334234237667,0.46683381402567026,0.6673334438860417
1725629501193154800,6.11215478515625,0.549274050694704,0.41457178493402896,0.4402881907969713
1725629501203189000,6.12218896484375,0.4492266995340585,0.39348186982795597,0.1540776320338249
1725629501213222000,6.132221923828125,0.030178572903573512,0.27307781320661306,-0.3002501900315285
1725629501223255800,6.142255859375,-0.40901626969873905,0.3294915551502257,-0.5589052178710698
1725629501233290000,6.1522900390625,-0.6271726984113455,0.4946943923104554,-0.41046646850705143
1725629501243324000,6.162323974609375,-0.8703490020900965,0.5836836122315376,-0.11089023221433163
1725629501253357800,6.17235791015625,-1.166833409847319,0.4673139987580478,0.046718496555089944
1725629501263392000,6.18239208984375,-1.2629808309599757,0.12737206900306045,0.04792202712595463
1725629501273426000,6.192426025390625,-1.0074851439341903,-0.4817829613544047,-0.12668868984878062
1725629501283459800,6.2024599609375,-0.4180047550573945,-0.836319379781559,-0.23198037140369415
1725629501293494000,6.212493896484375,-0.05021978267431259,-0.8660591228764504,-0.12396774045228957
1725629501303528000,6.22252783203125,0.034788404786586756,-0.8210727108109742,0.1391021812200546
1725629501313562000,6.23256201171875,0.032056641735136504,-0.8302789305735379,0.26476678871810433
1725629501323596300,6.24259619140625,0.01232610534876585,-0.8296206127952784,0.21604162851572034
1725629501333629200,6.252629150390625,0.10163754296153783,-0.5183204017654061,0.1710100621342659
1725629501343663000,6.2626630859375,0.1116381279721856,-0.18218761850241572,-0.08827449578046798
1725629501353697000,6.272697021484375,-0.03888210384100675,0.0174031163521111,-0.3697048345297575
1725629501363731200,6.282731201171875,-0.0646356999091804,0.22025796756912022,-0.6896715324223042
1725629501373765000,6.29276513671875,0.02783493238687515,0.3084132574167102,-1.003794764983654
1725629501383799000,6.302799072265625,0.015301614028215407,0.22602613917440176,-1.1425193450629711
1725629501393833200,6.312833251953125,0.1224557284541428,0.029613340236246583,-1.0592647232711314
1725629501403867100,6.3228671875,0.11037176129817962,0.057731510011292994,-0.8864964192926883
1725629501413901000,6.332901123046875,0.03971563205569982,0.11589028725763782,-0.7880576723724603
1725629501423935200,6.342935302734375,-0.0424117392718792,0.10404088690937496,-0.7622825951248406
1725629501433969200,6.35296923828125,-0.1768253242842853,-0.16009155856110155,-0.8940040184438228
1725629501444003000,6.363003173828125,-0.23956322774812577,-0.4534430385874584,-0.9634007952749729
1725629501454036200,6.3730361328125,-0.3795452605426311,-0.8886943677283823,-0.8476952717334032
1725629501464070100,6.383070068359375,-0.421610670594871,-1.2365695016354321,-0.6023381168842316
1725629501474104000,6.39310400390625,-0.4116153462812304,-1.2547716594107448,-0.230343125590682
1725629501484138200,6.40313818359375,-0.21984218984246254,-1.1149747739247977,0.14751695834398268
1725629501494172200,6.413172119140625,-0.032550854992866515,-0.950912485101819,0.46742286596000193
1725629501504206000,6.4232060546875,0.0407908600717783,-0.6826805044911801,0.6671691932350396
1725629501514240000,6.433239990234375,-0.14776713371276853,0.00027202187441289425,0.887914469397068
1725629501524274200,6.443274169921875,-0.5375333440184593,0.7096743098787963,1.0283166272997855
1725629501534308000,6.45330810546875,-0.49106926061585543,1.1314981848329304,1.0806880350500345
1725629501544342000,6.463342041015625,-0.18555881196856497,1.5169906633421777,1.1155997739553452
1725629501554376200,6.473376220703125,-0.027772973066568372,1.426263513712585,0.8562620245486497
1725629501564410000,6.48341015625,0.15109773944020272,0.9619350335713476,0.3944833019554615
1725629501574443000,6.493443115234375,0.4005428942553699,0.3757666918519884,0.1681423977434635
1725629501584477200,6.503477294921875,0.6298049466110766,-0.1247489539578557,0.03513561078906059
1725629501594511000,6.513510986328125,0.4925884330071509,-0.4234590018752962,-0.049855625537037845
1725629501604545000,6.523544921875,-0.08896540065407753,-0.4630536378998309,-0.06614274347126484
1725629501614579200,6.5335791015625,-0.748175159317255,-0.24789602567702532,0.11799626482725142
1725629501624613000,6.543613037109375,-1.2535294042646885,-0.02843333667144179,0.3436620462566614
1725629501634647000,6.55364697265625,-1.3247257778637112,0.07138232462517917,0.29648586906194685
1725629501644681200,6.56368115234375,-0.900800692846626,0.5775619875460862,0.11458265699148178
1725629501654715100,6.573715087890625,-0.751313018951565,0.6965649451978504,-0.39575697515308855
1725629501664749000,6.5837490234375,-0.9088952981054782,0.6194707457318902,-0.6569365530341863
1725629501674783200,6.593783203125,-0.7977519679129124,0.6556724513825029,-0.22500001099705694
1725629501684817200,6.603817138671875,-0.6723771371416747,0.5252117687143385,0.2369441312909126
1725629501694850300,6.613850341796875,-0.7235650341957807,0.31677506224438545,-0.0046808512926101685
1725629501704884000,6.623884033203125,-0.5876527350582182,0.12544606937654315,-0.3357020271629095
1725629501714918100,6.633918212890625,-0.6074953535169363,0.1414730020046234,-0.18505086244642732
1725629501724952300,6.643952392578125,-0.7566967578165232,0.20042415347136555,-0.191653621712327
1725629501734986000,6.653986083984375,-0.6257696997456252,0.31464499141313135,0.25108546936810017
1725629501745020200,6.664020263671875,-0.49331703954264516,0.21808643221631646,0.39457740997970103
1725629501755054300,6.674054443359375,0.10579670846760272,-0.1853686231587082,0.04155366113781929
1725629501765088000,6.684087890625,0.6791273420542479,0.1205412000697106,0.5379413402974605
1725629501775122200,6.6941220703125,0.6243810218662024,0.6327276291247457,1.155952827131748
1725629501785156400,6.70415625,0.16009645393192767,0.9081081663157791,1.0258218878746033
1725629501795190000,6.71418994140625,-0.42749008402228356,0.9319967722296715,1.1743091525554656
1725629501805224200,6.72422412109375,-0.7033972754359245,0.7427092951267957,1.5381401266157626
1725629501815257000,6.734257080078125,-0.6746360219843686,0.7045840010024607,1.8832967953443527
1725629501825291300,6.744291259765625,-0.4680377829879522,0.5619849541099742,1.8573972149342297
1725629501835325200,6.7543251953125,-0.16891162855029104,0.8202961004152893,1.7531442287772894
1725629501845359000,6.764359130859375,0.12466507506668567,1.3169196341574192,1.4741151059508322
1725629501855393300,6.774393310546875,0.25752631607055665,1.6207969286449253,0.7678098341137171
1725629501865427200,6.78442724609375,0.5260831447213888,1.3909041771702468,-0.7488023513048887
1725629501875461000,6.794461181640625,1.1617816794157028,0.6386429906483739,-2.546613404804468
1725629501885495300,6.804495361328125,1.8214473651528358,-0.274109202080965,-3.600475976771116
1725629501895529000,6.814529052734375,2.038499339754879,-1.1633081583306193,-3.420124670317769
1725629501905563100,6.824563232421875,1.8990724566251038,-1.7283846121825277,-2.779534271928668
1725629501915597300,6.834597412109375,1.4161539153695106,-1.7254671173006295,-1.9904846659094093
1725629501925631000,6.844630859375,0.4668760457322001,-1.087670587413758,-0.7564163334399461
1725629501935664000,6.8546640625,-0.4394306971848011,-0.5595250302698462,0.430488096794486
1725629501945698300,6.8646982421875,-0.9895379838332533,-0.49799927907474334,0.7819991029858588
1725629501955732200,6.874732177734375,-1.1199112074136732,-0.5871064262870699,0.5452238985210657
1725629501965766100,6.88476611328125,-0.9406915353387594,-0.710481388477981,0.02923895396590233
1725629501975800000,6.894800048828125,-1.023189639674872,-0.7217467327274382,-0.516138673812151
1725629501985834200,6.904834228515625,-1.1929688448399305,-0.4311022831700742,-0.9795967277944088
1725629501995868200,6.9148681640625,-1.4064197262100875,-0.05431903468668461,-1.4953385112434625
1725629502005902000,6.924902099609375,-1.3769633301012216,0.3463732049115002,-1.829904812374711
1725629502015936300,6.934936279296875,-1.3700573501050473,0.5373242313124239,-2.0042109934449193
1725629502025970200,6.94497021484375,-1.4352104980170726,0.5346240324430167,-2.094786167383194
1725629502036004000,6.955004150390625,-1.6123064559362827,1.1304646040014923,-2.2923697636663913
1725629502046038300,6.965038330078125,-1.3646540297567844,2.3029412804327904,-2.4176918413370845
1725629502056071200,6.9750712890625,-0.16567907636985182,2.2670174418754874,-2.149906581580639
1725629502066105000,6.98510498046875,0.2699649418830871,1.8628553342096505,-2.4018010292440652
1725629502076139300,6.99513916015625,0.4803833236895501,1.4243455512620509,-2.3019167596906422
1725629502086173200,7.005173095703125,0.9977186599403619,0.4355200996123254,-1.7354168489068746
1725629502096207000,7.01520703125,2.028889507627487,-0.522052574031055,-0.16023147848844527
1725629502106241300,7.0252412109375,1.549379898032546,-1.3592252827063203,0.6441396153032779
1725629502116275200,7.035275146484375,-1.8017893094807862,-2.405043079905212,0.15102175159454345
1725629502126309000,7.04530908203125,-2.9858026944488287,-2.848732895839214,0.0795505065768957
1725629502136343300,7.05534326171875,-1.0774531447820366,-2.8691917465001344,1.194105739915371
1725629502146377000,7.065376953125,1.9793740738302468,-2.112951792540401,2.858975472912192
1725629502156411100,7.0754111328125,3.560962881550193,-1.3624668949760497,3.8980923111677166
1725629502166445300,7.0854453125,2.9232898319125176,-0.5561193865448236,4.076089747971296
1725629502176478200,7.095478271484375,2.3522347420424223,0.2239586852505803,3.3938702851206064
1725629502186512100,7.10551220703125,2.1076652304396033,0.5094061506867409,1.7660814517617225
1725629502196546000,7.115546142578125,1.5998592084258794,0.7300874217018485,0.8485930973559618
1725629502206580200,7.125580322265625,1.3301257372111082,0.7725786559507251,0.9944126041322946
1725629502216614100,7.1356142578125,1.103600416342914,0.5067343011289834,1.232399522474408
1725629502226648000,7.14564794921875,1.2679416682377458,-0.12859203925207258,1.0185159487754105
1725629502236682200,7.15568212890625,1.1265633587792514,-0.5187256215654313,1.6297043115913867
1725629502246716200,7.165716064453125,1.1251903168603776,-0.6132583009578287,2.1820985401332376
1725629502256750000,7.17575,0.9220198603555559,-0.24687574271857737,2.4235890826821325
1725629502266784300,7.1857841796875,0.5359463670879602,0.3554701190806925,2.3376368923693893
1725629502276818000,7.19581787109375,0.27934418012499806,0.7223039282187819,2.13311969743073
1725629502286852000,7.20585205078125,0.30940292604118586,0.858605957326293,1.710036908456683
1725629502296886300,7.21588623046875,0.4558735902026295,0.7277126553945243,1.1994821722567082
1725629502306919200,7.225919189453125,0.5704208836197853,0.4058228804849088,0.6037181730657816
1725629502316953300,7.235953369140625,0.5690148162141442,0.04472366947606206,0.26344167759418485
1725629502326987500,7.245987548828125,0.35329175212830305,-0.1089127946615219,0.4438561124116182
1725629502337021400,7.256021484375,0.06791150670945643,-0.13150368891507386,0.841617413124442
1725629502347055400,7.266055419921875,0.014467209030687808,-0.09221563462167978,1.2618868982434273
1725629502357089300,7.27608935546875,0.4082341794103384,0.16380846019238232,1.6571815165817736
1725629502367123500,7.28612353515625,0.8273287755310534,0.46692448798380787,1.9452344883412123
1725629502377157400,7.296157470703125,0.9876841726601123,0.6125440152086317,2.266606961378455
1725629502387191300,7.30619140625,1.0201190000578761,0.5927130871877074,2.3593057033419607
1725629502397225500,7.3162255859375,1.064431896775961,0.4338897219315171,2.2934978909134864
1725629502407259400,7.32625927734375,1.7253493361398577,0.13429459827523677,-0.4277180475592613
1725629502417293300,7.336293212890625,2.6045781025171277,-0.09715849785134195,-8.68197318561971
1725629502427326500,7.346326416015625,0.07086334225237369,0.5540343969643116,-7.59559073832035
1725629502437360400,7.3563603515625,-0.6000242869839072,0.9476327327787876,-3.7261429223567246
1725629502447394300,7.366394287109375,-0.958077846686542,0.609068338454701,-1.6599965740025042
1725629502457428500,7.376428466796875,-1.3448404912620782,0.36301746572032567,-0.6425649133324622
1725629502467462400,7.38646240234375,-1.22834878577888,0.5326126560879871,-1.0153326425641775
1725629502477496300,7.396496337890625,-1.0416326204687356,0.004180390957184136,-1.5660364338010548
1725629502487530500,7.406530517578125,-0.7055804646939039,-0.6042453752776608,-1.6538205157160757
1725629502497564400,7.416564453125,-0.3565934240221977,-1.0668811165589838,-1.5367787751346826
1725629502507598300,7.426598388671875,-0.18723083683401345,-1.6108528961271047,-1.0951952838301657
1725629502517632500,7.436632568359375,-0.23154490259587762,-1.9973525058522819,0.07540566185712815
1725629502527666400,7.44666650390625,-0.3449751746818423,-2.1045674105547367,0.36809447672367096
1725629502537700400,7.456700439453125,-0.788882725019753,-1.997993287973851,0.28385376650393007
1725629502547733200,7.466733154296875,-0.9906941681310534,-1.7962940730653703,-0.25969430775940416
1725629502557767400,7.476767333984375,-0.9090605716697872,-1.6687071192026137,-1.2514362313777208
1725629502567801600,7.486801513671875,-1.207675415584445,-1.8486987985633312,-1.8943419209718704
1725629502577835300,7.496835205078125,-1.7399670595571397,-2.0015974499456584,-1.8543582856297491
1725629502587869400,7.506869384765625,-1.8039470720365642,-2.1994439349487425,-1.2294108620524407
1725629502597903600,7.516903564453125,-1.1091939985662698,-1.928210142173618,-0.06226327168941497
1725629502607937300,7.526937255859375,-0.13531097224354743,-1.793150952734053,0.7885819885075092
1725629502617971500,7.536971435546875,0.5509443219944834,-1.461069746416807,0.9441156645685433
1725629502628005600,7.547005615234375,0.5527367583692073,-1.0891082920666784,0.8985761486649513
1725629502638039300,7.557039306640625,0.33800270532071586,-0.9576867284771055,0.3597252923071384
1725629502648073500,7.567073486328125,-0.08093143954128026,-0.7704116141099482,-0.40067514233291146
1725629502658107400,7.577107421875,-0.6111977151662111,-1.1033730373278259,-1.0547259107977152
1725629502668140300,7.587140380859375,-0.7974602914899587,-1.578129022654891,-1.743372191825509
1725629502678174500,7.597174560546875,-0.9694967740625142,-1.7321217528842388,-1.5286568434774874
1725629502688208400,7.60720849609375,-1.0559919852107762,-1.5748169754974544,-0.3812380359351635
1725629502698242300,7.6172421875,-0.929207433772087,-1.3878427437730132,1.0054419476687908
1725629502708276500,7.6272763671875,-0.8808531527087092,-1.2129638773813842,2.4015882632762193
1725629502718310400,7.637310302734375,-1.0474813464969397,-0.8269950135320424,3.32241423767209
1725629502728344300,7.64734423828125,-1.795374181741476,-0.7302044722102582,3.230625596290827
1725629502738378200,7.657378173828125,-2.30883983695209,-1.0314711458079515,2.2057851206690073
1725629502748412400,7.667412353515625,-1.910592214027047,-1.5036398911207913,1.0855495036065579
1725629502758446300,7.6774462890625,-0.7868044574409723,-1.665426928488165,0.03477671434879303
1725629502768480300,7.687480224609375,0.0879559313505888,-1.4891824728317558,-2.8987124400168653
1725629502778514400,7.697514404296875,0.16675678860396145,-0.2258691950470209,-3.244209885007143
1725629502788547300,7.70754736328125,0.39867052451223134,0.6411492013156413,-1.3172808686852455
1725629502798581200,7.717581298828125,0.4159925384521484,0.8227540149614214,-0.046453123617172236
1725629502808615400,7.727615478515625,0.5115455008029938,0.7883382428795099,0.22743688275516033
1725629502818649300,7.7376494140625,0.4528565804690122,0.6480794389702379,0.09962240374684334
1725629502828683300,7.747683349609375,0.29579905584156513,0.5333617574222386,-0.14162030152082442
1725629502838717400,7.757717529296875,-0.003827449333667755,0.38106297162920233,-0.40758594463467596
1725629502848751400,7.76775146484375,-0.23184593136906623,0.28819691027477384,-0.0933148280352354
1725629502858785300,7.777785400390625,-0.3296200769007206,0.08435308455303311,0.28137071751654147
1725629502868819500,7.7878193359375,-0.3991670758575201,-0.23438655576258896,0.1756236934095621
1725629502878853400,7.797853271484375,-0.3584241465806961,-0.484388613808155,-0.029783728367090225
1725629502888887300,7.80788720703125,-0.1561784037053585,-0.388870065183565,-0.04632745141088962
1725629502898921500,7.81792138671875,0.06693944680690765,-0.278509263670817,0.10627484737336634
1725629502908955400,7.827955322265625,0.21935586763024328,-0.48040575471706687,0.07403729611337184
1725629502918989300,7.8379892578125,0.4519026407450437,-0.4543406084816903,-0.04103928187489509
1725629502929022200,7.848022216796875,0.5083592719823121,-0.3135094115119427,-0.09593523966670035
1725629502939056400,7.858056396484375,0.37488311395049095,-0.21206249575167893,-0.06785948426127433
1725629502949090600,7.868090576171875,0.3741010236620903,-0.24419662316981702,-0.06859364375472068
1725629502959124200,7.878124267578125,0.8948667727530002,-0.3775813400585204,-0.31861995945870875
1725629502969158400,7.888158447265625,1.0651461825251578,-0.26039198943367226,-0.7236059507280588
1725629502979192600,7.898192626953125,0.6592781477242707,0.74399517021887,-0.7544967635542154
1725629502989226200,7.908226318359375,0.10765490355491637,1.3348929516129195,-0.7803326310783624
1725629502999260400,7.918260498046875,-0.4056190284758806,1.1985624270632862,-0.853325971096754
1725629503009294600,7.928294677734375,-0.734053110462427,0.9399532841920852,-0.7451619489759206
1725629503019328300,7.938328369140625,-0.6854226428061724,0.7984735601857305,-0.47107554324865336
1725629503029362400,7.948362548828125,-0.5010930803716183,0.5139443055730313,-0.3610749533504247
1725629503039395300,7.958395263671875,-0.4220271424412727,0.3622418051727116,-0.3339724268913269
1725629503049429500,7.968429443359375,-0.21726035665571689,0.2905999528285116,-0.17692600817978382
1725629503059463400,7.97846337890625,-0.003643909460306167,0.11414046618193387,-0.3405243327528238
1725629503069497300,7.988497314453125,0.1552799935609102,0.1786089562980458,-0.5184831911116838
1725629503079531500,7.998531494140625,0.42217268839180466,0.19775354602262377,-0.07695522938668728
1725629503089565200,8.008565185546875,0.44194238774478434,0.11874006893187761,0.6202385152339935
1725629503099599400,8.018599365234374,0.4994353762924671,0.06454422223344444,1.1472744306355713
1725629503109633500,8.028633544921876,0.4291699999332428,-0.10621931779384612,1.1038649124979971
1725629503119667200,8.038667236328125,0.10834171677529811,-0.3679099139370024,0.5555734430998563
1725629503129701400,8.048701416015625,-0.19156418986320495,-0.5181939989067614,0.47149873709678647
1725629503139735600,8.058735595703125,-0.3953811275780201,-0.6584085252828895,0.5742559317380189
1725629503149769200,8.068769287109374,-0.34741643035411834,-0.41534342689365145,0.23215923510193823
1725629503159803400,8.078803466796876,-0.4707259991586208,-0.005595481919497251,-0.3081529259800911
1725629503169836300,8.088836181640625,-0.7785305500924586,0.0929240020867437,-1.0534241805493831
1725629503179870500,8.098870361328125,-0.823823397758603,-0.002305281267687678,-1.2655477588385342
1725629503189904400,8.108904296875,-0.6974415819019079,-0.17260566076263784,-0.2502308983653784
1725629503199938300,8.118938232421876,-0.4904465986728668,-0.21525449672602115,0.7375596572786569
1725629503209972500,8.128972412109375,-0.28096915097832675,0.15009557666033504,1.5309201122343539
1725629503220006400,8.13900634765625,-0.24189210908710956,0.39460868190079923,1.4516203655481337
1725629503230040300,8.149040283203124,-0.2829506801843643,0.6571138092972337,0.9445540559858083
1725629503240074500,8.159074462890626,-0.09445347667634486,0.9053248922728001,0.43401568639874455
1725629503250108400,8.1691083984375,-0.0340197585016489,1.2343413041919469,-0.05797171197533607
1725629503260142300,8.179142333984375,0.09324877706170082,1.2603580812409518,-0.19142273556590078
1725629503270176500,8.189176513671875,0.3785001354038715,1.2008416240416466,0.15120762955546377
1725629503280210400,8.19921044921875,0.5167138433516025,1.188324964556843,0.6495838521838188
1725629503290243300,8.209243408203125,0.2699579276204109,1.2876274886995553,0.9767711489796638
1725629503300277500,8.219277587890625,0.6539192510396242,1.262382718936354,1.1368208411604166
1725629503310311400,8.2293115234375,1.0184364537984132,1.2772550016365944,0.865638924703002
1725629503320345000,8.239344970703126,1.1766519162893294,1.0558072762936352,0.3745534436047077
1725629503330379000,8.24937890625,1.097975854459405,0.7656383352935314,0.19258301151692866
1725629503340413200,8.2594130859375,0.9309539851784706,0.7817102030418813,0.045936406266689295
1725629503350447000,8.269447021484375,0.7946200996279716,0.7444662217967212,-0.09285422478616237
1725629503360481000,8.27948095703125,0.7350409524559974,0.4080601380176842,0.16302607764303684
1725629503370515200,8.28951513671875,0.6718301707834005,0.144293612383306,0.6097890174120664
1725629503380548900,8.299548828125,0.46687224633991714,0.33806130364015696,0.8267968606114388
1725629503390583000,8.3095830078125,-0.07428279530704021,0.582620439979434,0.28128303923308845
1725629503400617200,8.3196171875,-0.5989712707996369,0.6466060054168105,-0.17222469862103462
1725629503410650000,8.329650146484376,-0.8690086933970451,0.6783705323375762,-0.30240590676069257
1725629503420684000,8.33968408203125,-0.8620949684858321,0.7095642736330628,-0.1278226623147726
1725629503430718000,8.349718017578125,-0.8567921859025954,0.711015056963265,-0.11760755777060986
1725629503440752000,8.359752197265625,-0.8480430622577667,0.6208845580525696,-0.15534546001255511
1725629503450786000,8.3697861328125,-0.6757803697139024,0.5102819106079638,0.15022037208378314
1725629503460820000,8.379820068359376,-0.5546422997295856,0.4576852427344769,0.4220318186163902
1725629503470854100,8.389854248046875,-0.39480303542912004,0.4522536461398005,0.5199865814119577
1725629503480888000,8.39988818359375,-0.10755202770233153,0.43872737122103567,0.7171569207191467
1725629503490922000,8.409921875,-0.02055880390405655,0.49583691340908403,0.4865162734866142
1725629503500956200,8.4199560546875,0.13564707233011722,0.5451268678873777,-0.06600888795852661
1725629503510990000,8.429989990234375,0.2933306199014187,0.40585685581974684,-0.00989654011428356
1725629503521024000,8.44002392578125,0.41397476888895035,0.23980156654864548,0.35870120995640753
1725629503531058200,8.45005810546875,0.6133493402421474,-0.12469437422640621,0.39052258163094516
1725629503541091000,8.460091064453126,0.5841057101011276,-0.47558564108423884,0.4344873955637216
1725629503551125000,8.470125,0.4263140259802341,-0.4407145995154977,0.4928507372051477
1725629503561159200,8.4801591796875,0.36276831326484676,-0.55682307783477,0.37309739957749843
1725629503571193000,8.490193115234375,0.27087445794343945,-0.6795915254998952,0.27497487899959083
1725629503581227000,8.50022705078125,0.20223522148132322,-0.7914538176167756,0.20306524256467817
1725629503591261200,8.51026123046875,0.12369418420791625,-0.7520217517428099,0.12901157983839512
1725629503601295000,8.520295166015625,-0.021900866162776946,-0.730094874355942,0.0278676656126976
1725629503611329000,8.5303291015625,-0.2112204919695854,-0.5843562873287126,-0.5449725541085004
1725629503621363200,8.54036328125,-0.2560866386562586,-0.3931466830568388,-0.7157423777461052
1725629503631397000,8.550397216796876,-0.32861119211912154,-0.3125331138256937,-0.8962129266649485
1725629503641431000,8.56043115234375,-0.5105184958428144,-0.2051088772214949,-1.1413386108458041
1725629503651465200,8.57046533203125,-0.6100462070435285,-0.11188569125877693,-0.7162848140597343
1725629503661498000,8.580498046875,-0.7122118655323982,-0.03568136472107144,-0.44328445000350475
1725629503671532000,8.590531982421876,-0.676833093637228,0.065523305531824,-0.3883265328913927
1725629503681566000,8.60056591796875,-0.6819722100913524,0.2649932544177398,-0.10083762475550175
1725629503691600100,8.61060009765625,-0.8938497046649455,0.3334877121143043,0.008672551277279854
1725629503701634000,8.620634033203125,-1.031872273954749,-0.0023405352441594005,-0.30860359235703944
1725629503711668000,8.63066796875,-1.0956038646310566,-0.039057241212204094,-0.48136429755091664
1725629503721702100,8.6407021484375,-1.3182652035474776,0.6788447257205844,-0.2042541600883007
1725629503731736000,8.650736083984375,-1.3610826010107993,0.602037453437224,-0.3826391349047422
1725629503741770000,8.66077001953125,-1.328566817331314,-0.01608918420933187,-0.6790647982120513
1725629503751804200,8.67080419921875,-1.172415301632881,0.2655833657979965,-0.34818566116094585
1725629503761838000,8.680838134765626,-1.029746367841959,0.08349142622239887,-0.06418517966270447
1725629503771872000,8.6908720703125,-0.7183464227646589,-0.3270388282358646,0.06719254478514194
1725629503781906200,8.70090625,-0.1633662693828344,-0.3939610316470265,0.22984511294066903
1725629503791939000,8.71093896484375,0.1826432167828083,-0.35514161777868863,0.35523616419434545
1725629503801973000,8.720972900390626,0.30564532707333564,0.12861571238860486,0.3106266226172447
1725629503812007000,8.7310068359375,0.16483926454484463,0.7340003573618828,0.06806348240077495
1725629503822041000,8.741041015625,-0.013800561815500259,1.4519208097994327,0.06245441034734249
1725629503832075000,8.751074951171875,-0.2036743143737316,2.055687790443003,0.1895622023910284
1725629503842109000,8.76110888671875,-0.515021360220015,2.083115457203239,-0.0372048182785511
1725629503852143000,8.77114306640625,-0.5964654254585504,1.2767493902020155,-0.8025900555938482
1725629503862177000,8.781177001953125,-0.25179624798595907,0.3434691540330648,-1.5186726250797509
1725629503872211000,8.7912109375,0.16140461392104624,-0.1776834024183452,-1.8192513164132833
1725629503882245000,8.8012451171875,0.26884149081110953,-0.3518523669749498,-1.5562053601384163
1725629503892279000,8.811279052734376,-0.027221184402704237,0.0674663932904601,-0.9656044427990913
1725629503902313000,8.82131298828125,-0.5134206470251083,0.6236611831590533,-0.22691198209822178
1725629503912346000,8.83134619140625,-0.871950007545948,1.0425754542768,0.5463689769029617
1725629503922380000,8.841380126953124,-1.039804235997796,1.1588983790643512,1.2466536732763052
1725629503932414000,8.8514140625,-0.8733592898219823,0.9824950795844196,1.7321575548499821
1725629503942448000,8.8614482421875,-0.42137247792482374,0.5721345556698739,1.9871429542660712
1725629503952482000,8.87148193359375,0.030728315740823745,-0.07494644684754312,1.8839736716926097
1725629503962516000,8.881515869140625,0.4698638293713331,-0.3655154930811375,1.872512366479635
1725629503972550100,8.891550048828124,0.8064408858031034,-0.17426029610186813,1.9347756381690502
1725629503982584000,8.901583984375,0.9962684611320495,-0.057575990656018254,1.8280548005938528
1725629503992618000,8.911617919921875,1.1923738015562295,-0.023902707504481077,1.153064119952917
1725629504002652200,8.921652099609375,1.2848252907603979,-0.09844093887731432,-0.3106663701057434
1725629504012686000,8.93168603515625,1.265636021643877,0.07431494401097297,-0.6812497410356998
1725629504022720000,8.941719970703126,1.396937758246064,0.3915224793884903,-0.28543606725931164
1725629504032753000,8.9517529296875,1.418562730076909,0.575418326580897,0.1472387259244919
1725629504042787000,8.961787109375,1.4484522569060325,0.5410084727831185,0.46534722872972484
1725629504052821200,8.9718212890625,1.4654782105088233,0.29458739676317197,0.6431804148823023
1725629504062855000,8.98185498046875,1.2258043619930743,-0.06449861125973984,0.5981301438003778
1725629504072889000,8.99188916015625,0.9454448673456907,-0.415103444125317,0.4259142130076885
1725629504082923300,9.00192333984375,0.6524941866725683,-0.7721647413875907,0.0018003274202346802
1725629504092957000,9.01195703125,0.25006197153925896,-1.0939388540282844,-0.5413643004834652
1725629504102991000,9.0219912109375,-0.33446167171299457,-1.127144081276655,-0.9267781607985496
1725629504113025000,9.03202490234375,-0.7434826175868511,-0.9593528350584208,-1.015783308941126
1725629504123059000,9.042058837890625,-0.9893611659616232,-0.8109065599750727,-0.9583043489187956
1725629504133093000,9.052093017578125,-1.268936816754937,-0.7234637657783926,-1.285729546123743
1725629504143127000,9.062126953125,-1.538391471028328,-0.5610351791044697,-1.8271476226210592
1725629504153161000,9.072160888671876,-1.6933008777111769,-0.30010457101576027,-2.358544655841589
1725629504163193900,9.08219384765625,-1.7914046935886143,0.21684786686468868,-2.420496377363801
1725629504173228000,9.09222802734375,-1.9170365678608416,0.9390080392312258,-2.0170231287449596
1725629504183262200,9.10226220703125,-1.761471912139654,1.5114228000819683,-1.7508295220941303
1725629504193296000,9.1122958984375,-1.2849854497581719,1.9919756351195275,-1.6729916646540164
1725629504203330000,9.122330078125,-0.8103367241978645,2.350411764398962,-1.3626765922039747
1725629504213364200,9.1323642578125,-0.4230781127989292,2.3862622454591094,-0.8993038784176111
1725629504223398000,9.14239794921875,-0.2700292392909527,2.308437101370096,-0.7214554946959019
1725629504233432000,9.15243212890625,-0.15411270334720611,2.078427737778425,-0.33968905097246166
1725629504243466200,9.16246630859375,0.09931494523286818,1.64640395584926,0.2491045246839523
1725629504253500000,9.1725,0.15817103882730008,1.1391969226419925,0.6081973643064499
1725629504263534000,9.1825341796875,0.27660511054992676,0.7475514744609594,0.7269564301997423
1725629504273568300,9.192568359375,-0.33231296924650666,0.4917705407530069,0.8457681030631065
1725629504283602000,9.202601806640626,-0.5084896203637123,0.0935821737345308,0.39834991425573824
1725629504293635000,9.212635009765625,0.38435529117286205,-0.5365069966454059,0.4101671932995319
1725629504303669000,9.2226689453125,0.5724748935401439,-0.8885715450663119,1.0269406627714632
1725629504313703200,9.232703125,0.5099129311650991,-1.2528536969602106,1.4071627996623515
1725629504323736800,9.24273681640625,0.410698523697257,-1.2691387690678237,1.636742539665103
1725629504333771000,9.25277099609375,0.07643968107998371,-0.8997796792358159,1.8773025233656166
1725629504343805200,9.26280517578125,-0.4961947869360447,-0.4256833268612623,1.8953034594804048
1725629504353838800,9.2728388671875,-0.27112346426844597,-0.12005728901028632,1.4133400269925593
1725629504363873000,9.282873046875,0.1607879433274269,0.23458850807547568,0.9622411038458347
1725629504373907200,9.2929072265625,0.5724409912705422,0.4618000576421618,0.9311696737557649
1725629504383940900,9.30294091796875,0.8056032659351825,0.6403621425911784,1.0821294660300016
1725629504393975000,9.31297509765625,1.0398363847017287,0.647087213062495,0.8144394833415746
1725629504404009200,9.32300927734375,1.1299386804312468,0.49707960694655773,0.5317857402771711
1725629504414042000,9.3330419921875,1.1008020177960396,0.30854923182129856,0.6602648206740618
1725629504424076000,9.343075927734375,1.0782523323357105,0.25577377331480383,0.7008651266098022
1725629504434110000,9.35310986328125,0.9515490294396877,0.4041774513654411,0.14039865077137947
1725629504444144000,9.36314404296875,0.8136492097467184,0.5691888576067984,-0.20895780773460865
1725629504454178000,9.373177978515624,0.6227881997168063,0.5315767737016082,-0.16047639316022394
1725629504464212000,9.3832119140625,0.2680494636505842,0.5753402929086238,-0.4518897812634706
1725629504474246100,9.39324609375,-0.008387889117002487,0.536848065168038,-0.31173546064198016
1725629504484280000,9.403280029296875,-0.22242928372621534,0.3345809872437268,0.20974282063245772
1725629504494314000,9.41331396484375,-0.5675105491310358,0.30932357719466086,0.253801158067584
1725629504504348200,9.42334814453125,-0.7211538814008236,0.2811485991984606,-0.0055360068172216415
1725629504514382000,9.433382080078125,-0.6142226159453391,0.2825845502857119,-0.064601943770051
1725629504524416000,9.443416015625,-0.44093116487562656,0.32205504847392435,-0.12286474764645099
1725629504534450200,9.4534501953125,-0.28270927264392376,0.24030578974373637,-0.20470541098713874
1725629504544483000,9.463483154296876,-0.16080781707167624,0.09045856182128191,-0.090016371011734
1725629504554517000,9.47351708984375,-0.06921791313290596,0.028684534953534603,0.11775427276492118
1725629504564551200,9.48355126953125,-0.03232756763100624,0.025743987989611923,-0.04206979396641254
1725629504574585000,9.493585205078125,-0.14930910245776174,0.05556921741086989,-0.38272915127575396
1725629504584619000,9.503618896484374,-0.32025720527172086,0.0616308920700103,-0.6570096182703972
1725629504594653200,9.513653076171876,-0.2100701528906822,-0.08827862396631389,-0.549497922578454
1725629504604686800,9.523686767578125,0.06373568232953548,-0.23727719917017964,-0.21404723982810972
1725629504614721000,9.533720947265625,0.2358814704954624,-0.32718397232759744,0.041458384069800375
1725629504624755000,9.5437548828125,0.1494476341456175,-0.19921638511680065,0.2780880425840616
1725629504634788900,9.553788818359376,0.061107671913504594,-0.18919428239408878,0.3216232329279184
1725629504644823000,9.563822998046875,-0.10389876589179038,-0.14529049619985743,0.18744038793146608
1725629504654857000,9.57385693359375,-0.229149531891942,-0.0016639694231562316,0.11204290938079356
1725629504664890000,9.58389013671875,-0.3890384805530309,0.09443215989368035,-0.13371990365982056
1725629504674924000,9.593924072265626,-0.5906079316020012,0.24262584845544768,-0.5102601371675729
1725629504684958000,9.6039580078125,-0.6370055256396532,0.37400947292111814,-0.45984395513832566
1725629504694992100,9.6139921875,-0.5690045870810747,0.3211774984544143,-0.4618646473109722
1725629504705025800,9.62402587890625,-0.43869653769135475,0.3216786894422024,-0.44259412965178485
1725629504715060000,9.63406005859375,-0.4302548725605011,0.25490486325947564,-0.28183482789695263
1725629504725094100,9.64409423828125,-0.5220937828242779,0.17194761697901412,-0.2043757406413555
1725629504735127800,9.6541279296875,-0.5293289947748184,-0.1707325603671372,-0.23616788622140883
1725629504745162000,9.664161865234375,-0.334611893838644,-0.47942686321493233,-0.08212532550096512
1725629504755196200,9.674196044921874,-0.1659860964924097,-0.48306620609797535,0.15667875444293022
1725629504765229800,9.684229736328126,-0.10807166766226291,-0.4165994913693517,0.025876784056425094
1725629504775264000,9.694263916015625,-0.22691782731711863,-0.1653581373197958,-0.2189548856139183
1725629504785297000,9.704296875,-0.49908057150542734,0.14660864786002784,-0.3083119159340858
1725629504795331000,9.7143310546875,-0.6432967347383499,0.15036160718537867,-0.41883916005492206
1725629504805365000,9.724364990234376,-0.004623568147420883,-0.3002477058134973,-0.47625440719127654
1725629504815399000,9.73439892578125,-0.032495325413346286,-0.1579864760406315,0.1669225005596876
1725629504825433000,9.74443310546875,-1.2219716519623993,-0.11370390139557421,0.717861269596219
1725629504835467000,9.754467041015625,-1.824800182712078,-0.2791303912438452,0.8295394373178482
1725629504845501000,9.7645009765625,-1.6083406210452318,-0.4366358057692647,0.8987813158482313
1725629504855535000,9.77453515625,-1.1210481024891137,-0.6657409139975905,0.9503256251245736
1725629504865569000,9.784569091796875,-0.7890250560998916,-0.6345643430326133,0.9889444018542766
1725629504875603000,9.79460302734375,-0.5194722021490336,-0.5040278917144984,0.9995832847684621
1725629504885637000,9.80463720703125,-0.29178572854697704,-0.2764996043488383,1.0799152971118688
1725629504895671000,9.814671142578124,0.0842173293441534,0.2193585710439831,1.274047291636467
1725629504905705000,9.824705078125,0.2925567129194736,0.4961026516731828,0.8850327764809132
1725629504915738000,9.834738037109375,0.6091466278553008,0.552001575962454,0.3056587710767984
1725629504925772000,9.84477197265625,0.7422223883926868,0.6591232494235039,0.16516542775928972
1725629504935806000,9.854805908203126,0.39584523795843124,0.5528459908973425,0.14426818568110464
1725629504945840000,9.864840087890625,0.18726386232078074,0.31931605196408924,0.2699620192736387
1725629504955874000,9.8748740234375,0.19975451058149338,0.030211086933687327,0.43567280595600605
1725629504965908000,9.884907958984375,-0.011532032361626624,-0.1914030810173601,0.5201601844131947
1725629504975942100,9.894942138671874,-0.3186532772064209,-0.3400152141869068,0.356270183417201
1725629504985976000,9.90497607421875,-0.43924774183332915,-0.37327714005857704,0.1601005455851555
1725629504996010000,9.915010009765625,-0.4928887311279773,-0.16263057551942764,0.04806406594514846
1725629505006044000,9.9250439453125,-0.5360065728425979,0.01265467971600592,-0.2088853270202875
1725629505016078000,9.935078125,-0.44783319934904575,0.19478519773632286,-0.44813364360034463
1725629505026112000,9.945112060546874,-0.2241647292166948,0.430369219655171,-0.5718044469326734
1725629505036145000,9.955144775390625,0.009003975188732147,0.5631858908649534,-0.6502209810435772
1725629505046179000,9.965178955078125,0.2521832014769316,0.5951090424135327,-0.5902829374313354
1725629505056213000,9.975212890625,0.58210547619462,0.5753622855447232,-0.493749147349596
1725629505066247000,9.985246826171876,0.6592325550168753,0.48670978676471854,-0.2536807465583086
1725629505076281000,9.995281005859376,0.3620721476942301,0.3485332324896008,0.052716860187053675
1725629505086315000,10.00531494140625,0.02080839475095272,0.22456720907036215,0.07940963680148125
1725629505096349000,10.015348876953125,-0.13843115009069443,0.10403382698092609,-0.14688041400611399
1725629505106383000,10.025383056640624,-0.10634382095634937,0.16411661282610146,-0.38062954864799975
1725629505116417000,10.0354169921875,-0.06549333965182304,0.25526335784094406,-0.5118909532397985
1725629505126451000,10.045450927734375,0.11459960812628268,0.40098946897909044,-0.4692401445150375
1725629505136485000,10.055485107421875,0.23823943179845808,0.5839035751251503,-0.39397126078009603
1725629505146519000,10.06551904296875,0.14025953456163406,0.6064516166176647,-0.5268675730973482
1725629505156553000,10.075552978515624,0.030430209577083586,0.6259998552396893,-0.6980436394482851
1725629505166585900,10.0855859375,-0.03269873903095722,0.7012596788853407,-0.681530896064639
1725629505176620000,10.0956201171875,-0.016520342168211934,0.6240004981160163,-0.47921559508442874
1725629505186654200,10.105654296875,0.031878654819726945,0.6027635757546872,-0.19407880303263664
1725629505196688000,10.11568798828125,0.14446458503603934,0.5950554855953901,-0.07145254031717777
1725629505206722000,10.12572216796875,0.13835165511369704,0.5175709716375917,-0.13804711920917034
1725629505216756200,10.135756103515625,0.22676935875713825,0.4339811265420168,-0.09027122255563735
1725629505226790000,10.145789794921875,0.3190449068725109,0.39109080997295675,-0.02825578814744949
1725629505236824000,10.155823974609374,0.3635416357249021,0.32797815491259097,0.08053659500479697
1725629505246858200,10.165858154296876,0.3360369582056999,0.3506480692191049,-0.029696634605526923
1725629505256892000,10.175891845703125,0.2352373273730278,0.35855022064577785,-0.17034020004868505
1725629505266926000,10.185926025390625,-0.23025018661022184,0.25327633047588166,-0.07574936072826385
1725629505276960300,10.195960205078125,-0.6718810241878033,0.05756506740320474,0.40070553747117515
1725629505286993200,10.2059931640625,-0.8782534916043281,-0.26840134582817554,0.851399386948347
1725629505297027000,10.216027099609375,-0.9785001647293567,-0.49858792915027583,1.0813444531321525
1725629505307061000,10.22606103515625,-1.2572037088632584,-0.5416378932604566,0.838135416227579
1725629505317098000,10.236097900390625,-1.3179279344171284,-0.3275606966855004,0.3300806801497936
1725629505327132000,10.2461318359375,-1.7005606395810842,-0.1434226382350549,-0.21081366473436355
1725629505337165800,10.256165771484374,-2.109476371514797,0.015463964983075857,-0.5251356347382068
1725629505347200000,10.266199951171876,-2.3535241973310708,0.11706227191276848,-0.5817150155723094
1725629505357234000,10.27623388671875,-2.5033646301865575,0.3808851308442652,-0.5687468129277229
1725629505367267800,10.286267822265625,-2.244096438884735,0.7096413574572652,-0.16236322982013224
1725629505377302000,10.296302001953125,-1.698158839136362,0.5345483368583023,0.45682548409998414
1725629505387335700,10.306335693359374,-1.0077478865236043,0.06802475782558322,0.9273591755568981
1725629505397369900,10.316369873046876,-0.520845828589797,-0.1981865306124091,1.1050976691633463
1725629505407404000,10.326404052734375,-0.09612170214951038,-0.3655547291129827,1.2622966480880975
1725629505417437000,10.33643701171875,0.2992068184584379,-0.4222575901962817,1.711965246170759
1725629505427470800,10.346470947265624,0.6965308967977761,-0.5050052853792906,1.6964105341643094
1725629505437505000,10.356505126953126,1.366782858479023,-0.31329423439130183,1.6203174745649098
1725629505447539000,10.3665390625,1.920674632102251,-0.13223068801537155,1.4314344866096973
1725629505457572900,10.37657275390625,2.4186884511590003,-0.05087181684225797,0.8614356277942657
1725629505467606800,10.386606689453124,2.6942759090989825,-0.01988163529485464,0.48668929196596145
1725629505477641000,10.396640869140626,2.6240274838745594,0.14856851322352885,0.6225684194862843
1725629505487675000,10.4066748046875,2.643672095543146,0.2737142114140093,0.9292658859610557
1725629505497708800,10.416708740234375,2.3979338324218986,0.3202973911516368,0.5613695621579885
1725629505507743000,10.426742919921875,1.901483609420061,0.5357091973312199,-0.016024083083868025
1725629505517777000,10.43677685546875,1.4823691395550966,0.5449394555564969,-0.18537761018276214
1725629505527810800,10.446810791015626,1.0117764113873242,0.21921916257329283,-0.45279579019248484
1725629505537844000,10.456843994140625,0.579295094949007,-0.2338562482781708,-0.7652911292910576
1725629505547878000,10.4668779296875,0.17955694120526314,-0.5546717450197786,-0.5550771840155124
1725629505557911800,10.476911865234374,-0.3989928883343935,-0.8033158856503665,0.09150514826476573
1725629505567946000,10.486946044921876,-1.0738561432033777,-1.0388385327707976,0.4890495913565159
1725629505577980000,10.49697998046875,-1.360751177099347,-1.0397500946577638,0.8483271398961544
1725629505588013800,10.507013916015625,-1.2925813117146492,-0.7925872055608779,0.2748538829684257
1725629505598048000,10.517048095703124,-1.291706866967678,-0.4687148054666817,-0.4248065440267324
1725629505608082000,10.52708203125,-1.2184955002844333,-0.16102799916099755,-0.617152824178338
1725629505618115800,10.53711572265625,-1.2109510762542486,0.14016374603696166,-0.7095213112741708
1725629505628150000,10.54714990234375,-1.0159019668847322,0.16116287758704273,-0.7820569706529379
1725629505638184000,10.557183837890625,-0.739547616225481,0.10719883035048842,-0.6726315502941608
1725629505648217900,10.5672177734375,-0.44156537112593647,0.17114231021180748,-0.6138906075119972
1725629505658252000,10.577251953125,-0.1585574077963829,-0.04088807336855679,-0.2788385686904192
1725629505668285000,10.587284912109375,0.12491992661058902,-0.30497526405835523,-0.12864333104789255
1725629505678319000,10.597319091796875,0.3396796986222267,-0.5604943867586553,-0.21940262938141822
1725629505688352800,10.607352783203124,0.63109951646626,-0.849311620888859,0.02514145551919937
1725629505698387000,10.617386962890626,0.8168658337056637,-1.038321596224606,0.26660920171439645
1725629505708420900,10.6274208984375,0.8961492137789726,-1.2111965023826807,0.48224517203867434
1725629505718454800,10.637454833984375,0.8851128559798002,-1.336263509313762,0.9295102161109446
1725629505728489000,10.647489013671875,0.5135141705274582,-1.3959068077631294,0.8439870648652315
1725629505738523000,10.65752294921875,0.02926584197282791,-1.3025066395319997,0.25724925269484517
1725629505748556800,10.667556884765625,-0.46445057215094565,-1.014669502480328,-0.21392390570938585
1725629505758591000,10.677591064453125,-0.7497463541567325,-0.783164347372949,-0.36440322099030015
1725629505768625000,10.687625,-0.7199608722239732,-0.6177314277838916,0.23878479072153566
1725629505778658800,10.697658935546874,-0.7780044803917407,-0.397430717051588,0.7294675362378359
1725629505788693000,10.70769287109375,-0.790708479142189,-0.37311858849599955,0.43474926137030123
1725629505798726000,10.717725830078125,-0.6995318321794272,-0.46445254491232335,-0.007153963407874107
1725629505808759800,10.727759765625,-0.5413479338705539,-0.3713780284389853,-0.07973404645025729
1725629505818793700,10.737793701171874,-0.37101650165021416,-0.19745039835758507,-0.11029168179929255
1725629505828828000,10.747827880859376,-0.4676841472446918,0.053685339893028136,-0.2204407402575016
1725629505838861800,10.75786181640625,-0.7210738019019365,0.4855274085797369,-0.269539994469285
1725629505848895700,10.767895751953125,-0.6879892784237861,0.8346446515023708,-0.6589893939107656
1725629505858930000,10.777929931640625,-0.34592940666675565,1.0533127560641615,-0.6632394525706767
1725629505868963800,10.7879638671875,-0.045324411848187446,1.2457742600932717,-0.18228607390820978
1725629505878997800,10.797997802734375,0.49203123751580713,0.6683272772289812,-0.28393852217793464
1725629505889032000,10.808031982421875,0.4319570003032684,0.38088951475843785,-0.13284896604418753
1725629505899065900,10.81806591796875,-0.6317986046463251,0.3684314535930753,0.3613029168874025
1725629505909099800,10.828099853515624,-1.1122492944836615,0.16655761277005077,0.5314648377597332
1725629505919133000,10.8381328125,-1.0644213753819465,-0.12028496028631924,0.44551790814399717
1725629505929166800,10.848166748046875,-0.6347784972399473,-0.37608679065182804,0.2973673280715942
1725629505939200800,10.85820068359375,-0.23700258347988126,-0.36700448952987785,0.13359715406298636
1725629505949235000,10.86823486328125,-0.6696645171821117,-0.010241261898726225,-0.08591361186802386
1725629505959268900,10.878268798828126,-0.9341098188608884,0.28280031192824245,-0.1433949099779129
1725629505969302800,10.888302734375,-0.7491273454755544,0.3779942317083478,0.24884616600871085
1725629505979337000,10.8983369140625,-0.6030722763776779,0.27855419879108667,0.7547516150981187
1725629505989371000,10.908370849609375,-0.6730050597816706,0.25243366910666226,1.029824693775177
1725629505999404800,10.91840478515625,-0.5289367805868387,-0.13010872742533683,0.5357125583320855
1725629506009439000,10.92843896484375,0.08412672845125198,-0.07516586175188422,0.1928559832394123
1725629506019473000,10.938472900390625,0.43642157849669455,-0.2963322859354317,0.2676315304994583
1725629506029506800,10.9485068359375,0.32214053480029103,-0.49035599777996536,0.6482119793087243
1725629506039539700,10.958539794921874,0.08802315136790274,-0.7370869252003729,0.3922802389532327
1725629506049574000,10.968573974609376,-0.0019978958189487456,-0.856559107799083,0.23953064065277574
1725629506059608000,10.978608154296875,-0.1008089831829071,-0.6056028177686035,0.29840543894767757
1725629506069641700,10.988641845703125,-0.09458733218908309,-0.5708437852069735,0.24235095877051352
1725629506079676000,10.998676025390624,0.1173392622232437,-0.3957842284861952,0.41556408390700816
1725629506089710000,11.0087099609375,0.2719043855130672,-0.2386797959771007,0.3087427085667848
1725629506099743700,11.01874365234375,0.3618225568473339,-0.05259710626490414,0.01727612897157669
1725629506109778000,11.02877783203125,0.48477965895235536,0.2012217335898429,-0.10212357291281222
1725629506119812000,11.03881201171875,0.48496787500083444,0.35243637740798295,-0.09124620506763458
1725629506129845800,11.048845703125,0.553899372407794,0.3322640155382454,-0.09692015905082225
1725629506139880000,11.0588798828125,0.5502601391226053,0.25550927715972066,-0.14731646733582018
1725629506149913900,11.068913818359375,0.48923196218609805,0.07067154600732029,-0.2693798354715109
1725629506159947800,11.07894775390625,0.5138642991393805,0.09307491833213716,-0.10626549502313136
1725629506169981000,11.08898095703125,0.41446284466683864,0.1170306711981073,0.08717325654029846
1725629506180014800,11.099014892578126,0.12673019090294838,0.1210846592966467,-0.22621464748382566
1725629506190049000,11.109049072265625,-0.07608487629294396,0.19850699473842978,-0.6201467452973127
1725629506200082700,11.119082763671875,-0.21681553549766538,0.2034116813821718,-0.8762117566436529
1725629506210116900,11.129116943359374,-0.3085509853869676,0.2624239519190043,-1.0897609838217497
1725629506220151000,11.139151123046876,-0.3934738326519727,0.33172157922461626,-1.23114630754292
1725629506230184700,11.149184814453125,-0.570607930624485,0.3546824027691036,-1.4399509705424307
1725629506240219000,11.159218994140625,-0.6916904710292816,0.438307099982351,-1.3302683605521917
1725629506250253000,11.169253173828125,-0.6943816098093986,0.531782233145833,-0.7269102529704571
1725629506260286700,11.17928662109375,-0.692985771536827,0.5521971350671723,-0.12721592859327793
1725629506270321000,11.18932080078125,-0.6045283204048871,0.5753798212014138,0.19981646990180013
1725629506280355000,11.19935498046875,-0.5019593418121338,0.6504328702285885,0.5035872352749109
1725629506290388000,11.209387939453125,-0.5365852495133876,0.639532340703532,0.6875333513498306
1725629506300422000,11.219421875,-0.7468798588097095,0.7811018618851899,0.593401946234703
1725629506310455800,11.229455810546876,-0.6155231771498918,0.9043331778217106,0.04906126028895378
1725629506320487000,11.23948681640625,-0.5159411054134369,0.780980208266899,-0.49365854645669455
1725629506330520800,11.249520751953124,-0.46867432732582087,0.5447649392398074,-0.526871664750576
1725629506340555000,11.259554931640626,-0.30208208163380623,-0.004609393491595983,-0.28639234507083894
1725629506350589000,11.2695888671875,-0.1308627606630325,-0.6575232668809592,0.07343757665455342
1725629506360622800,11.279622802734375,-0.22782792789936065,-1.091622539909929,0.5147054261386395
1725629506370657000,11.289656982421874,-0.4909820207238197,-1.5337068203434348,0.28334581698179245
1725629506380691000,11.29969091796875,-0.5846417166739701,-1.8132294257752597,-0.04643675700426102
1725629506390724900,11.309724853515625,-0.5689776990741491,-1.864724489082396,0.3389975615769624
1725629506400759000,11.319759033203125,-0.42734453807175155,-1.746180088853091,1.2050444825589657
1725629506410792700,11.329792724609375,-0.26341011341214177,-1.5331760744675993,1.8418354886651038
1725629506420825900,11.339825927734376,-0.6034112990736961,-1.1174904100075362,1.7530132958739995
1725629506430860000,11.349860107421875,-0.5675637406229973,-0.6907089126460254,1.0222124652057885
1725629506440894000,11.35989404296875,-0.8666372880905866,-0.026796017793193457,0.2130944691479206
1725629506450927900,11.369927978515625,-0.5480202512413263,0.12566862608604132,0.22837737847566603
1725629506460961800,11.3799619140625,-0.31660335893929004,0.15585319033898412,0.8589327050626278
1725629506470996000,11.389995849609376,0.01712941397726536,0.2517394762974232,1.2585925328731535
1725629506481030000,11.40002978515625,0.6992442474097013,0.11449359046854078,1.168217265421152
1725629506491063800,11.410063720703125,1.2813006237655877,0.0014124240811914206,1.3081810319066047
1725629506501098000,11.420097900390624,1.5725129363387822,-0.029135712787136434,1.3896411714971064
1725629506511132000,11.4301318359375,1.6521014368385076,0.01216726152524352,0.9455050731003284
1725629506521165800,11.440165771484375,1.707657319843769,0.09352101813182234,0.21166239051818847
1725629506531200000,11.450199951171875,1.6346821000039577,0.09185819948613642,-0.04192424801588058
1725629506541233000,11.46023291015625,1.3892740917503832,0.10847381872236728,0.22005846294164658
1725629506551266800,11.470266845703126,1.2854863850176335,0.19175233284644783,0.20535539932847022
1725629506561301000,11.480301025390625,0.9505985968470573,0.06896342691518366,-0.14116495896875858
1725629506571335000,11.4903349609375,0.595132715550065,0.0672739029256627,-0.1214788462460041
1725629506581368800,11.500368896484375,0.32905893588662144,-0.19964893131516873,0.04976502464413642
1725629506591403000,11.510403076171874,0.11746727251708507,-0.36269320220202206,0.27003391546607014
1725629506601437000,11.52043701171875,-0.15605682315230368,-0.46180027683787045,0.5516349346071482
1725629506611470800,11.530470947265625,-0.5889338609099388,-0.5741921457868069,0.9539081597864627
1725629506621505000,11.540505126953125,-1.100869822335243,-0.5748069897495209,0.686682287478447
1725629506631539000,11.5505390625,-0.987546810016036,-0.5521542457735166,0.07469137610793113
1725629506641572900,11.56057275390625,-0.7585381478995085,-0.5433708180002867,-0.2418640520364046
1725629506651607000,11.57060693359375,-0.6247334885656833,-0.5778676194291561,-0.029687866777181625
1725629506661641000,11.580640869140625,-0.3483317916333675,-0.6366024977967143,0.4275438600361347
1725629506671674000,11.590674072265625,-0.1611491778552532,-0.481721038566716,0.22165596126616
1725629506681707800,11.600707763671876,-0.08312251984477043,-0.2725445831127465,-0.25483693085610865
1725629506691742000,11.610741943359375,-0.026263153025507927,-0.08865069041540846,-0.43417233826518054
1725629506701776100,11.620776123046875,-0.05800795233249664,0.09064679613607003,-0.6338602133512496
1725629506711809800,11.630809814453125,0.026005963394045827,0.17526640440449118,-0.6881020911484956
1725629506721844000,11.640843994140624,0.160810155159235,0.21023122520390897,-0.31623160301744935
1725629506731878100,11.650878173828126,0.20962942338585852,0.2439136780425906,-0.20367548341751096
1725629506741911800,11.660911865234375,0.32629297830462456,0.14832126046419142,-0.3459621398925781
1725629506751946000,11.670946044921875,0.43036417815387246,0.0038907968934625385,-0.3069312752306461
1725629506761980000,11.68097998046875,0.41762043191492554,-0.12311247532982378,-0.4033960917294025
1725629506772013800,11.691013916015624,0.2992354600310325,-0.3012551658229902,-0.4564426222622394
1725629506782048000,11.701048095703126,0.1179670387327671,-0.453364566523768,-0.31660686607062816
1725629506792081000,11.711080810546875,-0.02266834340393543,-0.6043877063577995,-0.18831833980977533
1725629506802115000,11.721114990234375,-0.13644436018764972,-0.6676444095313548,-0.003065232789516449
1725629506812149000,11.73114892578125,-0.4217927491635084,-0.7124552458342165,-0.27273557564020157
1725629506822183000,11.741182861328125,-0.5799696332097053,-0.7327768799815326,-0.6028700318038464
1725629506832217000,11.751217041015625,-0.5416244127243757,-0.8306711447615176,-0.5571802937746048
1725629506842250800,11.761250732421875,-0.6485071628630161,-0.9179233117569238,-0.5172387440085411
1725629506852285000,11.771284912109374,-0.8542758191674947,-0.9502992485743016,-0.4744640166431665
1725629506862319000,11.781319091796876,-1.0464636938869953,-1.0093494765013455,-0.6037836395174264
1725629506872352800,11.791352783203125,-1.0819839200794696,-1.0340971103973686,-0.7062333756446838
1725629506882387000,11.801386962890625,-1.1141045669615268,-1.0960611799445004,-0.5133738852739334
1725629506892421000,11.811421142578125,-0.9719640409588813,-0.8498149673011154,-0.046771688047051424
1725629506902454800,11.821454833984374,-0.7131155363738536,-0.4115391392398625,0.2212368590712547
1725629506912489000,11.831489013671876,-0.4130681754380464,-0.16049297896884382,0.047072716820240015
1725629506922521900,11.84152197265625,0.07013210536837577,-0.35781573235876857,-0.3244815449684858
1725629506932556000,11.85155615234375,-0.046427989175915715,0.1313716600332409,0.06350596522688866
1725629506942590000,11.86158984375,-0.6378238562852144,0.6602868133101611,0.30390988158285615
1725629506952623900,11.871623779296876,-0.7810743893563747,0.7525739787980914,0.163471483322978
1725629506962658000,11.881657958984375,-0.6541735180616378,0.6602287264473736,-0.003943184667825699
1725629506972692000,11.89169189453125,-0.3746095577061176,0.6322425490215421,-0.04862988313436508
1725629506982726000,11.901725830078124,-0.09409048858284949,0.537003328794986,0.0901081409484148
1725629506992760000,11.911760009765626,0.05445931994020939,0.3978257442511618,0.5348661706358194
1725629507002794000,11.9217939453125,0.0869400323063135,0.3992410178765654,1.0733137068897485
1725629507012828000,11.931827880859375,0.17645079188346863,0.37159868545234204,1.3790683395564556
1725629507022862000,11.941862060546875,0.25023557454049583,0.1413749484576285,1.4916408257693052
1725629507032896000,11.95189599609375,0.042454409369826314,-0.17627733501270412,1.6083634173989294
1725629507042930000,11.961929931640626,0.09093874655365944,-0.35577158624529837,1.8740929136693476
1725629507052963000,11.971963134765625,0.2348012740433216,-0.5204702732756734,1.9408757086098194
1725629507062997000,11.9819970703125,0.1524012232542038,-0.784961313792318,1.1946113513499497
1725629507073031000,11.992031005859374,0.13066986843943595,-0.8902512417815626,-0.04106558535993099
1725629507083065000,12.002065185546876,0.04474573517739772,-0.7426929285138845,-0.7731383356600999
1725629507093098800,12.0120986328125,-0.0359065951615572,-0.5519125094395131,-0.6721323686003685
1725629507103133000,12.0221328125,-0.09472118770182132,-0.49369968218468124,-0.2591442726612091
1725629507113167000,12.0321669921875,0.01808744535446167,-0.37310309866592284,0.22175416094362735
1725629507123200800,12.04220068359375,0.23572131149768827,-0.3042346565578133,0.563241201248765
1725629507133235000,12.05223486328125,0.08832242657542229,-0.17887451189905404,0.4731137710779905
1725629507143268900,12.062268798828125,-0.3032318361908197,-0.019704598227515815,-0.13084347144067288
1725629507153302800,12.072302734375,-0.609248919185996,0.049692836190760134,-0.7045324169456958
1725629507163337000,12.0823369140625,-0.5794429789870977,0.22241035983003674,-0.716000151899457
1725629507173369900,12.092369873046875,-0.3754512692272663,0.27409776737149805,-0.6908943522155284
1725629507183404000,12.102404052734375,-0.10921616152226925,0.10014825425185263,-0.5925228253126144
1725629507193438000,12.11243798828125,-0.2789420290648937,0.04009944374151528,-0.30820144129693505
1725629507203472000,12.122471923828124,-0.6291150646507739,-0.19214944240525364,-0.28220366120934487
1725629507213506000,12.132506103515626,-0.720519090628624,-0.41299401422329246,-0.3178478060424328
1725629507223539700,12.142539794921875,-0.7251765610456467,-0.44932522800508884,-0.4217494945436716
1725629507233574000,12.152573974609375,-0.5725450361669063,-0.37883974262177944,-0.5688303995579481
1725629507243608000,12.162608154296874,-0.31163083122372626,-0.14721089720265007,-0.3985860610991716
1725629507253641700,12.172641845703126,-0.153982354965806,0.04259142495403066,-0.3292372150629759
1725629507263676000,12.182676025390625,0.047184945023059845,0.15048442984744906,-0.3980816187083721
1725629507273710000,12.1927099609375,0.21517010637819767,0.21877289837682617,-0.3941933790981769
1725629507283743700,12.20274365234375,0.3086433398455381,0.20247379774386062,-0.4505576558768749
1725629507293777000,12.21277685546875,0.25645254935920236,0.02631960048705805,-0.5418646512210369
1725629507303810800,12.222810791015625,0.22791969783604143,0.020835670916945673,-0.36550562927424907
1725629507313845000,12.232844970703125,0.2945797431796789,-0.14314699963144958,-0.007460837399959563
1725629507323878400,12.24287841796875,0.40408348947167394,-0.28589802221525457,0.2689852831959724
1725629507333912600,12.25291259765625,0.26365561260581016,-0.3247838889159262,0.3543938681513071
1725629507343946500,12.262946533203126,0.1054448262900114,-0.40894331406038253,0.20405133099257944
1725629507353980400,12.27298046875,0.026487609431147575,-0.5702244477322325,0.0796551359951496
1725629507364014600,12.2830146484375,-0.22635960891246795,-0.5794627066008746,0.1979845782995224
1725629507374048500,12.293048583984374,-0.2497416535437107,-0.4023705115413293,0.13209317924082278
1725629507384082400,12.30308251953125,0.013864274701476097,-0.12681863637138158,0.19431728796362877
1725629507394116400,12.313116455078125,0.035593291428685184,0.05048610546030104,0.5700193170815706
1725629507404150500,12.323150634765625,0.11919862635433673,-0.05845434439312666,0.9082546621143818
1725629507414184400,12.333184326171875,0.11861351994276045,-0.07831789604201912,0.8145978887736797
1725629507424217300,12.34321728515625,-0.2589513804376125,0.059921786597184834,0.41197395046055313
1725629507434251500,12.35325146484375,-0.48610593912005423,0.1258170215807855,-0.3307166399657726
1725629507444285700,12.36328564453125,-0.9165724086046219,0.15480985529851168,-0.7969353908330201
1725629507454319400,12.3733193359375,-1.7270698763221501,0.18183964531496166,-0.9681687403291463
1725629507464353500,12.383353515625,-0.9577344400763511,-0.24896986545361577,-0.7802683336704969
1725629507474387500,12.393387451171876,-1.716446775498986,-0.25006569786630567,-0.3246984025895595
1725629507484421400,12.40342138671875,-1.5689789169937371,-0.1120647558864206,-0.14043430660665035
1725629507494455600,12.41345556640625,-1.5098077661007643,-0.280758503902331,0.38960488226413725
1725629507504489500,12.423489501953124,-1.5247510682106018,-0.3734579034529626,1.2246844180524348
1725629507514523400,12.4335234375,-0.8361088788360357,-0.5951849571939557,1.636556077182293
1725629507524557600,12.4435576171875,-0.2912988218128681,-0.6136789375226944,1.8008838850736617
1725629507534591500,12.453591552734375,0.11072598156332969,-0.3892312997113913,1.5005045157045125
1725629507544624600,12.463624755859374,0.6688736590653658,-0.27223171777129174,0.5287380431443452
1725629507554658300,12.473658203125,1.1364876636832952,-0.26970395285934207,-0.14153729941248894
1725629507564692500,12.4836923828125,1.6532032606005667,-0.054418987929821014,0.4273649963378906
1725629507574726700,12.4937265625,2.1210633489340545,0.348777635704726,1.0454226604014634
1725629507584760300,12.50376025390625,2.4538486118674276,0.5241125753007829,0.7076122627824545
1725629507594794500,12.51379443359375,2.4325392818570135,0.47847792845964426,0.25756314094960686
1725629507604828700,12.52382861328125,2.148201531228423,0.31182606153488157,0.25159634149968624
1725629507614862300,12.5338623046875,1.868461629784107,0.1870048460584134,0.5784288335084915
1725629507624896500,12.543896484375,1.7823370055139063,-0.03893025383166968,0.6701444096535444
