time,seconds_elapsed,z,y,x
1725629495102571800,0.02157177734375,0.11568258702754974,0.31504714488983154,-0.019869374111294746
1725629495112605700,0.031605712890625,0.185587540268898,0.26651549339294434,0.0794539675116539
1725629495122639600,0.0416396484375,0.15124981105327606,-0.11482840776443481,0.1199614480137825
1725629495132673800,0.051673828125,0.07902029901742935,-1.1041587591171265,-0.012386568821966648
1725629495142707700,0.061707763671875,0.041728854179382324,-1.4450684785842896,-0.13773863017559052
1725629495152741600,0.07174169921875,0.08780582249164581,-1.242658257484436,-0.24863488972187042
1725629495162775800,0.08177587890625,0.12537609040737152,-1.0109139680862427,-0.4903697371482849
1725629495172809000,0.09180908203125,0.07997476309537888,-0.8959764838218689,-0.8135083317756653
1725629495182842600,0.101842529296875,0.015053820796310902,-0.717392086982727,-1.1565868854522705
1725629495192876800,0.111876708984375,-0.06806256622076035,-0.5498151779174805,-1.4836499691009521
1725629495202910700,0.12191064453125,-0.17155273258686066,-0.42101457715034485,-1.767733097076416
1725629495212944600,0.131944580078125,-0.32072097063064575,-0.27560877799987793,-2.0245766639709473
1725629495222978800,0.141978759765625,-0.5380383133888245,-0.15619637072086334,-2.3012306690216064
1725629495233012700,0.1520126953125,-0.7821842432022095,-0.114442840218544,-2.5444576740264893
1725629495243046700,0.162046630859375,-0.9237110018730164,-0.14297407865524292,-2.72912859916687
1725629495253080800,0.172080810546875,-0.9463669657707214,-0.3262602388858795,-2.8205161094665527
1725629495263114800,0.18211474609375,-0.9102870225906372,-0.6148720383644104,-2.792564630508423
1725629495273148700,0.192148681640625,-0.907062828540802,-0.8549500107765198,-2.6783742904663086
1725629495283181600,0.202181640625,-0.9701153039932251,-0.932572066783905,-2.523486375808716
1725629495293215700,0.2122158203125,-1.0679607391357422,-0.8469402194023132,-2.302603244781494
1725629495303250000,0.22225,-1.1712110042572021,-0.5937952995300293,-2.0080862045288086
1725629495313283600,0.23228369140625,-1.22395920753479,-0.0866437777876854,-1.6305322647094727
1725629495323317800,0.24231787109375,-1.1442816257476807,0.8893083930015564,-1.129515528678894
1725629495333352000,0.25235205078125,-0.6471638679504395,2.1419432163238525,-0.5146529674530029
1725629495343385600,0.262385498046875,0.09071873873472214,2.76755428314209,-0.03389193117618561
1725629495353419800,0.272419677734375,0.28202325105667114,2.6361992359161377,0.21599635481834412
1725629495363454000,0.282453857421875,0.08296661823987961,1.9407449960708618,0.31618979573249817
1725629495373487600,0.292487548828125,-0.14966706931591034,0.7318751811981201,0.29784587025642395
1725629495383520800,0.302520751953125,-0.279165655374527,-0.5434508323669434,0.22203899919986725
1725629495393554700,0.3125546875,-0.40642157196998596,-0.7782543897628784,0.11454405635595322
1725629495403588900,0.3225888671875,-0.6310866475105286,0.16334961354732513,0.001019627321511507
1725629495413622800,0.332622802734375,-0.8918538093566895,0.7348742485046387,-0.01395136583596468
1725629495423656700,0.34265673828125,-1.0277200937271118,0.8832453489303589,0.0336688831448555
1725629495433691000,0.35269091796875,-1.02469003200531,0.7761461138725281,0.17495515942573547
1725629495443724800,0.362724853515625,-0.8542948365211487,0.5502181649208069,0.4718605875968933
1725629495453758700,0.3727587890625,-0.5330719351768494,0.49303656816482544,0.8253346085548401
1725629495463793000,0.38279296875,-0.3216409683227539,0.660667359828949,1.1165008544921875
1725629495473826800,0.392826904296875,-0.46440911293029785,0.7758064270019531,1.3184257745742798
1725629495483860700,0.40286083984375,-0.7133190631866455,0.8450337052345276,1.3849488496780396
1725629495493894000,0.412893798828125,-0.8287025690078735,0.8236897587776184,1.3647029399871826
1725629495503927800,0.422927734375,-0.7310979962348938,0.3443281948566437,1.3827921152114868
1725629495513961700,0.432961669921875,-0.4561360478401184,0.008994805626571178,1.4853179454803467
1725629495523996000,0.442995849609375,-0.18467019498348236,-0.04367559775710106,1.6643644571304321
1725629495534029800,0.45302978515625,-0.10828527063131332,-0.09061042964458466,1.8564600944519043
1725629495544063700,0.463063720703125,-0.2455613762140274,-0.2412492036819458,2.0768513679504395
1725629495554097700,0.47309765625,-0.4923245906829834,-0.6172037720680237,2.3029141426086426
1725629495564131800,0.4831318359375,-0.4745621085166931,-2.220121383666992,1.9336895942687988
1725629495574165800,0.493165771484375,-0.4320392608642578,-4.007874011993408,1.2568894624710083
1725629495584199700,0.50319970703125,-0.4764631986618042,-4.274238109588623,1.0014731884002686
1725629495594233900,0.51323388671875,-0.31574586033821106,-3.9294703006744385,0.7117775678634644
1725629495604267000,0.52326708984375,-0.04957114905118942,-3.2699320316314697,0.3091656565666199
1725629495614300700,0.53330078125,-0.02629893086850643,-2.677276611328125,-0.122488833963871
1725629495624334800,0.5433349609375,-0.08756574988365173,-2.393066644668579,-0.5648215413093567
1725629495634368800,0.55336865234375,-0.1083666980266571,-1.8166133165359497,-0.9856477379798889
1725629495644402700,0.563402587890625,-0.026773834601044655,-0.6181509494781494,-1.2153117656707764
1725629495654436900,0.573436767578125,0.10317526757717133,-0.07808863371610641,-1.0411376953125
1725629495664470800,0.583470703125,0.061411574482917786,-0.050055406987667084,-0.9506275057792664
1725629495674504700,0.593504638671875,0.015517711639404297,-0.3181677460670471,-0.7642658352851868
1725629495684539000,0.603538818359375,0.05142191797494888,-0.7104377746582031,-0.5335066914558411
1725629495694572800,0.61357275390625,0.1607692986726761,-1.3690006732940674,-0.35852760076522827
1725629495704606700,0.623606689453125,0.30661144852638245,-1.8788270950317383,-0.11039183288812637
1725629495714639600,0.6336396484375,0.3618651032447815,-1.6286977529525757,0.21918469667434692
1725629495724673800,0.643673828125,0.24653132259845734,-1.076512336730957,0.5600304007530212
1725629495734707700,0.653707763671875,0.10016120970249176,-0.6444966793060303,0.7751333117485046
1725629495744741600,0.66374169921875,0.12161324173212051,-0.4319780468940735,0.8577650785446167
1725629495754775800,0.67377587890625,0.2222878485918045,-0.39689794182777405,0.8670289516448975
1725629495764809700,0.683809814453125,0.287231981754303,-0.4028972387313843,0.8520997762680054
1725629495774843600,0.69384375,0.3331416845321655,-0.6458405256271362,0.7763182520866394
1725629495784877800,0.7038779296875,0.30844777822494507,-1.0846914052963257,0.5903376936912537
1725629495794911700,0.713911865234375,0.2178410142660141,-1.2131288051605225,0.466936856508255
1725629495804945700,0.723945556640625,0.17651914060115814,-1.0327023267745972,0.39957645535469055
1725629495814979800,0.733979736328125,0.2567189931869507,-0.8239148855209351,0.35088762640953064
1725629495825012700,0.7440126953125,0.4362855553627014,-0.6601637601852417,0.2155630886554718
1725629495835046700,0.754046630859375,0.7042346596717834,-0.4999570846557617,0.08005008101463318
1725629495845080800,0.764080810546875,0.9360279440879822,-0.4221235513687134,0.0014796421164646745
1725629495855114800,0.77411474609375,1.0663588047027588,-0.44658929109573364,0.028325533494353294
1725629495865148700,0.784148681640625,1.1570158004760742,-0.5125800371170044,0.20456446707248688
1725629495875182800,0.794182861328125,1.2187391519546509,-0.6177031397819519,0.4654534161090851
1725629495885216800,0.804216796875,1.09087073802948,-0.8680016398429871,0.6893749237060547
1725629495895250700,0.814250732421875,1.0388997793197632,-1.1801995038986206,1.0102702379226685
1725629495905284900,0.824284912109375,1.2052083015441895,-1.4448652267456055,1.3727256059646606
1725629495915318800,0.83431884765625,1.4916592836380005,-1.5051295757293701,1.6892300844192505
1725629495925352000,0.84435205078125,1.8821094036102295,-1.4425750970840454,1.9333176612854004
1725629495935385600,0.854385498046875,2.433194160461426,-1.4117261171340942,2.1604816913604736
1725629495945419800,0.864419677734375,2.798192024230957,-1.3090620040893555,2.2671897411346436
1725629495955454000,0.874453857421875,2.636901617050171,-1.4924876689910889,2.180790662765503
1725629495965487600,0.884487548828125,2.316642999649048,-1.5570733547210693,2.1122477054595947
1725629495975521800,0.894521728515625,2.0769035816192627,-1.5632591247558594,2.124532699584961
1725629495985555700,0.9045556640625,1.9473801851272583,-1.5262638330459595,2.2353155612945557
1725629495995589600,0.914589599609375,1.8761649131774902,-1.2943941354751587,2.3915250301361084
1725629496005623800,0.924623779296875,1.7826110124588013,-0.8509325981140137,2.429378032684326
1725629496015657700,0.93465771484375,1.746949553489685,-0.6419419646263123,2.1675190925598145
1725629496025691600,0.944691650390625,1.7442331314086914,-0.6196361184120178,1.6528981924057007
1725629496035724800,0.954724853515625,1.6442619562149048,-0.7261422276496887,1.025259017944336
1725629496045758700,0.9647587890625,1.4664744138717651,-0.8480939269065857,0.4546763300895691
1725629496055793000,0.97479296875,1.2950299978256226,-0.8726566433906555,0.10775715112686157
1725629496065826600,0.98482666015625,1.159393548965454,-0.8167060613632202,0.0005449429154396057
1725629496075860700,0.99486083984375,1.1060593128204346,-0.7249910235404968,0.030204568058252335
1725629496085895000,1.00489501953125,1.0632460117340088,-0.7197198271751404,0.09542085975408554
1725629496095928600,1.014928466796875,1.0497267246246338,-0.6423606276512146,0.17153400182724
1725629496105962800,1.024962646484375,1.064050555229187,-0.4497338831424713,0.19439803063869476
1725629496115997000,1.034996826171875,1.0930439233779907,-0.263611376285553,0.15325412154197693
1725629496126030600,1.045030517578125,1.0781574249267578,-0.18332503736019135,0.11919867247343063
1725629496136064800,1.055064697265625,1.0531903505325317,-0.13941164314746857,0.14154845476150513
1725629496146097700,1.06509765625,1.0452468395233154,-0.12859416007995605,0.23739056289196014
1725629496156131800,1.0751318359375,1.0637480020523071,-0.03818643465638161,0.3867050111293793
1725629496166165800,1.085165771484375,1.101116418838501,0.14733175933361053,0.4830179810523987
1725629496176199700,1.09519970703125,1.1760755777359009,0.3654352128505707,0.44190502166748047
1725629496186233900,1.10523388671875,1.1777076721191406,0.42919233441352844,0.2819230854511261
1725629496196267800,1.115267822265625,1.111219882965088,0.40750810503959656,0.12313757836818695
1725629496206301700,1.1253017578125,1.0821455717086792,0.3043942153453827,-0.020040348172187805
1725629496216336000,1.1353359375,1.0538924932479858,0.14922578632831573,-0.14408770203590393
1725629496226369800,1.145369873046875,0.945554256439209,-0.06591848284006119,-0.23799288272857666
1725629496236403700,1.15540380859375,0.7600610256195068,-0.24813874065876007,-0.2771717607975006
1725629496246436900,1.165436767578125,0.658640444278717,-0.29526016116142273,-0.42386531829833984
1725629496256470800,1.175470703125,0.6285387277603149,-0.1718321293592453,-0.6997466683387756
1725629496266504700,1.185504638671875,0.7067089080810547,0.131496861577034,-0.9818283915519714
1725629496276539000,1.195538818359375,0.8878636360168457,0.3340624272823334,-1.2069506645202637
1725629496286572800,1.20557275390625,1.139569640159607,0.3555075228214264,-1.2162607908248901
1725629496296606700,1.215606689453125,1.4036682844161987,0.1643308699131012,-1.0185314416885376
1725629496306641200,1.22564111328125,1.5783271789550781,-0.1581968367099762,-0.6416702270507812
1725629496316675000,1.235675048828125,1.691961407661438,-0.47404247522354126,-0.13341735303401947
1725629496326709000,1.245708984375,1.8787603378295898,-0.791180431842804,0.4253559112548828
1725629496336743200,1.2557431640625,2.23209285736084,-1.200596570968628,0.9788572788238525
1725629496346777000,1.265777099609375,2.877908229827881,-1.8839690685272217,1.682096004486084
1725629496356810000,1.27581005859375,3.363804817199707,-2.1085827350616455,2.3165950775146484
1725629496366844200,1.28584423828125,3.5163702964782715,-1.517396092414856,2.4604153633117676
1725629496376878300,1.29587841796875,3.7998175621032715,-0.5881175994873047,2.211069345474243
1725629496386912000,1.305912109375,3.7484471797943115,0.11661102622747421,1.9233367443084717
1725629496396946200,1.3159462890625,4.291587829589844,0.1545068323612213,1.8353708982467651
1725629496406980000,1.32597998046875,5.000255107879639,0.23748959600925446,1.9695087671279907
1725629496417014000,1.336013916015625,5.682272911071777,0.6197419166564941,2.2704050540924072
1725629496427048200,1.346048095703125,6.07070255279541,0.716890275478363,2.5669941902160645
1725629496437082000,1.35608203125,6.073404312133789,0.6668273210525513,2.7576043605804443
1725629496447116000,1.366115966796875,5.917453289031982,0.6166541576385498,2.8755552768707275
1725629496457150200,1.376150146484375,5.811628818511963,0.4758330285549164,2.9693191051483154
1725629496467183000,1.38618310546875,5.713918209075928,0.26698634028434753,2.9658596515655518
1725629496477217300,1.39621728515625,5.703667640686035,-0.015403072349727154,2.9944043159484863
1725629496487251000,1.4062509765625,5.779490947723389,-0.5004749894142151,3.0315957069396973
1725629496497285000,1.41628515625,5.819670677185059,-1.1231356859207153,3.106971025466919
1725629496507319300,1.4263193359375,5.816608428955078,-1.7115733623504639,3.2697336673736572
1725629496517353000,1.43635302734375,5.698945999145508,-2.1976664066314697,3.390820026397705
1725629496527387100,1.44638720703125,5.400765419006348,-2.3404617309570312,3.371948003768921
1725629496537421300,1.45642138671875,5.007418155670166,-2.476925849914551,3.2834208011627197
1725629496547455000,1.466455078125,4.623905658721924,-2.4756078720092773,3.233689785003662
1725629496557489200,1.4764892578125,4.158925533294678,-2.377894401550293,3.048915147781372
1725629496567522000,1.48652197265625,3.660834789276123,-2.205878496170044,2.672539234161377
1725629496577556200,1.49655615234375,3.1898033618927,-2.240483045578003,2.194843053817749
1725629496587590100,1.506590087890625,2.7144181728363037,-2.2458033561706543,1.6618186235427856
1725629496597624000,1.5166240234375,2.2781124114990234,-2.1936118602752686,0.960464358329773
1725629496607658200,1.526658203125,1.9352140426635742,-2.0187785625457764,0.16155651211738586
1725629496617692200,1.536692138671875,1.557592749595642,-1.8330626487731934,-0.688424825668335
1725629496627726000,1.54672607421875,1.122302532196045,-1.7093771696090698,-1.5697979927062988
1725629496637760300,1.55676025390625,0.7150136828422546,-1.5096104145050049,-2.0099213123321533
1725629496647794200,1.566794189453125,0.3870249092578888,-1.3706905841827393,-1.901904582977295
1725629496657828000,1.576828125,0.2658576965332031,-1.4975130558013916,-1.5128567218780518
1725629496667862300,1.5868623046875,0.018582399934530258,-1.6613792181015015,-1.1643868684768677
1725629496677895200,1.596895263671875,-0.15556083619594574,-1.8177391290664673,-0.920847475528717
1725629496687929000,1.60692919921875,-0.05287519469857216,-2.0788283348083496,-1.0762660503387451
1725629496697963300,1.61696337890625,0.17612053453922272,-2.187391757965088,-1.9777919054031372
1725629496707997200,1.6269970703125,0.4460507929325104,-1.5530946254730225,-1.5531127452850342
1725629496718031000,1.637031005859375,0.45189300179481506,-1.3285692930221558,-0.7773057818412781
1725629496728065300,1.647065185546875,-0.22373948991298676,-1.3663865327835083,-0.39489078521728516
1725629496738099200,1.65709912109375,-1.105884313583374,-1.5523536205291748,-0.5718495845794678
1725629496748133000,1.667133056640625,-1.1714284420013428,-1.3554396629333496,-0.9274370074272156
1725629496758167000,1.6771669921875,-0.9869083166122437,-0.6796742677688599,-1.0267480611801147
1725629496768201200,1.687201171875,-0.6056613922119141,0.14520499110221863,-0.8561089634895325
1725629496778235100,1.697235107421875,0.028071867302060127,0.26820191740989685,-0.43178921937942505
1725629496788268000,1.70726806640625,0.5642948150634766,0.027539510279893875,0.28836628794670105
1725629496798302200,1.71730224609375,1.1068981885910034,-0.6793349385261536,1.1851236820220947
1725629496808336400,1.72733642578125,1.1919260025024414,-1.607576847076416,1.9517018795013428
1725629496818370000,1.7373701171875,1.2084648609161377,-1.9721826314926147,2.3986213207244873
1725629496828404200,1.747404296875,1.6911430358886719,-1.7402263879776,2.6003360748291016
1725629496838438100,1.757438232421875,2.1157960891723633,-1.5338298082351685,2.416261911392212
1725629496848472000,1.76747216796875,2.130825996398926,-1.7583109140396118,2.138861656188965
1725629496858506200,1.77750634765625,1.558376669883728,-1.988490343093872,2.0200817584991455
1725629496868540200,1.7875400390625,1.0985150337219238,-0.8761796355247498,1.5366935729980469
1725629496878574000,1.797573974609375,0.7175742983818054,0.4038563668727875,1.2307158708572388
1725629496888607000,1.80760693359375,0.37414583563804626,1.5398690700531006,1.0032217502593994
1725629496898641200,1.81764111328125,0.06286501884460449,2.310718536376953,0.787666916847229
1725629496908675000,1.827675048828125,-0.16982363164424896,2.721949338912964,0.780273973941803
1725629496918709000,1.837708984375,-0.3339675962924957,2.7181951999664307,0.9455800652503967
1725629496928743200,1.8477431640625,-0.3757792115211487,2.5287997722625732,1.0983786582946777
1725629496938777000,1.857777099609375,-0.5077704787254333,2.2291805744171143,1.2651934623718262
1725629496948811000,1.86781103515625,-0.775752604007721,2.6386568546295166,1.0589886903762817
1725629496958845200,1.87784521484375,-0.6102371215820312,2.725980758666992,0.518822968006134
1725629496968879000,1.887879150390625,-0.27957236766815186,2.6889052391052246,-0.1377386748790741
1725629496978913000,1.8979130859375,0.15076933801174164,2.686265468597412,-0.8086128830909729
1725629496988947200,1.907947265625,0.4798777103424072,2.7840397357940674,-1.3294134140014648
1725629496998980000,1.91797998046875,0.6951884627342224,3.02355694770813,-1.71383798122406
1725629497009014000,1.928013916015625,1.0849153995513916,3.086618661880493,-1.8666131496429443
1725629497019048200,1.938048095703125,1.5480101108551025,2.908139705657959,-1.9766514301300049
1725629497029082000,1.94808203125,1.978402853012085,2.4462690353393555,-2.080578565597534
1725629497039116000,1.958115966796875,2.1696619987487793,2.3247742652893066,-2.1836488246917725
1725629497049150200,1.968150146484375,2.0288028717041016,2.8861427307128906,-2.4703876972198486
1725629497059184000,1.97818408203125,1.9552249908447266,2.92299747467041,-2.56559419631958
1725629497069218000,1.988218017578125,1.5485422611236572,2.9501311779022217,-2.5874581336975098
1725629497079252200,1.998252197265625,0.9190226197242737,3.0681402683258057,-2.5191993713378906
1725629497089286100,2.0082861328125,0.3711853325366974,2.927915573120117,-2.1388721466064453
1725629497099320000,2.018320068359375,-0.21795916557312012,2.770451784133911,-1.5654454231262207
1725629497109353000,2.02835302734375,-0.806056797504425,2.544085741043091,-0.9162599444389343
1725629497119387100,2.03838720703125,-1.3029628992080688,2.2203898429870605,-0.3205537497997284
1725629497129421300,2.04842138671875,-1.59477961063385,2.062159299850464,-0.0026290284004062414
1725629497139455000,2.058455078125,-1.718144416809082,1.8991504907608032,-0.019855812191963196
1725629497149489200,2.0684892578125,-1.7574025392532349,1.8755394220352173,-0.182661771774292
1725629497159523300,2.0785234375,-1.7284855842590332,2.1548168659210205,-0.4923975169658661
1725629497169557000,2.088556884765625,-1.636356234550476,2.3680002689361572,-0.8471127152442932
1725629497179591200,2.098591064453125,-1.6169536113739014,2.5075645446777344,-1.1651980876922607
1725629497189625000,2.108625,-1.8241575956344604,2.594830274581909,-1.474733591079712
1725629497199659000,2.118658935546875,-2.1176369190216064,2.6222541332244873,-1.709198236465454
1725629497209693200,2.128693115234375,-2.446934223175049,2.3807718753814697,-1.7360986471176147
1725629497219726000,2.13872607421875,-2.8546130657196045,1.773781418800354,-1.4246034622192383
1725629497229760300,2.14876025390625,-3.070495128631592,0.9835298657417297,-1.063277244567871
1725629497239794200,2.158794189453125,-3.1564228534698486,0.5720340609550476,-0.8019307851791382
1725629497249828000,2.168828125,-3.4185073375701904,0.45593225955963135,-0.5629703998565674
1725629497259862300,2.1788623046875,-3.4897537231445312,0.47298377752304077,-0.36264652013778687
1725629497269896000,2.18889599609375,-3.2791874408721924,0.3938141167163849,-0.2484576255083084
1725629497279930000,2.19893017578125,-2.829896926879883,0.33282485604286194,0.053926996886730194
1725629497289964300,2.20896435546875,-2.1261346340179443,1.3924425840377808,1.03689706325531
1725629497299998000,2.218998046875,-1.930883765220642,1.2448976039886475,1.7960622310638428
1725629497310032100,2.2290322265625,-1.6785032749176025,0.2445932924747467,2.109646797180176
1725629497320066300,2.23906640625,-1.3953070640563965,-1.1066491603851318,1.7922457456588745
1725629497330099200,2.24909912109375,-1.132188081741333,-2.67172908782959,0.833403468132019
1725629497340133000,2.259133056640625,-0.316380113363266,-3.451939344406128,0.13446487486362457
1725629497350167000,2.2691669921875,0.5594395399093628,-3.488842248916626,-0.23784451186656952
1725629497360201200,2.279201171875,1.016717791557312,-3.3839871883392334,-0.2791385352611542
1725629497370235100,2.289235107421875,1.448898434638977,-3.0024611949920654,-0.1567455232143402
1725629497380269000,2.29926904296875,1.5333263874053955,-2.3595285415649414,-0.13222581148147583
1725629497390303200,2.30930322265625,1.2687957286834717,-1.5989019870758057,0.24851620197296143
1725629497400337200,2.319337158203125,1.196016550064087,-0.5294170379638672,1.0575945377349854
1725629497410371000,2.32937109375,1.2551862001419067,-0.018221961334347725,1.6617411375045776
1725629497420405200,2.3394052734375,1.4456793069839478,0.13028420507907867,1.8915255069732666
1725629497430439200,2.349439208984375,1.4784737825393677,0.1224055141210556,2.0630483627319336
1725629497440473000,2.35947314453125,1.3448323011398315,-0.3404807150363922,2.323195219039917
1725629497450506200,2.36950634765625,1.1725438833236694,-1.3148058652877808,2.55175518989563
1725629497460540200,2.3795400390625,1.0624938011169434,-2.180173873901367,2.633406400680542
1725629497470574000,2.389573974609375,1.0822120904922485,-2.4673168659210205,2.423213243484497
1725629497480608300,2.399608154296875,1.120778203010559,-2.1811203956604004,1.9269564151763916
1725629497490642200,2.40964208984375,0.9245086312294006,-2.3805367946624756,1.653545618057251
1725629497500676000,2.419676025390625,-0.013766784220933914,-3.6778087615966797,1.893267035484314
1725629497510710300,2.429710205078125,-1.3744529485702515,-4.905599117279053,2.209050416946411
1725629497520744200,2.439744140625,-1.697047233581543,-3.9303853511810303,1.7926716804504395
1725629497530778000,2.449778076171875,-1.0743248462677002,-2.781067132949829,1.588954210281372
1725629497540812300,2.459812255859375,-0.4500132203102112,-2.3381447792053223,1.641631841659546
1725629497550846200,2.46984619140625,-0.23712065815925598,-2.2108304500579834,1.5622354745864868
1725629497560879000,2.479879150390625,-0.1955125629901886,-2.205864191055298,1.5641632080078125
1725629497570913000,2.4899130859375,-0.2521340250968933,-2.4838709831237793,1.640816330909729
1725629497580947200,2.499947265625,-0.4230644404888153,-2.6563241481781006,1.5366886854171753
1725629497590981000,2.509981201171875,-0.6654475331306458,-2.5646753311157227,1.2142595052719116
1725629497601015000,2.52001513671875,-0.8780205845832825,-2.168508529663086,0.768534779548645
1725629497611049200,2.53004931640625,-1.0737262964248657,-1.6464776992797852,0.3565632104873657
1725629497621083100,2.540083251953125,-1.3111294507980347,-1.2531567811965942,0.02526199258863926
1725629497631117000,2.550116943359375,-1.4257268905639648,-0.9982882142066956,-0.09718029946088791
1725629497641151200,2.560151123046875,-1.3680864572525024,-0.6531530022621155,-0.34753116965293884
1725629497651185200,2.57018505859375,-1.238782525062561,-0.03195444867014885,-0.4593122899532318
1725629497661219000,2.580218994140625,-1.3645672798156738,0.34322112798690796,-0.2852233946323395
1725629497671252200,2.590252197265625,-1.7255922555923462,0.47250986099243164,-0.017400728538632393
1725629497681286100,2.6002861328125,-1.3788200616836548,0.9345235824584961,0.06066150218248367
1725629497691320000,2.610320068359375,-0.48038995265960693,0.46780937910079956,0.2890555262565613
1725629497701354000,2.62035400390625,0.7147483229637146,-1.1152338981628418,0.7016283869743347
1725629497711388200,2.63038818359375,1.7514535188674927,-2.9842052459716797,1.4579291343688965
1725629497721422000,2.640422119140625,1.5116817951202393,-4.52269983291626,2.399451494216919
1725629497731456000,2.6504560546875,0.8041853308677673,-5.268342018127441,3.0140814781188965
1725629497741490200,2.660490234375,0.503671407699585,-5.732110977172852,2.967688798904419
1725629497751524000,2.670524169921875,0.1725829541683197,-4.208597660064697,2.3688442707061768
1725629497761558000,2.68055810546875,-0.5949198603630066,-2.3135128021240234,0.46588581800460815
1725629497771592200,2.69059228515625,-1.1994414329528809,-1.9517830610275269,-1.819929838180542
1725629497781625000,2.700625,-0.6832099556922913,-2.3794760704040527,-2.675225019454956
1725629497791659000,2.710658935546875,-0.13578037917613983,-1.9435813426971436,-2.17942476272583
1725629497801693200,2.720693115234375,-0.4807269275188446,-1.3251574039459229,-1.6748658418655396
1725629497811727000,2.73072705078125,-0.8123144507408142,-0.49221065640449524,-0.9979311227798462
1725629497821761000,2.740760986328125,-0.7049394845962524,0.6140221357345581,-0.30672505497932434
1725629497831795200,2.750795166015625,-0.5027440190315247,1.1654911041259766,0.14433079957962036
1725629497841829000,2.7608291015625,-0.41931089758872986,1.056482195854187,0.343435138463974
1725629497851863000,2.770863037109375,-0.5465639233589172,-0.09215138852596283,0.37790414690971375
1725629497861897200,2.780897216796875,-0.6266922950744629,-1.3118723630905151,0.30836305022239685
1725629497871931100,2.79093115234375,-0.6547330021858215,-1.7797666788101196,0.3399353325366974
1725629497881965000,2.800965087890625,-0.6586157083511353,-1.697309136390686,0.4481029808521271
1725629497891998000,2.810998046875,-0.59251469373703,-1.4571471214294434,0.5064967274665833
1725629497902032100,2.8210322265625,-0.5602336525917053,-1.1869035959243774,0.5153916478157043
1725629497912066300,2.83106640625,-0.5368191003799438,-1.1523774862289429,0.473844438791275
1725629497922100000,2.841099853515625,-0.4564051926136017,-1.3539049625396729,0.42361289262771606
1725629497932134100,2.851134033203125,-0.33670276403427124,-1.5289298295974731,0.4045340120792389
1725629497942168300,2.861168212890625,-0.2501695454120636,-1.5188966989517212,0.4060790240764618
1725629497952202000,2.871201904296875,-0.09557145833969116,-1.7144638299942017,0.40711739659309387
1725629497962236200,2.881236083984375,0.17067348957061768,-1.9246814250946045,0.5470061898231506
1725629497972270300,2.891270263671875,0.5748593211174011,-1.5345118045806885,0.7862984538078308
1725629497982304000,2.901303955078125,1.109797716140747,0.20304623246192932,0.9732568264007568
1725629497992337200,2.911337158203125,1.4129730463027954,0.9185689091682434,1.3093512058258057
1725629498002371000,2.92137109375,0.8743187189102173,1.3169779777526855,1.4510307312011719
1725629498012405200,2.9314052734375,0.23454409837722778,1.7088671922683716,1.3389055728912354
1725629498022439200,2.941439208984375,-0.16361507773399353,2.0406343936920166,0.9623080492019653
1725629498032473000,2.95147314453125,-0.4032737612724304,2.1694233417510986,0.30040469765663147
1725629498042507300,2.96150732421875,-0.4339354634284973,1.9471633434295654,-0.505415678024292
1725629498052541200,2.971541259765625,-0.44167008996009827,1.6358697414398193,-1.358327031135559
1725629498062575000,2.9815751953125,-0.5494517087936401,1.6343060731887817,-2.0436482429504395
1725629498072609300,2.991609375,-0.7220165729522705,1.67560875415802,-2.5429458618164062
1725629498082643000,3.001642822265625,-0.8027719259262085,0.7508074045181274,-2.8628029823303223
1725629498092677000,3.011677001953125,-0.714560866355896,-0.5803995132446289,-2.9698758125305176
1725629498102710300,3.021710205078125,-0.33208340406417847,-0.8458627462387085,-2.5348658561706543
1725629498112744200,3.031744140625,0.4160446226596832,-0.09832672029733658,-1.6943119764328003
1725629498122778000,3.041778076171875,0.8934630155563354,0.3051104247570038,-0.6982741355895996
1725629498132812300,3.051812255859375,0.8603487610816956,0.19945457577705383,0.1783684492111206
1725629498142846200,3.06184619140625,0.822752058506012,0.1345960795879364,0.7048248648643494
1725629498152880000,3.071880126953125,0.8904932737350464,0.2355828881263733,0.9020127654075623
1725629498162914000,3.0819140625,0.9074018001556396,0.269547700881958,0.8582150340080261
1725629498172948200,3.0919482421875,0.8375515937805176,0.10828635096549988,0.5950084328651428
1725629498182982100,3.101982177734375,0.6882501840591431,-0.07132910937070847,0.22457140684127808
1725629498193016000,3.11201611328125,0.49329477548599243,-0.045700713992118835,-0.10387279093265533
1725629498203050200,3.12205029296875,0.3248678147792816,0.025662317872047424,-0.27930283546447754
1725629498213083100,3.132083251953125,0.22813673317432404,0.032410766929388046,-0.2735554575920105
1725629498223117000,3.142116943359375,0.20846685767173767,0.020091231912374496,-0.1478067934513092
1725629498233151200,3.152151123046875,0.24315346777439117,0.08066003769636154,0.031977079808712006
1725629498243185200,3.16218505859375,0.3377552032470703,0.1873680204153061,0.2003728449344635
1725629498253219000,3.172218994140625,0.452061265707016,0.22508956491947174,0.30448538064956665
1725629498263253200,3.182253173828125,0.5522456765174866,0.19901472330093384,0.36547380685806274
1725629498273287200,3.192287109375,0.6066298484802246,0.22357413172721863,0.4119766056537628
1725629498283321000,3.202321044921875,0.6625469326972961,0.32250988483428955,0.3763898015022278
1725629498293355300,3.212355224609375,0.6794484257698059,0.25955384969711304,0.3529997766017914
1725629498303389200,3.22238916015625,0.6199115514755249,0.18325814604759216,0.3573864996433258
1725629498313423600,3.232423583984375,0.5506094694137573,0.10003542900085449,0.39722687005996704
1725629498323456500,3.24245654296875,0.5077694654464722,0.020556751638650894,0.43775761127471924
1725629498333490700,3.25249072265625,0.5725628137588501,-0.005201075226068497,0.40724870562553406
1725629498343524400,3.2625244140625,0.7341645359992981,0.002051372779533267,0.2550128102302551
1725629498353558500,3.27255859375,0.8998083472251892,-0.04475155472755432,0.042956456542015076
1725629498363592700,3.2825927734375,0.9632617235183716,-0.15169787406921387,-0.08500159531831741
1725629498373626400,3.29262646484375,0.9559457898139954,-0.2232423722743988,-0.1311991810798645
1725629498383660500,3.30266064453125,0.9607664942741394,-0.32885780930519104,-0.1441756784915924
1725629498393694700,3.31269482421875,1.0208325386047363,-0.46508195996284485,-0.15356332063674927
1725629498403728400,3.322728271484375,1.098602056503296,-0.5721408724784851,-0.17128030955791473
1725629498413762600,3.332762451171875,1.1428505182266235,-0.6387510895729065,-0.14433497190475464
1725629498423796700,3.342796630859375,1.117164134979248,-0.6626524925231934,-0.08896289765834808
1725629498433829600,3.35282958984375,1.0631592273712158,-0.5762686133384705,0.012440150603652
1725629498443863600,3.362863525390625,0.9540995955467224,-0.35068291425704956,0.0751677080988884
1725629498453897500,3.3728974609375,0.7876427173614502,0.1088431254029274,0.13469281792640686
1725629498463931600,3.382931640625,0.6498813629150391,0.585380494594574,0.17135854065418243
1725629498473965600,3.392965576171875,0.5569173693656921,0.8465180993080139,0.1767226755619049
1725629498483999500,3.40299951171875,0.5096913576126099,0.909813642501831,0.15447098016738892
1725629498494033700,3.41303369140625,0.47635573148727417,0.8994653820991516,0.12204673141241074
1725629498504067600,3.423067626953125,0.5390992760658264,0.8559762239456177,0.05190672352910042
1725629498514101500,3.4331015625,0.5960797667503357,0.6890751123428345,-0.07148871570825577
1725629498524135700,3.4431357421875,0.5038783550262451,0.567563533782959,-0.24530522525310516
1725629498534168600,3.45316845703125,0.26886558532714844,0.42358025908470154,-0.3750062584877014
1725629498544202500,3.463202392578125,-0.0009002377046272159,0.23888958990573883,-0.41121068596839905
1725629498554236700,3.473236572265625,-0.21590149402618408,0.07596326619386673,-0.3835316598415375
1725629498564270600,3.4832705078125,-0.3274715542793274,-0.005440325476229191,-0.37041234970092773
1725629498574304500,3.493304443359375,-0.38100695610046387,-0.026984499767422676,-0.3734728693962097
1725629498584338700,3.503338623046875,-0.43585023283958435,-0.042110081762075424,-0.35895487666130066
1725629498594372600,3.51337255859375,-0.44946375489234924,-0.06014341115951538,-0.30273208022117615
1725629498604406500,3.523406494140625,-0.4268893599510193,-0.05960521474480629,-0.24946357309818268
1725629498614440400,3.5334404296875,-0.41438767313957214,-0.061689939349889755,-0.16878817975521088
1725629498624474600,3.543474609375,-0.4000313878059387,-0.09396345168352127,-0.02485443837940693
1725629498634508500,3.553508544921875,-0.4282475709915161,-0.15861275792121887,0.11272738873958588
1725629498644541400,3.56354150390625,-0.47523045539855957,-0.37338119745254517,0.24918867647647858
1725629498654575600,3.57357568359375,-0.5415306687355042,-0.5461918711662292,0.382914274930954
1725629498664609800,3.58360986328125,-0.5586594343185425,-0.7694138288497925,0.5221694111824036
1725629498674643500,3.5936435546875,-0.5517048835754395,-0.9242886304855347,0.634000837802887
1725629498684677600,3.603677734375,-0.5005283355712891,-1.0026252269744873,0.7215513586997986
1725629498694711600,3.613711669921875,-0.4221656322479248,-0.9960381388664246,0.8072476387023926
1725629498704745500,3.623745361328125,-0.33979615569114685,-1.1730239391326904,0.8846670985221863
1725629498714779600,3.633779541015625,-0.35305631160736084,-1.4202227592468262,0.8895670175552368
1725629498724813600,3.6438134765625,-0.48761677742004395,-1.2277400493621826,0.8101226687431335
1725629498734847500,3.653847412109375,-0.7257867455482483,-0.6972481608390808,0.6303371787071228
1725629498744881700,3.663881591796875,-1.0032460689544678,-0.17806032299995422,0.31304311752319336
1725629498754914600,3.67391455078125,-1.2544280290603638,0.22264660894870758,-0.06749407947063446
1725629498764948500,3.683948486328125,-1.426674723625183,0.6445596218109131,-0.4487777650356293
1725629498774982400,3.693982421875,-1.529121994972229,1.034029245376587,-0.7725446224212646
1725629498785016600,3.7040166015625,-1.5212531089782715,1.2432689666748047,-0.989834189414978
1725629498795050500,3.714050537109375,-1.4637224674224854,1.291974425315857,-1.0594440698623657
1725629498805084400,3.72408447265625,-1.3541339635849,1.2671176195144653,-0.9875004291534424
1725629498815118600,3.73411865234375,-1.2501076459884644,1.2449833154678345,-0.7955296635627747
1725629498825152500,3.744152587890625,-1.1102441549301147,1.3075098991394043,-0.5652846097946167
1725629498835186400,3.7541865234375,-0.9558140635490417,1.416923999786377,-0.36457815766334534
1725629498845220600,3.764220703125,-0.8068243861198425,1.5089871883392334,-0.2265433967113495
1725629498855253500,3.77425341796875,-0.685070812702179,1.5776385068893433,-0.16561958193778992
1725629498865287400,3.784287353515625,-0.6475207209587097,1.6375367641448975,-0.15048201382160187
1725629498875321600,3.794321533203125,-0.6433382630348206,1.6682627201080322,-0.17278440296649933
1725629498885355500,3.80435546875,-0.6631605625152588,1.7154346704483032,-0.20004716515541077
1725629498895389400,3.814389404296875,-0.6331222057342529,1.7290383577346802,-0.22390562295913696
1725629498905423600,3.824423583984375,-0.5686266422271729,1.6747771501541138,-0.26784422993659973
1725629498915457500,3.83445751953125,-0.5206902623176575,1.510746717453003,-0.2928510308265686
1725629498925491500,3.844491455078125,-0.47859987616539,1.250714659690857,-0.31377503275871277
1725629498935525600,3.854525634765625,-0.4537845253944397,0.9589224457740784,-0.3117832541465759
1725629498945559600,3.8645595703125,-0.442516028881073,0.695472240447998,-0.29683542251586914
1725629498955593500,3.874593505859375,-0.42316922545433044,0.5006023645401001,-0.24567289650440216
1725629498965626400,3.88462646484375,-0.3781788647174835,0.3787897825241089,-0.14959274232387543
1725629498975660500,3.89466064453125,-0.36244624853134155,0.33681729435920715,-0.028576035052537918
1725629498985694700,3.90469482421875,-0.4764954447746277,0.44809746742248535,0.11573894321918488
1725629498995728400,3.914728271484375,-0.632944643497467,0.6726970076560974,0.19228512048721313
1725629499005762600,3.924762451171875,-0.7528337240219116,0.9803497195243835,0.17713364958763123
1725629499015796700,3.934796630859375,-0.8233017921447754,1.329404354095459,0.12262406945228577
1725629499025830400,3.944830322265625,-0.8780360817909241,1.6927368640899658,0.099256731569767
1725629499035864600,3.954864501953125,-0.9063790440559387,2.0923147201538086,0.12159612774848938
1725629499045898800,3.964898681640625,-0.8981606960296631,2.4183528423309326,0.20418179035186768
1725629499055932400,3.974932373046875,-0.8392584919929504,2.6669492721557617,0.3140110969543457
1725629499065966600,3.984966552734375,-0.6969594359397888,2.8945367336273193,0.4173775911331177
1725629499075999500,3.99499951171875,-0.4702964723110199,3.0321288108825684,0.5527080297470093
1725629499086033700,4.00503369140625,-0.19899924099445343,2.9503347873687744,0.6842972040176392
1725629499096067600,4.015067626953125,0.1060035452246666,2.6536333560943604,0.700519323348999
1725629499106101500,4.0251015625,0.362161785364151,2.2364370822906494,0.5838996171951294
1725629499116135700,4.0351357421875,0.5274847149848938,1.8034342527389526,0.3993569314479828
1725629499126169300,4.04516943359375,0.6175400614738464,1.3528183698654175,0.20314210653305054
1725629499136203500,4.05520361328125,0.6093912720680237,0.9783745408058167,-0.017697585746645927
1725629499146237700,4.06523779296875,0.5038990378379822,0.6463766098022461,-0.29199060797691345
1725629499156271400,4.075271240234375,0.3749614953994751,0.34028297662734985,-0.5620732307434082
1725629499166305500,4.085305419921875,0.2709670662879944,0.07826824486255646,-0.7454750537872314
1725629499176338700,4.095338623046875,0.2328633815050125,-0.14551426470279694,-0.8419187664985657
1725629499186372600,4.10537255859375,0.24214760959148407,-0.32651323080062866,-0.8813936114311218
1725629499196406500,4.115406494140625,0.2568730413913727,-0.4368301331996918,-0.8900899291038513
1725629499206440400,4.1254404296875,0.23440921306610107,-0.49234071373939514,-0.9119365215301514
1725629499216474600,4.135474609375,0.24825233221054077,-0.43793606758117676,-0.9182777404785156
1725629499226508500,4.145508544921875,0.3359656035900116,-0.30392152070999146,-0.8914000391960144
1725629499236542500,4.15554248046875,0.4787887930870056,-0.1348496824502945,-0.7870661616325378
1725629499246576600,4.16557666015625,0.6406658887863159,0.08894093334674835,-0.600315511226654
1725629499256610600,4.175610595703125,0.7811422944068909,0.3179861307144165,-0.3895164430141449
1725629499266644500,4.18564453125,0.8600062727928162,0.4082350730895996,-0.23695634305477142
1725629499276678700,4.1956787109375,0.8473429679870605,0.31569769978523254,-0.21391388773918152
1725629499286711600,4.205711669921875,0.7790435552597046,0.17909777164459229,-0.3000231981277466
1725629499296745500,4.215745361328125,0.6652205586433411,0.05576411634683609,-0.3975204527378082
1725629499306779600,4.225779541015625,0.5541408061981201,-0.03667031228542328,-0.4472772777080536
1725629499316813000,4.23581298828125,0.47702786326408386,-0.09448406845331192,-0.5798854231834412
1725629499326846700,4.2458466796875,0.3943416476249695,-0.286066472530365,-0.6735605001449585
1725629499336881000,4.255880859375,0.336211234331131,-0.42114415764808655,-0.682945728302002
1725629499346915000,4.2659150390625,0.3079243302345276,-0.41702842712402344,-0.6717580556869507
1725629499356948700,4.27594873046875,0.3155582845211029,-0.3249205946922302,-0.7229011654853821
1725629499366983000,4.28598291015625,0.3834366500377655,-0.21218380331993103,-0.8827193379402161
1725629499377017000,4.29601708984375,0.5403855443000793,-0.13689517974853516,-1.1145412921905518
1725629499387050800,4.30605078125,0.7450838685035706,-0.10892151296138763,-1.382754921913147
1725629499397084000,4.316083984375,0.8533101677894592,-0.16766339540481567,-1.5840277671813965
1725629499407117800,4.326117919921875,0.9322397112846375,-0.27035006880760193,-1.6707478761672974
1725629499417152000,4.336152099609375,1.014578104019165,-0.3994414806365967,-1.6347973346710205
1725629499427186000,4.34618603515625,1.021096110343933,-0.3323177993297577,-1.657375454902649
1725629499437219800,4.3562197265625,1.0539292097091675,-0.21086594462394714,-1.7933343648910522
1725629499447254000,4.36625390625,1.045430064201355,-0.05971091613173485,-1.973321795463562
1725629499457288000,4.376287841796875,0.9585026502609253,-0.03884638100862503,-2.0959887504577637
1725629499467321900,4.38632177734375,0.9150385856628418,-0.1311967670917511,-2.1357927322387695
1725629499477356000,4.39635595703125,0.8570882081985474,-0.1955275535583496,-2.121936321258545
1725629499487390000,4.406389892578125,0.7992700338363647,-0.3001639246940613,-1.9909656047821045
1725629499497424000,4.416423828125,0.6920546293258667,-0.39233726263046265,-1.7550936937332153
1725629499507457000,4.42645703125,0.6059949398040771,-0.3536815643310547,-1.5593136548995972
1725629499517491000,4.436490966796875,0.5293885469436646,-0.2004467248916626,-1.4986357688903809
1725629499527524900,4.44652490234375,0.4986167848110199,0.02781430073082447,-1.6100735664367676
1725629499537559000,4.45655908203125,0.5028256177902222,0.22571620345115662,-1.772816777229309
1725629499547593000,4.466593017578125,0.4989210069179535,0.3562798500061035,-1.9423750638961792
1725629499557627000,4.476626953125,0.40323203802108765,0.33740895986557007,-1.9708118438720703
1725629499567661000,4.4866611328125,0.2904106378555298,0.34551703929901123,-1.7864971160888672
1725629499577695000,4.496695068359375,0.21306926012039185,0.42536526918411255,-1.5518783330917358
1725629499587729000,4.50672900390625,0.14265230298042297,0.5494590401649475,-1.3912811279296875
1725629499597762800,4.5167626953125,0.04013951122760773,0.6279871463775635,-1.289578914642334
1725629499607797000,4.526796875,-0.07961447536945343,0.6815379858016968,-1.156615138053894
1725629499617830100,4.536830078125,-0.16076898574829102,0.7394758462905884,-0.9981321692466736
1725629499627863800,4.54686376953125,-0.2375498116016388,0.7434194684028625,-0.8319255709648132
1725629499637898000,4.55689794921875,-0.30950281023979187,0.6362136006355286,-0.6451639533042908
1725629499647932200,4.56693212890625,-0.3758038878440857,0.5065373182296753,-0.41771334409713745
1725629499657965800,4.5769658203125,-0.4554728865623474,0.35239970684051514,-0.1695740967988968
1725629499668000000,4.587,-0.5304924249649048,0.18204107880592346,0.05843488872051239
1725629499678034000,4.597033935546875,-0.5679604411125183,0.07689201831817627,0.2854054570198059
1725629499688067800,4.60706787109375,-0.5457137823104858,0.03334904834628105,0.4918689727783203
1725629499698102000,4.61710205078125,-0.5524560809135437,0.024396300315856934,0.6907826066017151
1725629499708136000,4.627135986328125,-0.6244827508926392,0.07191312313079834,0.891082227230072
1725629499718169900,4.637169921875,-0.6313992142677307,0.1328984498977661,1.085283875465393
1725629499728202800,4.64720263671875,-0.6173369884490967,0.21869121491909027,1.2568472623825073
1725629499738237000,4.65723681640625,-0.6882740259170532,0.31062859296798706,1.4091992378234863
1725629499748271000,4.66727099609375,-0.7325408458709717,0.3325437903404236,1.5661216974258423
1725629499758304800,4.6773046875,-0.6684103608131409,0.3519563674926758,1.7340140342712402
1725629499768339000,4.6873388671875,-0.5780954360961914,0.361545592546463,1.8854665756225586
1725629499778373000,4.697373046875,-0.48809465765953064,0.3293423652648926,1.9895249605178833
1725629499788406800,4.70740673828125,-0.40808185935020447,0.24360667169094086,2.0334253311157227
1725629499798441000,4.71744091796875,-0.4480961263179779,0.06286352872848511,2.0239155292510986
1725629499808475100,4.72747509765625,-0.590325117111206,-0.13034558296203613,1.9684542417526245
1725629499818508800,4.7375087890625,-0.687383770942688,-0.2494855672121048,1.8292430639266968
1725629499828543000,4.74754296875,-0.7647865414619446,-0.2687978148460388,1.555526852607727
1725629499838575900,4.757575927734375,-0.8365454077720642,-0.1852957159280777,1.157533884048462
1725629499848610000,4.767610107421875,-0.8496873378753662,-0.04753902181982994,0.714443027973175
1725629499858644000,4.77764404296875,-0.8063393235206604,0.22702409327030182,0.32644975185394287
1725629499868678000,4.787677978515625,-0.742706298828125,0.38207194209098816,0.12506535649299622
1725629499878712000,4.797712158203125,-0.5978079438209534,0.36899635195732117,0.17944177985191345
1725629499888746000,4.80774609375,-0.4180282950401306,0.32489272952079773,0.33753591775894165
1725629499898780000,4.81777978515625,-0.2478131353855133,0.10775668919086456,0.4809010624885559
1725629499908814000,4.82781396484375,-0.08234258741140366,-0.10913482308387756,0.5983894467353821
1725629499918848000,4.837847900390625,0.020428268238902092,-0.27877286076545715,0.664821982383728
1725629499928882000,4.8478818359375,0.0762656107544899,-0.43891677260398865,0.7004392743110657
1725629499938915800,4.857915771484375,0.13290278613567352,-0.6235588192939758,0.7543155550956726
1725629499948948700,4.86794873046875,0.1515933871269226,-0.6944316625595093,0.806441068649292
1725629499958983000,4.87798291015625,0.13055388629436493,-0.5879299640655518,0.8368114829063416
1725629499969017000,4.88801708984375,0.08891373127698898,-0.362179696559906,0.844750702381134
1725629499979050800,4.89805078125,0.02582290582358837,-0.05013922601938248,0.8098467588424683
1725629499989085000,4.9080849609375,-0.24224980175495148,0.5069205164909363,0.9145419597625732
1725629499999119000,4.918119140625,-0.5142349600791931,0.6396654844284058,0.8438574075698853
1725629500009152800,4.92815283203125,-0.6995244026184082,0.6705398559570312,0.6774013042449951
1725629500019187000,4.93818701171875,-0.7981151342391968,0.7342339158058167,0.5699355602264404
1725629500029220900,4.948220947265625,-0.7963269352912903,0.7432981729507446,0.5829828977584839
1725629500039254800,4.9582548828125,-0.6433025002479553,0.5462729930877686,0.639757513999939
1725629500049289000,4.9682890625,-0.4034351110458374,0.3260774612426758,0.7559489607810974
1725629500059321900,4.97832177734375,-0.13389284908771515,0.11267943680286407,0.893237292766571
1725629500069356000,4.98835595703125,0.1318637877702713,-0.11618717759847641,0.9928243160247803
1725629500079390000,4.998389892578125,0.3207695186138153,-0.27452754974365234,1.0400341749191284
1725629500089424000,5.008423828125,0.4172881543636322,-0.32597026228904724,1.045886516571045
1725629500099458000,5.0184580078125,0.4523497521877289,-0.31121209263801575,0.9949886202812195
1725629500109491700,5.02849169921875,0.4611152410507202,-0.24049319326877594,0.8926854729652405
1725629500119526000,5.03852587890625,0.47314900159835815,-0.1334889829158783,0.7328023314476013
1725629500129560000,5.04856005859375,0.4947606027126312,-0.028327278792858124,0.5288406014442444
1725629500139593700,5.05859375,0.5333250761032104,0.03530176356434822,0.29451149702072144
1725629500149628000,5.0686279296875,0.5735871195793152,0.0468522384762764,0.14987601339817047
1725629500159662000,5.078662109375,0.5386435389518738,0.028418904170393944,0.045439351350069046
1725629500169695000,5.088695068359375,0.5007340312004089,-0.07763103395700455,-0.09370063990354538
1725629500179729000,5.09872900390625,0.46680349111557007,-0.19859421253204346,-0.23756299912929535
1725629500189762800,5.1087626953125,0.4383109211921692,-0.32112154364585876,-0.33343324065208435
1725629500199797000,5.118796875,0.4287397861480713,-0.4410295784473419,-0.39611685276031494
1725629500209831000,5.128830810546875,0.38402923941612244,-0.49487486481666565,-0.4217642843723297
1725629500219864800,5.13886474609375,0.3676934242248535,-0.5266221761703491,-0.4348808825016022
1725629500229899000,5.14889892578125,0.40268057584762573,-0.5624939203262329,-0.43595635890960693
1725629500239933000,5.158932861328125,0.4688281714916229,-0.5947533249855042,-0.37383413314819336
1725629500249966800,5.168966796875,0.5366542339324951,-0.616675853729248,-0.21971209347248077
1725629500260001000,5.1790009765625,0.5817438960075378,-0.5650957822799683,0.026497673243284225
1725629500270035000,5.189034912109375,0.5994649529457092,-0.47971218824386597,0.28372883796691895
1725629500280068900,5.19906884765625,0.6035175323486328,-0.44308093190193176,0.47504526376724243
1725629500290102000,5.20910205078125,0.6085262298583984,-0.47179651260375977,0.5426600575447083
1725629500300136000,5.219135986328125,0.582943856716156,-0.47023189067840576,0.4864750802516937
1725629500310169900,5.229169921875,0.5193970203399658,-0.43944936990737915,0.3656887710094452
1725629500320203800,5.239203857421875,0.41626667976379395,-0.42289674282073975,0.26456642150878906
1725629500330238000,5.249238037109375,0.3167889714241028,-0.5100727081298828,0.18896347284317017
1725629500340271900,5.25927197265625,0.2486909031867981,-0.6760219931602478,0.1426396518945694
1725629500350305800,5.269305908203125,0.2240155190229416,-0.8095498085021973,0.11511483043432236
1725629500360340000,5.279340087890625,0.28891676664352417,-0.8120592832565308,0.06819979101419449
1725629500370374000,5.289373779296875,0.3894834816455841,-0.7630179524421692,0.03220640867948532
1725629500380407800,5.29940771484375,0.47969725728034973,-0.7275044322013855,0.04723915457725525
1725629500390442000,5.30944189453125,0.5783266425132751,-0.5624391436576843,0.03537847474217415
1725629500400475000,5.319474853515625,0.6695271134376526,-0.4459032118320465,-0.049679163843393326
1725629500410508800,5.3295087890625,0.7240974307060242,-0.353109747171402,-0.15646058320999146
1725629500420543000,5.33954296875,0.7346212267875671,-0.21914902329444885,-0.2817543148994446
1725629500430577000,5.349576904296875,0.7583838105201721,-0.10497978329658508,-0.4172259271144867
1725629500440610800,5.35961083984375,0.8172374963760376,0.11809351295232773,-0.694227397441864
1725629500450645000,5.36964501953125,0.7883048057556152,0.1541091352701187,-0.8538008332252502
1725629500460679000,5.379678955078125,0.783537745475769,0.10047145932912827,-0.884522020816803
1725629500470712800,5.389712890625,0.7818591594696045,0.16944530606269836,-0.8659877181053162
1725629500480747000,5.3997470703125,0.8522523641586304,0.10838168859481812,-0.8551465272903442
1725629500490781000,5.409781005859375,0.9020187258720398,-0.09542424976825714,-0.8327628970146179
1725629500500814800,5.41981494140625,0.9172837138175964,-0.31080740690231323,-0.8207102417945862
1725629500510847700,5.42984765625,0.889315664768219,-0.517951250076294,-0.8172686100006104
1725629500520882000,5.4398818359375,0.7931864857673645,-0.7267508506774902,-0.8043165802955627
1725629500530916000,5.449916015625,0.5892627835273743,-0.8783131837844849,-0.7746938467025757
1725629500540949800,5.45994970703125,0.38947826623916626,-0.8216392397880554,-0.753142774105072
1725629500550984000,5.46998388671875,0.26214826107025146,-0.6582117080688477,-0.7559438943862915
1725629500561018000,5.48001806640625,0.1801101118326187,-0.6111469864845276,-0.7251103520393372
1725629500571051800,5.4900517578125,0.13863937556743622,-0.5922199487686157,-0.6691854000091553
1725629500581086000,5.5000859375,0.0986940860748291,-0.5739588737487793,-0.6471312642097473
1725629500591120100,5.5101201171875,0.01473107561469078,-0.5602717399597168,-0.6506775617599487
1725629500601153800,5.52015380859375,-0.039334289729595184,-0.5567694306373596,-0.6353657245635986
1725629500611188000,5.53018798828125,-0.0533655621111393,-0.4428936541080475,-0.537321925163269
1725629500621222000,5.540221923828125,-0.0639369785785675,-0.2006772756576538,-0.38361072540283203
1725629500631254800,5.5502548828125,-0.13441841304302216,0.0594576820731163,-0.2686724364757538
1725629500641289000,5.5602890625,-0.2131803333759308,0.2616296708583832,-0.11603334546089172
1725629500651323000,5.570322998046875,-0.28694337606430054,0.4128563106060028,0.0333247035741806
1725629500661356800,5.580356689453125,-0.3661218285560608,0.46483588218688965,0.18123213946819305
1725629500671391000,5.590390869140625,-0.43449440598487854,0.4616018831729889,0.35416385531425476
1725629500681425000,5.6004248046875,-0.5357874631881714,0.4651838541030884,0.5300110578536987
1725629500691458800,5.610458740234375,-0.6206077337265015,0.44929713010787964,0.729265034198761
1725629500701492700,5.62049267578125,-0.6676112413406372,0.45818808674812317,0.9269163608551025
1725629500711527000,5.63052685546875,-0.6983695030212402,0.46455326676368713,1.121678113937378
1725629500721560800,5.640560791015625,-0.6871775984764099,0.43798184394836426,1.330655574798584
1725629500731594800,5.6505947265625,-0.6230700612068176,0.38057780265808105,1.5255740880966187
1725629500741629000,5.66062890625,-0.5179811716079712,0.24194082617759705,1.693204402923584
1725629500751661800,5.670661865234375,-0.39053165912628174,0.10169703513383865,1.8050798177719116
1725629500761695700,5.68069580078125,-0.31342649459838867,0.004143845289945602,1.8340625762939453
1725629500771730000,5.69072998046875,-0.30854660272598267,-0.16044896841049194,1.7686855792999268
1725629500781763800,5.700763916015625,-0.4250423014163971,-0.3515702188014984,1.5979931354522705
1725629500791797800,5.7107978515625,-0.6592021584510803,-0.5281661748886108,1.3499363660812378
1725629500801832000,5.72083203125,-0.9298043251037598,-0.5892939567565918,1.0148884057998657
1725629500811865900,5.730865966796875,-1.1567991971969604,-0.448748379945755,0.5745770931243896
1725629500821899800,5.740899658203125,-1.26621675491333,-0.1273602396249771,0.08422339707612991
1725629500831934000,5.750933837890625,-1.2718218564987183,0.28415602445602417,-0.33133217692375183
1725629500841967900,5.7609677734375,-1.204370141029358,0.635200023651123,-0.5476053953170776
1725629500852001800,5.771001708984375,-1.0762206315994263,0.88800048828125,-0.529873788356781
1725629500862034700,5.78103466796875,-0.9019804000854492,1.0040453672409058,-0.34508320689201355
1725629500872068900,5.79106884765625,-0.7261618971824646,0.9918748140335083,-0.10073668509721756
1725629500882103000,5.80110302734375,-0.5797721743583679,0.933979868888855,0.10532966256141663
1725629500892136700,5.81113671875,-0.4735586643218994,0.8043400049209595,0.22657343745231628
1725629500902171000,5.8211708984375,-0.3831254243850708,0.6298403739929199,0.2945176064968109
1725629500912205000,5.831205078125,-0.30863115191459656,0.46328243613243103,0.35959190130233765
1725629500922238700,5.84123876953125,-0.23189164698123932,0.3337486684322357,0.4246364235877991
1725629500932273000,5.85127294921875,-0.17029297351837158,0.2603367567062378,0.5001801252365112
1725629500942307000,5.86130712890625,-0.15006519854068756,0.24269813299179077,0.6242445111274719
1725629500952340700,5.8713408203125,-0.12687942385673523,0.2054516077041626,0.684177041053772
1725629500962375000,5.881375,-0.13370271027088165,0.20246434211730957,0.6623119711875916
1725629500972409000,5.8914091796875,-0.17783613502979279,0.22496837377548218,0.581632137298584
1725629500982442000,5.90144189453125,-0.2643321454524994,0.2721548080444336,0.5025445222854614
1725629500992476000,5.911475830078125,-0.37313714623451233,0.3003005385398865,0.4233434498310089
1725629501002509800,5.921509765625,-0.4774816632270813,0.30785486102104187,0.356947660446167
1725629501012544000,5.9315439453125,-0.5913323760032654,0.4257579445838928,0.433607816696167
1725629501022578000,5.941577880859375,-0.6739295125007629,0.49274444580078125,0.5750336050987244
1725629501032611800,5.95161181640625,-0.6389878988265991,0.4948025941848755,0.671651303768158
1725629501042646000,5.96164599609375,-0.5378333330154419,0.5154201984405518,0.7321021556854248
1725629501052679700,5.9716796875,-0.4257470369338989,0.6558727025985718,0.8108510375022888
1725629501062713900,5.9817138671875,-0.3155480921268463,0.8584334850311279,0.8907304406166077
1725629501072748000,5.991748046875,-0.18931737542152405,1.1008002758026123,0.9366545081138611
1725629501082781700,6.00178173828125,-0.015274210833013058,1.236944556236267,0.8997257947921753
1725629501092816000,6.01181591796875,0.1562269628047943,1.3554681539535522,0.872382640838623
1725629501102849000,6.02184912109375,0.2921328544616699,1.195751428604126,0.7916529178619385
1725629501112883000,6.031883056640625,0.3612779974937439,0.9069986939430237,0.6151617765426636
1725629501122916900,6.041916748046875,0.3385969400405884,0.5768279433250427,0.31561046838760376
1725629501132950800,6.05195068359375,0.24453479051589966,0.3024682104587555,-0.008001224137842655
1725629501142985000,6.06198486328125,0.18556495010852814,0.11792740225791931,-0.23180049657821655
1725629501153019000,6.072018798828125,0.15612450242042542,-0.0019382818136364222,-0.3812653422355652
1725629501163052800,6.082052734375,0.16544289886951447,-0.1119350865483284,-0.5269988775253296
1725629501173087000,6.0920869140625,0.19285158812999725,-0.20301415026187897,-0.6886638402938843
1725629501183121000,6.102120849609375,0.2227998971939087,-0.2806074917316437,-0.8452007174491882
1725629501193154800,6.11215478515625,0.21977119147777557,-0.3192973732948303,-0.9606056213378906
1725629501203189000,6.12218896484375,0.16185010969638824,-0.2663225829601288,-0.9949684143066406
1725629501213222000,6.132221923828125,0.09921976178884506,-0.20326821506023407,-0.9616246819496155
1725629501223255800,6.142255859375,0.08349193632602692,-0.17713594436645508,-0.8926190137863159
1725629501233290000,6.1522900390625,0.11622107028961182,-0.2013731598854065,-0.7805843949317932
1725629501243324000,6.162323974609375,0.1811572015285492,-0.24373286962509155,-0.609568178653717
1725629501253357800,6.17235791015625,0.2583670914173126,-0.326174795627594,-0.41502320766448975
1725629501263392000,6.18239208984375,0.3163395822048187,-0.4420960545539856,-0.26761460304260254
1725629501273426000,6.192426025390625,0.3642496168613434,-0.5666943788528442,-0.23490598797798157
1725629501283459800,6.2024599609375,0.3959934413433075,-0.6718626022338867,-0.2689092457294464
1725629501293494000,6.212493896484375,0.40296390652656555,-0.76984703540802,-0.29895269870758057
1725629501303528000,6.22252783203125,0.37312930822372437,-0.8150651454925537,-0.3006797432899475
1725629501313562000,6.23256201171875,0.3347713351249695,-0.7925027012825012,-0.2866697609424591
1725629501323596300,6.24259619140625,0.33012571930885315,-0.7066985368728638,-0.2724972367286682
1725629501333629200,6.252629150390625,0.34942179918289185,-0.5506149530410767,-0.26044943928718567
1725629501343663000,6.2626630859375,0.38086867332458496,-0.34269773960113525,-0.24358578026294708
1725629501353697000,6.272697021484375,0.4554348289966583,-0.12846998870372772,-0.2636847198009491
1725629501363731200,6.282731201171875,0.5112059712409973,0.0003058232250623405,-0.29648900032043457
1725629501373765000,6.29276513671875,0.5643037557601929,0.11481338739395142,-0.39178967475891113
1725629501383799000,6.302799072265625,0.5856655240058899,0.11996101588010788,-0.5241600275039673
1725629501393833200,6.312833251953125,0.5767289400100708,0.10081497579813004,-0.6823486685752869
1725629501403867100,6.3228671875,0.5880042314529419,0.051532912999391556,-0.8414435386657715
1725629501413901000,6.332901123046875,0.6409966349601746,0.0353844091296196,-0.9897134304046631
1725629501423935200,6.342935302734375,0.6691510677337646,-0.030648402869701385,-1.0855106115341187
1725629501433969200,6.35296923828125,0.702548086643219,-0.06790678948163986,-1.1394314765930176
1725629501444003000,6.363003173828125,0.7507089972496033,0.033272020518779755,-1.204177737236023
1725629501454036200,6.3730361328125,0.7638638019561768,0.15578730404376984,-1.2699105739593506
1725629501464070100,6.383070068359375,0.7349026799201965,0.1872384250164032,-1.3059080839157104
1725629501474104000,6.39310400390625,0.7403075098991394,0.05659265071153641,-1.3463962078094482
1725629501484138200,6.40313818359375,0.7522991895675659,-0.11370451748371124,-1.4124127626419067
1725629501494172200,6.413172119140625,0.7103073000907898,-0.3181484341621399,-1.4540526866912842
1725629501504206000,6.4232060546875,0.6242688298225403,-0.4604174494743347,-1.4129992723464966
1725629501514240000,6.433239990234375,0.5151825547218323,-0.5602771043777466,-1.2671773433685303
1725629501524274200,6.443274169921875,0.38719210028648376,-0.6199015378952026,-1.1325989961624146
1725629501534308000,6.45330810546875,0.295790433883667,-0.6246045231819153,-1.028997540473938
1725629501544342000,6.463342041015625,0.20841878652572632,-0.5669196248054504,-0.9477434754371643
1725629501554376200,6.473376220703125,0.1166018545627594,-0.47288528084754944,-0.9043243527412415
1725629501564410000,6.48341015625,0.06528407335281372,-0.39917510747909546,-0.9242346286773682
1725629501574443000,6.493443115234375,0.0345366895198822,-0.38162389397621155,-0.9837679862976074
1725629501584477200,6.503477294921875,-0.027797257527709007,-0.3053576350212097,-1.0560240745544434
1725629501594511000,6.513510986328125,-0.08210210502147675,-0.1449141949415207,-1.0696278810501099
1725629501604545000,6.523544921875,-0.05554159730672836,-0.07901374995708466,-0.965000569820404
1725629501614579200,6.5335791015625,0.04672491177916527,-0.15825553238391876,-0.7639070153236389
1725629501624613000,6.543613037109375,0.13516929745674133,-0.03330933675169945,-0.695830762386322
1725629501634647000,6.55364697265625,0.21528950333595276,0.020138056948781013,-0.6907644867897034
1725629501644681200,6.56368115234375,0.20599746704101562,0.031401097774505615,-0.6097732186317444
1725629501654715100,6.573715087890625,0.12979431450366974,0.1324097365140915,-0.4997817277908325
1725629501664749000,6.5837490234375,0.040880683809518814,0.23668260872364044,-0.40571409463882446
1725629501674783200,6.593783203125,-0.015790317207574844,0.27300095558166504,-0.3193107545375824
1725629501684817200,6.603817138671875,-0.09528274834156036,0.3176341950893402,-0.26381632685661316
1725629501694850300,6.613850341796875,-0.21019472181797028,0.321533203125,-0.22623667120933533
1725629501704884000,6.623884033203125,-0.31491100788116455,0.25546789169311523,-0.1266525685787201
1725629501714918100,6.633918212890625,-0.4467942714691162,0.2057030349969864,0.025138577446341515
1725629501724952300,6.643952392578125,-0.5564491152763367,0.07520148158073425,0.21371407806873322
1725629501734986000,6.653986083984375,-0.6298478245735168,-0.10404406487941742,0.4551156461238861
1725629501745020200,6.664020263671875,-0.6576789617538452,-0.2773956060409546,0.6590000987052917
1725629501755054300,6.674054443359375,-0.7024387717247009,-0.23446612060070038,0.7330840229988098
1725629501765088000,6.684087890625,-0.8546759486198425,-0.026569385081529617,0.8199480772018433
1725629501775122200,6.6941220703125,-0.9673977494239807,0.21673369407653809,1.0338162183761597
1725629501785156400,6.70415625,-1.0234404802322388,0.46312323212623596,1.3243316411972046
1725629501795190000,6.71418994140625,-0.9845139384269714,0.5850144028663635,1.6161329746246338
1725629501805224200,6.72422412109375,-0.8716694116592407,0.5309407711029053,1.8738065958023071
1725629501815257000,6.734257080078125,-0.7599761486053467,0.31417858600616455,2.0370802879333496
1725629501825291300,6.744291259765625,-0.6815615296363831,0.03360098972916603,2.07546329498291
1725629501835325200,6.7543251953125,-0.6464619636535645,-0.1771891862154007,1.9724034070968628
1725629501845359000,6.764359130859375,-0.6353626847267151,-0.21288086473941803,1.7547293901443481
1725629501855393300,6.774393310546875,-0.738232433795929,-0.15447592735290527,1.4189852476119995
1725629501865427200,6.78442724609375,-0.9366880059242249,-0.040889449417591095,0.9442004561424255
1725629501875461000,6.794461181640625,-1.1141935586929321,0.142349511384964,0.3997456431388855
1725629501885495300,6.804495361328125,-1.2119837999343872,0.4162771701812744,-0.09342173486948013
1725629501895529000,6.814529052734375,-1.2389765977859497,0.7076935768127441,-0.40986284613609314
1725629501905563100,6.824563232421875,-1.1728737354278564,0.9306662082672119,-0.4498233199119568
1725629501915597300,6.834597412109375,-1.0102730989456177,1.0655268430709839,-0.23000973463058472
1725629501925631000,6.844630859375,-0.8164836168289185,1.084660291671753,0.11913947761058807
1725629501935664000,6.8546640625,-0.6579899191856384,0.9097477793693542,0.4962078034877777
1725629501945698300,6.8646982421875,-0.5585474967956543,0.5348266363143921,0.7846981883049011
1725629501955732200,6.874732177734375,-0.5180253386497498,0.0639810711145401,0.9497012495994568
1725629501965766100,6.88476611328125,-0.4882037937641144,-0.4036162197589874,1.0592271089553833
1725629501975800000,6.894800048828125,-0.4433761239051819,-0.7894221544265747,1.139813780784607
1725629501985834200,6.904834228515625,-0.36976557970046997,-1.0652756690979004,1.2235280275344849
1725629501995868200,6.9148681640625,-0.2415618747472763,-1.260053038597107,1.28200101852417
1725629502005902000,6.924902099609375,-0.11263291537761688,-1.2952618598937988,1.3664090633392334
1725629502015936300,6.934936279296875,-0.024610986933112144,-1.2469953298568726,1.491938829421997
1725629502025970200,6.94497021484375,0.002198255155235529,-0.9032266139984131,1.7971872091293335
1725629502036004000,6.955004150390625,0.004565554205328226,-0.6911547183990479,2.0821621417999268
1725629502046038300,6.965038330078125,-0.06844580173492432,-0.47714388370513916,2.2890326976776123
1725629502056071200,6.9750712890625,-0.2502358853816986,-0.23876845836639404,2.4023690223693848
1725629502066105000,6.98510498046875,-0.47010567784309387,-0.017821965739130974,2.4317867755889893
1725629502076139300,6.99513916015625,-0.6603100895881653,-0.1284681260585785,2.31099009513855
1725629502086173200,7.005173095703125,-0.6294805407524109,-0.6752992272377014,2.0077438354492188
1725629502096207000,7.01520703125,-0.4339967668056488,-0.5789086222648621,1.8389357328414917
1725629502106241300,7.0252412109375,-0.27488914132118225,0.6982758045196533,2.0654423236846924
1725629502116275200,7.035275146484375,-0.18137341737747192,2.206341505050659,2.3217458724975586
1725629502126309000,7.04530908203125,-0.0024926220066845417,3.1801235675811768,2.283205032348633
1725629502136343300,7.05534326171875,0.24409320950508118,3.3430685997009277,1.8928327560424805
1725629502146377000,7.065376953125,0.46642428636550903,3.1594176292419434,1.512627124786377
1725629502156411100,7.0754111328125,0.6363070607185364,2.9584543704986572,1.3535287380218506
1725629502166445300,7.0854453125,0.6800470948219299,2.6102218627929688,1.3310511112213135
1725629502176478200,7.095478271484375,0.5514825582504272,2.1502132415771484,1.3853880167007446
1725629502186512100,7.10551220703125,0.45500925183296204,1.6874200105667114,1.4260576963424683
1725629502196546000,7.115546142578125,0.492576003074646,1.4106985330581665,1.3486138582229614
1725629502206580200,7.125580322265625,0.5590213537216187,1.2755564451217651,1.107742428779602
1725629502216614100,7.1356142578125,0.5670271515846252,1.2463645935058594,0.7086555361747742
1725629502226648000,7.14564794921875,0.5947573184967041,1.2986482381820679,0.24239838123321533
1725629502236682200,7.15568212890625,0.5796716809272766,1.3066644668579102,-0.20356063544750214
1725629502246716200,7.165716064453125,0.5592644214630127,1.172835350036621,-0.5113102197647095
1725629502256750000,7.17575,0.5425654649734497,0.9341354370117188,-0.6602650880813599
1725629502266784300,7.1857841796875,0.5265287160873413,0.5246981382369995,-0.7076296806335449
1725629502276818000,7.19581787109375,0.4925119876861572,0.08446496725082397,-0.7430307269096375
1725629502286852000,7.20585205078125,0.42637425661087036,-0.39839276671409607,-0.7968953251838684
1725629502296886300,7.21588623046875,0.31896117329597473,-0.8458044528961182,-0.8952196836471558
1725629502306919200,7.225919189453125,0.2212468683719635,-1.1489708423614502,-1.0233527421951294
1725629502316953300,7.235953369140625,0.17303906381130219,-1.2560679912567139,-1.1421972513198853
1725629502326987500,7.245987548828125,0.1680232584476471,-1.1589078903198242,-1.245924949645996
1725629502337021400,7.256021484375,0.18445445597171783,-0.928311824798584,-1.368956208229065
1725629502347055400,7.266055419921875,0.2274269461631775,-0.703497052192688,-1.5631285905838013
1725629502357089300,7.27608935546875,0.2866732180118561,-0.5078325867652893,-1.790734887123108
1725629502367123500,7.28612353515625,0.3774385452270508,-0.35480788350105286,-2.0127453804016113
1725629502377157400,7.296157470703125,0.45839542150497437,-0.2574719786643982,-2.183441638946533
1725629502387191300,7.30619140625,0.5498315691947937,-0.2694069445133209,-2.310655117034912
1725629502397225500,7.3162255859375,0.31771016120910645,-1.077946424484253,-2.4917476177215576
1725629502407259400,7.32625927734375,-0.22940164804458618,-1.3844873905181885,-2.568129301071167
1725629502417293300,7.336293212890625,-0.47141945362091064,-0.8488365411758423,-2.4768857955932617
1725629502427326500,7.346326416015625,-0.49072152376174927,-0.2811611294746399,-2.2337701320648193
1725629502437360400,7.3563603515625,-0.44516631960868835,0.1534820795059204,-1.837868094444275
1725629502447394300,7.366394287109375,-0.338278204202652,0.3753252625465393,-1.3634579181671143
1725629502457428500,7.376428466796875,-0.2185743898153305,0.24772952497005463,-0.8998749256134033
1725629502467462400,7.38646240234375,-0.14548127353191376,0.03029547445476055,-0.5516487956047058
1725629502477496300,7.396496337890625,-0.08163131773471832,-0.15756098926067352,-0.38300156593322754
1725629502487530500,7.406530517578125,-0.02836410328745842,-0.32784828543663025,-0.3820284307003021
1725629502497564400,7.416564453125,0.019718503579497337,-0.39558205008506775,-0.4888212978839874
1725629502507598300,7.426598388671875,0.0874653235077858,-0.5081019401550293,-0.6300537586212158
1725629502517632500,7.436632568359375,0.1547042429447174,-0.66729736328125,-0.7270733714103699
1725629502527666400,7.44666650390625,0.23584996163845062,-0.7593197226524353,-0.7708680033683777
1725629502537700400,7.456700439453125,0.34248897433280945,-0.783704400062561,-0.8446837067604065
1725629502547733200,7.466733154296875,0.557294487953186,-0.6514792442321777,-0.9905189275741577
1725629502557767400,7.476767333984375,0.7770031690597534,-0.26876670122146606,-1.077901840209961
1725629502567801600,7.486801513671875,0.8771854043006897,0.3639042377471924,-1.0181862115859985
1725629502577835300,7.496835205078125,0.9081634879112244,0.9211651682853699,-0.8711593747138977
1725629502587869400,7.506869384765625,1.0185357332229614,1.2988150119781494,-0.7681528329849243
1725629502597903600,7.516903564453125,1.1334376335144043,1.1976370811462402,-0.6687301993370056
1725629502607937300,7.526937255859375,1.2068299055099487,0.8858383893966675,-0.571190357208252
1725629502617971500,7.536971435546875,1.2357746362686157,0.9129276871681213,-0.6131139397621155
1725629502628005600,7.547005615234375,1.2031432390213013,0.9162877798080444,-0.6348056793212891
1725629502638039300,7.557039306640625,1.2034846544265747,1.0771234035491943,-0.6417382955551147
1725629502648073500,7.567073486328125,1.2224557399749756,1.4956711530685425,-0.7422667145729065
1725629502658107400,7.577107421875,1.137952208518982,1.5790356397628784,-0.7351789474487305
1725629502668140300,7.587140380859375,0.9664614200592041,1.610689640045166,-0.7289791107177734
1725629502678174500,7.597174560546875,0.8535800576210022,1.4206042289733887,-0.6802502274513245
1725629502688208400,7.60720849609375,0.785599946975708,1.103271245956421,-0.5839641690254211
1725629502698242300,7.6172421875,0.8296003937721252,0.6665356159210205,-0.4167918860912323
1725629502708276500,7.6272763671875,0.9638370275497437,0.3129807114601135,-0.19090920686721802
1725629502718310400,7.637310302734375,1.0995571613311768,0.221403107047081,0.14031901955604553
1725629502728344300,7.64734423828125,1.1773878335952759,0.25445905327796936,0.49847981333732605
1725629502738378200,7.657378173828125,1.1713988780975342,0.29041948914527893,0.7252992987632751
1725629502748412400,7.667412353515625,1.0669523477554321,0.20391255617141724,0.754000186920166
1725629502758446300,7.6774462890625,0.7406690120697021,0.2626214623451233,0.6649739146232605
1725629502768480300,7.687480224609375,0.43634745478630066,0.42033785581588745,0.6309669613838196
1725629502778514400,7.697514404296875,0.19150382280349731,0.5199978947639465,0.6927086114883423
1725629502788547300,7.70754736328125,0.016240397468209267,0.6752340793609619,0.7879301905632019
1725629502798581200,7.717581298828125,-0.09568532556295395,0.8449375629425049,0.873116672039032
1725629502808615400,7.727615478515625,-0.16001877188682556,1.0357892513275146,0.9444302320480347
1725629502818649300,7.7376494140625,-0.1677647978067398,1.1934151649475098,1.0379081964492798
1725629502828683300,7.747683349609375,-0.15931113064289093,1.333189845085144,1.1780247688293457
1725629502838717400,7.757717529296875,-0.1381644457578659,1.41889226436615,1.3499119281768799
1725629502848751400,7.76775146484375,-0.16415104269981384,1.4403972625732422,1.5643213987350464
1725629502858785300,7.777785400390625,-0.20605696737766266,1.4247958660125732,1.8327093124389648
1725629502868819500,7.7878193359375,-0.20921601355075836,1.406958818435669,2.1335060596466064
1725629502878853400,7.797853271484375,-0.10738473385572433,1.4032474756240845,2.346912384033203
1725629502888887300,7.80788720703125,-0.003265251172706485,1.4689351320266724,2.434525489807129
1725629502898921500,7.81792138671875,0.030472910031676292,1.5196056365966797,2.395900011062622
1725629502908955400,7.827955322265625,0.01931905932724476,1.4605722427368164,2.2739908695220947
1725629502918989300,7.8379892578125,-0.011555514298379421,1.347157597541809,2.133819580078125
1725629502929022200,7.848022216796875,-0.02818801999092102,1.253083348274231,2.06799054145813
1725629502939056400,7.858056396484375,0.01662442646920681,1.0966771841049194,1.979956030845642
1725629502949090600,7.868090576171875,-0.006232952233403921,0.7627884745597839,1.5929042100906372
1725629502959124200,7.878124267578125,-0.13981719315052032,0.5200232267379761,1.1607868671417236
1725629502969158400,7.888158447265625,-0.22271206974983215,0.3680366575717926,0.8464707136154175
1725629502979192600,7.898192626953125,-0.24799662828445435,0.23391135036945343,0.6808739304542542
1725629502989226200,7.908226318359375,-0.2404138147830963,0.14986145496368408,0.6393632888793945
1725629502999260400,7.918260498046875,-0.20083370804786682,0.05797319486737251,0.6801443696022034
1725629503009294600,7.928294677734375,-0.1682584583759308,-0.1180495023727417,0.738090455532074
1725629503019328300,7.938328369140625,-0.190536230802536,-0.30542242527008057,0.7938395738601685
1725629503029362400,7.948362548828125,-0.23322591185569763,-0.44987547397613525,0.8668831586837769
1725629503039395300,7.958395263671875,-0.2953932583332062,-0.5584069490432739,0.9143856167793274
1725629503049429500,7.968429443359375,-0.36724454164505005,-0.5612471699714661,0.9098057746887207
1725629503059463400,7.97846337890625,-0.4389927387237549,-0.5096150040626526,0.8234972357749939
1725629503069497300,7.988497314453125,-0.45967617630958557,-0.48008427023887634,0.7336549162864685
1725629503079531500,7.998531494140625,-0.4185340106487274,-0.4465908706188202,0.6685754656791687
1725629503089565200,8.008565185546875,-0.3474726378917694,-0.3550553619861603,0.6037333607673645
1725629503099599400,8.018599365234374,-0.2895967960357666,-0.19000104069709778,0.583824634552002
1725629503109633500,8.028633544921876,-0.25409871339797974,0.08185097575187683,0.6103103160858154
1725629503119667200,8.038667236328125,-0.20878079533576965,0.4264923930168152,0.6809618473052979
1725629503129701400,8.048701416015625,-0.17476263642311096,0.7765558958053589,0.7623328566551208
1725629503139735600,8.058735595703125,-0.10566107928752899,1.0104875564575195,0.80215984582901
1725629503149769200,8.068769287109374,-0.03279832750558853,1.2404131889343262,0.8228448629379272
1725629503159803400,8.078803466796876,0.006475589703768492,1.406866192817688,0.8246859908103943
1725629503169836300,8.088836181640625,0.024434350430965424,1.4326400756835938,0.7932140827178955
1725629503179870500,8.098870361328125,0.07543176412582397,1.2589449882507324,0.7350360155105591
1725629503189904400,8.108904296875,0.1594901829957962,0.9262692928314209,0.6268775463104248
1725629503199938300,8.118938232421876,0.2674897611141205,0.5038583874702454,0.488177627325058
1725629503209972500,8.128972412109375,0.3095772862434387,0.14881987869739532,0.36309030652046204
1725629503220006400,8.13900634765625,0.27774378657341003,-0.15051838755607605,0.27442991733551025
1725629503230040300,8.149040283203124,0.19207176566123962,-0.37404415011405945,0.19504772126674652
1725629503240074500,8.159074462890626,0.05174213647842407,-0.5805827379226685,0.1588922142982483
1725629503250108400,8.1691083984375,-0.12982206046581268,-0.732365608215332,0.14057978987693787
1725629503260142300,8.179142333984375,-0.30058810114860535,-0.8282150626182556,0.1454206109046936
1725629503270176500,8.189176513671875,-0.42086684703826904,-0.7654337286949158,0.1902133822441101
1725629503280210400,8.19921044921875,-0.49785101413726807,-0.6960387229919434,0.25518617033958435
1725629503290243300,8.209243408203125,-0.5514311194419861,-0.6301140189170837,0.22637103497982025
1725629503300277500,8.219277587890625,-0.5975663661956787,-0.5596550703048706,0.0812963917851448
1725629503310311400,8.2293115234375,-0.6449530720710754,-0.4932062327861786,-0.10110217332839966
1725629503320345000,8.239344970703126,-0.6543464064598083,-0.418052077293396,-0.2758326232433319
1725629503330379000,8.24937890625,-0.5903197526931763,-0.30152440071105957,-0.4377474784851074
1725629503340413200,8.2594130859375,-0.4901699125766754,-0.09760351479053497,-0.6186007261276245
1725629503350447000,8.269447021484375,-0.4027865529060364,0.07069441676139832,-0.8059844374656677
1725629503360481000,8.27948095703125,-0.32879582047462463,0.14407016336917877,-0.9754197597503662
1725629503370515200,8.28951513671875,-0.2616146504878998,0.22164776921272278,-1.100524663925171
1725629503380548900,8.299548828125,-0.2086077332496643,0.3609870374202728,-1.1475844383239746
1725629503390583000,8.3095830078125,-0.18511678278446198,0.4564445912837982,-1.115934133529663
1725629503400617200,8.3196171875,-0.18104763329029083,0.4527779519557953,-1.059234857559204
1725629503410650000,8.329650146484376,-0.19106218218803406,0.37595027685165405,-1.0134588479995728
1725629503420684000,8.33968408203125,-0.23328088223934174,0.2786491811275482,-0.9818124175071716
1725629503430718000,8.349718017578125,-0.29579806327819824,0.1595267951488495,-0.9382439255714417
1725629503440752000,8.359752197265625,-0.3482295274734497,0.005072182975709438,-0.8814875483512878
1725629503450786000,8.3697861328125,-0.3686290681362152,-0.1213427484035492,-0.8056082129478455
1725629503460820000,8.379820068359376,-0.3598524332046509,-0.2663026452064514,-0.7467309236526489
1725629503470854100,8.389854248046875,-0.3316247761249542,-0.35576966404914856,-0.716301679611206
1725629503480888000,8.39988818359375,-0.31247076392173767,-0.3649159073829651,-0.7262134552001953
1725629503490922000,8.409921875,-0.2972920835018158,-0.32739943265914917,-0.771521270275116
1725629503500956200,8.4199560546875,-0.25708964467048645,-0.2785401940345764,-0.8318415880203247
1725629503510990000,8.429989990234375,-0.19052554666996002,-0.24055631458759308,-0.8817449808120728
1725629503521024000,8.44002392578125,-0.15582670271396637,-0.2836495637893677,-0.9143866300582886
1725629503531058200,8.45005810546875,-0.10664398223161697,-0.25744324922561646,-0.9212221503257751
1725629503541091000,8.460091064453126,-0.03052016720175743,-0.19291715323925018,-0.9040979743003845
1725629503551125000,8.470125,0.04652641341090202,-0.12150050699710846,-0.8684579133987427
1725629503561159200,8.4801591796875,0.11665473133325577,-0.0629228875041008,-0.8185853958129883
1725629503571193000,8.490193115234375,0.17088362574577332,-0.012628556229174137,-0.756730854511261
1725629503581227000,8.50022705078125,0.22605201601982117,0.023684507235884666,-0.6930584907531738
1725629503591261200,8.51026123046875,0.2681688368320465,0.09166036546230316,-0.6388629078865051
1725629503601295000,8.520295166015625,0.3236357569694519,0.21319366991519928,-0.61919105052948
1725629503611329000,8.5303291015625,0.3899593949317932,0.31223103404045105,-0.6273128986358643
1725629503621363200,8.54036328125,0.44331952929496765,0.3829174339771271,-0.6664011478424072
1725629503631397000,8.550397216796876,0.4937310218811035,0.3907622992992401,-0.703856885433197
1725629503641431000,8.56043115234375,0.5490057468414307,0.3680284023284912,-0.7554410099983215
1725629503651465200,8.57046533203125,0.600014328956604,0.3543812930583954,-0.8680905699729919
1725629503661498000,8.580498046875,0.6462514400482178,0.2043783813714981,-0.9854059219360352
1725629503671532000,8.590531982421876,0.6665774583816528,-0.04234590753912926,-1.0898197889328003
1725629503681566000,8.60056591796875,0.6300166249275208,-0.1911841630935669,-1.2255263328552246
1725629503691600100,8.61060009765625,0.5287927985191345,-0.31052786111831665,-1.4386361837387085
1725629503701634000,8.620634033203125,0.4274360239505768,-0.6887373924255371,-1.5393505096435547
1725629503711668000,8.63066796875,0.41047728061676025,-1.1829873323440552,-1.52760648727417
1725629503721702100,8.6407021484375,0.2426857054233551,-1.3275243043899536,-1.6486494541168213
1725629503731736000,8.650736083984375,0.06627818942070007,-1.42678964138031,-1.754921555519104
1725629503741770000,8.66077001953125,0.020167166367173195,-1.5839998722076416,-1.8086891174316406
1725629503751804200,8.67080419921875,-0.03340950980782509,-1.5632058382034302,-1.8339464664459229
1725629503761838000,8.680838134765626,-0.030781282112002373,-1.4738095998764038,-1.8955975770950317
1725629503771872000,8.6908720703125,0.022865699604153633,-1.412468433380127,-1.9924439191818237
1725629503781906200,8.70090625,0.09193993359804153,-1.398417592048645,-2.0736606121063232
1725629503791939000,8.71093896484375,0.08431663364171982,-1.4210724830627441,-2.066178560256958
1725629503801973000,8.720972900390626,0.038991738110780716,-1.567068338394165,-1.9223297834396362
1725629503812007000,8.7310068359375,0.009751826524734497,-1.7233319282531738,-1.6181023120880127
1725629503822041000,8.741041015625,0.0024476360995322466,-1.5952399969100952,-1.261717438697815
1725629503832075000,8.751074951171875,-0.06782625615596771,-1.1320960521697998,-0.8630669116973877
1725629503842109000,8.76110888671875,-0.2561253011226654,-0.4717627763748169,-0.45480701327323914
1725629503852143000,8.77114306640625,-0.4726562798023224,0.23627427220344543,-0.14603614807128906
1725629503862177000,8.781177001953125,-0.6157063245773315,0.7241770029067993,0.05785324051976204
1725629503872211000,8.7912109375,-0.7048231363296509,1.0111232995986938,0.1719563752412796
1725629503882245000,8.8012451171875,-0.7514914274215698,1.0834062099456787,0.2938912510871887
1725629503892279000,8.811279052734376,-0.7693103551864624,1.0150132179260254,0.43261557817459106
1725629503902313000,8.82131298828125,-0.7146861553192139,0.8580334186553955,0.5925077795982361
1725629503912346000,8.83134619140625,-0.6294378638267517,0.7330746650695801,0.7474486231803894
1725629503922380000,8.841380126953124,-0.4987789988517761,0.5842077732086182,0.8824537396430969
1725629503932414000,8.8514140625,-0.33584466576576233,0.44225651025772095,0.9779970645904541
1725629503942448000,8.8614482421875,-0.18302810192108154,0.33010387420654297,1.0408402681350708
1725629503952482000,8.87148193359375,-0.033047132194042206,0.21982581913471222,1.0872162580490112
1725629503962516000,8.881515869140625,0.10369014739990234,0.13260146975517273,1.1114928722381592
1725629503972550100,8.891550048828124,0.12066327780485153,0.06743526458740234,1.1495050191879272
1725629503982584000,8.901583984375,0.035677291452884674,0.0788656547665596,1.1644057035446167
1725629503992618000,8.911617919921875,-0.18589317798614502,0.2721240520477295,1.1806797981262207
1725629504002652200,8.921652099609375,-0.3580324053764343,0.6012303829193115,1.2033940553665161
1725629504012686000,8.93168603515625,-0.4565475285053253,0.9210157990455627,1.2584840059280396
1725629504022720000,8.941719970703126,-0.486528605222702,1.2709283828735352,1.3196228742599487
1725629504032753000,8.9517529296875,-0.4784368574619293,1.5986425876617432,1.3528554439544678
1725629504042787000,8.961787109375,-0.41163840889930725,1.836725115776062,1.3764737844467163
1725629504052821200,8.9718212890625,-0.3217250108718872,1.979215145111084,1.408522605895996
1725629504062855000,8.98185498046875,-0.2262502759695053,2.035306215286255,1.4096803665161133
1725629504072889000,8.99188916015625,-0.16754327714443207,2.0139577388763428,1.3575780391693115
1725629504082923300,9.00192333984375,-0.14353525638580322,1.938045620918274,1.2771960496902466
1725629504092957000,9.01195703125,-0.10240619629621506,1.8205193281173706,1.2309303283691406
1725629504102991000,9.0219912109375,-0.02143140882253647,1.6283684968948364,1.178712010383606
1725629504113025000,9.03202490234375,0.08760453015565872,1.4206295013427734,1.0794274806976318
1725629504123059000,9.042058837890625,0.20756842195987701,1.209024429321289,0.9398390650749207
1725629504133093000,9.052093017578125,0.3152730464935303,1.027894377708435,0.7752330303192139
1725629504143127000,9.062126953125,0.4129851460456848,0.818873941898346,0.6250067353248596
1725629504153161000,9.072160888671876,0.514374315738678,0.6419934630393982,0.539503276348114
1725629504163193900,9.08219384765625,0.6004230380058289,0.5575074553489685,0.5120781064033508
1725629504173228000,9.09222802734375,0.6198827624320984,0.47800466418266296,0.49992242455482483
1725629504183262200,9.10226220703125,0.5645578503608704,0.3916536271572113,0.48151835799217224
1725629504193296000,9.1122958984375,0.4258801341056824,0.2273283302783966,0.4583808183670044
1725629504203330000,9.122330078125,0.23169487714767456,0.03736953064799309,0.460906982421875
1725629504213364200,9.1323642578125,0.006306493654847145,-0.07940875738859177,0.4982719123363495
1725629504223398000,9.14239794921875,-0.1988556683063507,-0.16038303077220917,0.5490092039108276
1725629504233432000,9.15243212890625,-0.36883193254470825,-0.23803628981113434,0.6031033396720886
1725629504243466200,9.16246630859375,-0.48150166869163513,-0.30018261075019836,0.6606717109680176
1725629504253500000,9.1725,-0.526084303855896,-0.3169746398925781,0.6695888042449951
1725629504263534000,9.1825341796875,-0.5284740328788757,-0.18355268239974976,0.8489195704460144
1725629504273568300,9.192568359375,-0.58292555809021,-0.3679230511188507,0.9665242433547974
1725629504283602000,9.202601806640626,-0.6038212180137634,-0.5041577219963074,0.8896085023880005
1725629504293635000,9.212635009765625,-0.5356972813606262,-0.46258530020713806,0.691494882106781
1725629504303669000,9.2226689453125,-0.433307021856308,-0.30434557795524597,0.5295085310935974
1725629504313703200,9.232703125,-0.283679723739624,-0.1346668004989624,0.43627873063087463
1725629504323736800,9.24273681640625,-0.10176137089729309,0.11315448582172394,0.48986396193504333
1725629504333771000,9.25277099609375,0.07800067216157913,0.2560836672782898,0.6295397877693176
1725629504343805200,9.26280517578125,0.16155044734477997,0.3129335939884186,0.685374915599823
1725629504353838800,9.2728388671875,0.15764759480953217,0.2783457636833191,0.6277792453765869
1725629504363873000,9.282873046875,0.11031457036733627,0.14360235631465912,0.5146355628967285
1725629504373907200,9.2929072265625,0.06868643313646317,0.03597148880362511,0.3522903323173523
1725629504383940900,9.30294091796875,0.0181809663772583,-0.04275542125105858,0.14670144021511078
1725629504393975000,9.31297509765625,0.00878906063735485,-0.06294005364179611,-0.06175057590007782
1725629504404009200,9.32300927734375,0.05477200075984001,-0.04204142838716507,-0.24502505362033844
1725629504414042000,9.3330419921875,0.08731210231781006,0.024103503674268723,-0.41226091980934143
1725629504424076000,9.343075927734375,0.05086509510874748,0.13179469108581543,-0.5716883540153503
1725629504434110000,9.35310986328125,-0.0017824032111093402,0.21581663191318512,-0.703599214553833
1725629504444144000,9.36314404296875,-0.0597594678401947,0.3102568984031677,-0.8103896975517273
1725629504454178000,9.373177978515624,-0.10390456020832062,0.39005371928215027,-0.8929439783096313
1725629504464212000,9.3832119140625,-0.08060524612665176,0.38722729682922363,-0.9214534163475037
1725629504474246100,9.39324609375,-0.0041442979127168655,0.3339616656303406,-0.9109466671943665
1725629504484280000,9.403280029296875,0.08297993242740631,0.23839955031871796,-0.8549565672874451
1725629504494314000,9.41331396484375,0.1242072656750679,0.09562082588672638,-0.7913954854011536
1725629504504348200,9.42334814453125,0.1265087127685547,-0.06953967362642288,-0.7606890797615051
1725629504514382000,9.433382080078125,0.08530454337596893,-0.23051337897777557,-0.7456017732620239
1725629504524416000,9.443416015625,0.02439858578145504,-0.3679385185241699,-0.7242432832717896
1725629504534450200,9.4534501953125,-0.019795773550868034,-0.44363516569137573,-0.6840875744819641
1725629504544483000,9.463483154296876,-0.048749037086963654,-0.4565635025501251,-0.6507475972175598
1725629504554517000,9.47351708984375,-0.08325694501399994,-0.4003963768482208,-0.632195234298706
1725629504564551200,9.48355126953125,-0.09762775897979736,-0.27211812138557434,-0.6143029928207397
1725629504574585000,9.493585205078125,-0.09464848041534424,-0.14647628366947174,-0.5889792442321777
1725629504584619000,9.503618896484374,-0.08279107511043549,-0.09411777555942535,-0.57396399974823
1725629504594653200,9.513653076171876,-0.0646352469921112,-0.11750698834657669,-0.5920953154563904
1725629504604686800,9.523686767578125,-0.02276414819061756,-0.11816563457250595,-0.6310107111930847
1725629504614721000,9.533720947265625,0.05199131369590759,-0.08279459923505783,-0.6933598518371582
1725629504624755000,9.5437548828125,0.118974968791008,-0.04410466551780701,-0.7560239434242249
1725629504634788900,9.553788818359376,0.1659989356994629,-0.0015460181748494506,-0.8075846433639526
1725629504644823000,9.563822998046875,0.18823039531707764,0.020648354664444923,-0.8589752316474915
1725629504654857000,9.57385693359375,0.17079707980155945,0.00633466150611639,-0.876184344291687
1725629504664890000,9.58389013671875,0.14975407719612122,-0.06268871575593948,-0.8582978248596191
1725629504674924000,9.593924072265626,0.10826362669467926,-0.13172955811023712,-0.8101968765258789
1725629504684958000,9.6039580078125,0.04309574514627457,-0.18480239808559418,-0.771143913269043
1725629504694992100,9.6139921875,-0.006956503260880709,-0.18671642243862152,-0.7277261018753052
1725629504705025800,9.62402587890625,-0.01829763874411583,-0.13299889862537384,-0.6756095290184021
1725629504715060000,9.63406005859375,0.0021120295859873295,-0.03733975812792778,-0.6154383420944214
1725629504725094100,9.64409423828125,0.035714197903871536,0.10179663449525833,-0.5893346667289734
1725629504735127800,9.6541279296875,0.08569880574941635,0.18350481986999512,-0.6045455932617188
1725629504745162000,9.664161865234375,0.14391882717609406,0.2448190450668335,-0.6532173752784729
1725629504755196200,9.674196044921874,0.16756902635097504,0.24770724773406982,-0.7216582298278809
1725629504765229800,9.684229736328126,0.17653709650039673,0.21096086502075195,-0.7579254508018494
1725629504775264000,9.694263916015625,0.1567881554365158,0.1994434893131256,-0.7420543432235718
1725629504785297000,9.704296875,0.0939214825630188,0.27646905183792114,-0.831214964389801
1725629504795331000,9.7143310546875,0.03558440878987312,0.08352569490671158,-1.173038125038147
1725629504805365000,9.724364990234376,0.016561903059482574,-0.3298413157463074,-1.3215192556381226
1725629504815399000,9.73439892578125,-0.04016662389039993,-0.5567594170570374,-1.2393733263015747
1725629504825433000,9.74443310546875,-0.06216611713171005,-0.6368053555488586,-1.017168641090393
1725629504835467000,9.754467041015625,-0.04685906693339348,-0.6353736519813538,-0.7966596484184265
1725629504845501000,9.7645009765625,-0.01872582733631134,-0.5866522192955017,-0.6344497203826904
1725629504855535000,9.77453515625,0.02345891110599041,-0.537479043006897,-0.5091591477394104
1725629504865569000,9.784569091796875,0.08208254724740982,-0.5203461647033691,-0.39370158314704895
1725629504875603000,9.79460302734375,0.11585302650928497,-0.5128757357597351,-0.28790271282196045
1725629504885637000,9.80463720703125,0.13969463109970093,-0.4786665141582489,-0.2053576409816742
1725629504895671000,9.814671142578124,0.1461448073387146,-0.38329949975013733,-0.11941156536340714
1725629504905705000,9.824705078125,0.12484696507453918,-0.25737902522087097,-0.07595667243003845
1725629504915738000,9.834738037109375,0.08184675872325897,-0.09444364905357361,-0.0019210630562156439
1725629504925772000,9.84477197265625,0.0579008087515831,0.10454169660806656,0.15505895018577576
1725629504935806000,9.854805908203126,0.04412747174501419,0.31026318669319153,0.29122424125671387
1725629504945840000,9.864840087890625,0.0646648108959198,0.4710301160812378,0.38477426767349243
1725629504955874000,9.8748740234375,0.1325213611125946,0.5854016542434692,0.48390936851501465
1725629504965908000,9.884907958984375,0.19712568819522858,0.6423601508140564,0.5952121019363403
1725629504975942100,9.894942138671874,0.25189465284347534,0.6342793107032776,0.708650529384613
1725629504985976000,9.90497607421875,0.3088952600955963,0.5985324382781982,0.8253695368766785
1725629504996010000,9.915010009765625,0.32683297991752625,0.6166539192199707,0.9537434577941895
1725629505006044000,9.9250439453125,0.2957962155342102,0.6799363493919373,1.0668094158172607
1725629505016078000,9.935078125,0.22053423523902893,0.7506722807884216,1.1481423377990723
1725629505026112000,9.945112060546874,0.10008970648050308,0.8284343481063843,1.1828885078430176
1725629505036145000,9.955144775390625,-0.05756543204188347,0.8850632905960083,1.1284763813018799
1725629505046179000,9.965178955078125,-0.20721027255058289,0.8056434392929077,0.9566908478736877
1725629505056213000,9.975212890625,-0.3035868704319,0.6474897265434265,0.7572477459907532
1725629505066247000,9.985246826171876,-0.3187420964241028,0.492474228143692,0.6373372673988342
1725629505076281000,9.995281005859376,-0.27790093421936035,0.34963586926460266,0.5789847373962402
1725629505086315000,10.00531494140625,-0.21487776935100555,0.20141644775867462,0.5497738122940063
1725629505096349000,10.015348876953125,-0.12740065157413483,0.07303877919912338,0.522611141204834
1725629505106383000,10.025383056640624,-0.08317015320062637,-0.02181471884250641,0.4874744415283203
1725629505116417000,10.0354169921875,-0.0734778493642807,-0.09398745000362396,0.4325699210166931
1725629505126451000,10.045450927734375,-0.09841949492692947,-0.11387608200311661,0.3831409811973572
1725629505136485000,10.055485107421875,-0.1467854231595993,-0.0625857338309288,0.36076536774635315
1725629505146519000,10.06551904296875,-0.18626804649829865,0.004882405046373606,0.36931344866752625
1725629505156553000,10.075552978515624,-0.21772050857543945,0.042538437992334366,0.3890264332294464
1725629505166585900,10.0855859375,-0.2661133408546448,0.021912891417741776,0.415982186794281
1725629505176620000,10.0956201171875,-0.30618271231651306,-0.04899057745933533,0.43943560123443604
1725629505186654200,10.105654296875,-0.3500293791294098,-0.12058636546134949,0.438721239566803
1725629505196688000,10.11568798828125,-0.39333584904670715,-0.1706487238407135,0.4364069402217865
1725629505206722000,10.12572216796875,-0.4207388460636139,-0.2287389487028122,0.42785176634788513
1725629505216756200,10.135756103515625,-0.43118056654930115,-0.2864845395088196,0.4201318025588989
1725629505226790000,10.145789794921875,-0.4468155801296234,-0.29760465025901794,0.39638790488243103
1725629505236824000,10.155823974609374,-0.4737750291824341,-0.19927382469177246,0.3264021575450897
1725629505246858200,10.165858154296876,-0.48916733264923096,0.000015558907762169838,0.22958698868751526
1725629505256892000,10.175891845703125,-0.4635879397392273,0.27332833409309387,0.15569305419921875
1725629505266926000,10.185926025390625,-0.3919260799884796,0.4697427749633789,0.1262810379266739
1725629505276960300,10.195960205078125,-0.3243965804576874,0.5163363814353943,0.12808294594287872
1725629505286993200,10.2059931640625,-0.24842511117458344,0.49517616629600525,0.16936691105365753
1725629505297027000,10.216027099609375,-0.15128710865974426,0.4859142005443573,0.20504766702651978
1725629505307061000,10.22606103515625,-0.03051014058291912,0.4827621579170227,0.22764502465724945
1725629505317098000,10.236097900390625,0.10013441741466522,0.5839782357215881,0.2910977602005005
1725629505327132000,10.2461318359375,0.1818714141845703,0.6811316609382629,0.4744381308555603
1725629505337165800,10.256165771484374,0.16406124830245972,0.6972461342811584,0.7068638801574707
1725629505347200000,10.266199951171876,0.053696516901254654,0.6395184397697449,0.9783471822738647
1725629505357234000,10.27623388671875,-0.09714625775814056,0.40776240825653076,1.187826156616211
1725629505367267800,10.286267822265625,-0.26368215680122375,0.04110885411500931,1.2618294954299927
1725629505377302000,10.296302001953125,-0.3957517743110657,-0.35994428396224976,1.1753804683685303
1725629505387335700,10.306335693359374,-0.43915608525276184,-0.6647577285766602,1.0158145427703857
1725629505397369900,10.316369873046876,-0.3785982131958008,-0.9425871968269348,0.889432966709137
1725629505407404000,10.326404052734375,-0.24073614180088043,-1.0760854482650757,0.8088648319244385
1725629505417437000,10.33643701171875,-0.13765449821949005,-1.1607036590576172,0.748667299747467
1725629505427470800,10.346470947265624,-0.03965738043189049,-1.14067804813385,0.61620032787323
1725629505437505000,10.356505126953126,0.008007612079381943,-0.9785376191139221,0.4259835183620453
1725629505447539000,10.3665390625,-0.00044939678627997637,-0.7283668518066406,0.1773422658443451
1725629505457572900,10.37657275390625,-0.010456490330398083,-0.45112887024879456,-0.05910302326083183
1725629505467606800,10.386606689453124,0.03721144422888756,-0.15009063482284546,-0.2803727984428406
1725629505477641000,10.396640869140626,0.10868482291698456,0.11140302568674088,-0.5115253329277039
1725629505487675000,10.4066748046875,0.05822967365384102,0.3143252730369568,-0.7063321471214294
1725629505497708800,10.416708740234375,-0.02455761656165123,0.4186181128025055,-0.8636307120323181
1725629505507743000,10.426742919921875,-0.11101483553647995,0.48704293370246887,-0.994460940361023
1725629505517777000,10.43677685546875,-0.17681941390037537,0.585548460483551,-1.0861178636550903
1725629505527810800,10.446810791015626,-0.21168062090873718,0.6756923794746399,-1.1525729894638062
1725629505537844000,10.456843994140625,-0.14515912532806396,0.7729025483131409,-1.1628221273422241
1725629505547878000,10.4668779296875,0.006980634294450283,0.8797112107276917,-1.0964128971099854
1725629505557911800,10.476911865234374,0.2081209272146225,0.904643714427948,-0.9208860993385315
1725629505567946000,10.486946044921876,0.4127556085586548,0.779441237449646,-0.7568967342376709
1725629505577980000,10.49697998046875,0.5052775740623474,0.6845133900642395,-0.6933337450027466
1725629505588013800,10.507013916015625,0.5083491802215576,0.5655187368392944,-0.6924368143081665
1725629505598048000,10.517048095703124,0.4650954008102417,0.433930367231369,-0.703223705291748
1725629505608082000,10.52708203125,0.38978883624076843,0.219096839427948,-0.6690354347229004
1725629505618115800,10.53711572265625,0.2644602060317993,-0.060067690908908844,-0.5824214220046997
1725629505628150000,10.54714990234375,0.14469341933727264,-0.3109733462333679,-0.4913063645362854
1725629505638184000,10.557183837890625,0.05354805663228035,-0.47420090436935425,-0.4006640911102295
1725629505648217900,10.5672177734375,0.003556184470653534,-0.621791660785675,-0.3084883689880371
1725629505658252000,10.577251953125,0.009736316278576851,-0.6541245579719543,-0.2609623968601227
1725629505668285000,10.587284912109375,0.04659605026245117,-0.6301924586296082,-0.2681066393852234
1725629505678319000,10.597319091796875,0.11550187319517136,-0.5791494846343994,-0.32799872756004333
1725629505688352800,10.607352783203124,0.2217431664466858,-0.4637717306613922,-0.43399375677108765
1725629505698387000,10.617386962890626,0.35848209261894226,-0.3722798824310303,-0.5474851131439209
1725629505708420900,10.6274208984375,0.5087174773216248,-0.2718895673751831,-0.6346811652183533
1725629505718454800,10.637454833984375,0.6365995407104492,-0.1564631313085556,-0.6748530864715576
1725629505728489000,10.647489013671875,0.7334802746772766,-0.04737871512770653,-0.6736003756523132
1725629505738523000,10.65752294921875,0.814752995967865,0.06126893684267998,-0.6389963030815125
1725629505748556800,10.667556884765625,0.8360950350761414,0.05621352419257164,-0.579605758190155
1725629505758591000,10.677591064453125,0.8288863897323608,-0.02501395344734192,-0.5157748460769653
1725629505768625000,10.687625,0.814938485622406,-0.12568435072898865,-0.4557061791419983
1725629505778658800,10.697658935546874,0.7902453541755676,-0.19260266423225403,-0.4050634801387787
1725629505788693000,10.70769287109375,0.7629280686378479,-0.22675259411334991,-0.4002627730369568
1725629505798726000,10.717725830078125,0.7559628486633301,-0.2537325620651245,-0.4106685221195221
1725629505808759800,10.727759765625,0.7330612540245056,-0.26029735803604126,-0.42872023582458496
1725629505818793700,10.737793701171874,0.6889084577560425,-0.17674119770526886,-0.43139779567718506
1725629505828828000,10.747827880859376,0.6186578869819641,-0.03492261469364166,-0.4319603145122528
1725629505838861800,10.75786181640625,0.49929073452949524,-0.0141984261572361,-0.4186815023422241
1725629505848895700,10.767895751953125,0.37309005856513977,-0.11182279884815216,-0.40100905299186707
1725629505858930000,10.777929931640625,0.2231501042842865,-0.11122918128967285,-0.45387253165245056
1725629505868963800,10.7879638671875,0.05101216584444046,-0.17921321094036102,-0.7336344718933105
1725629505878997800,10.797997802734375,-0.055344101041555405,-0.4074498414993286,-0.8140395879745483
1725629505889032000,10.808031982421875,-0.11873723566532135,-0.43633174896240234,-0.695513904094696
1725629505899065900,10.81806591796875,-0.15221796929836273,-0.3640245497226715,-0.5009862184524536
1725629505909099800,10.828099853515624,-0.137428879737854,-0.28041067719459534,-0.3452267646789551
1725629505919133000,10.8381328125,-0.12311358749866486,-0.2394091933965683,-0.3781612813472748
1725629505929166800,10.848166748046875,-0.10475622117519379,-0.2570665180683136,-0.48401516675949097
1725629505939200800,10.85820068359375,-0.06586901098489761,-0.23570238053798676,-0.5001808404922485
1725629505949235000,10.86823486328125,-0.018324926495552063,-0.20119048655033112,-0.45710524916648865
1725629505959268900,10.878268798828126,-0.03227483108639717,-0.22278019785881042,-0.39469113945961
1725629505969302800,10.888302734375,-0.057322487235069275,-0.23551814258098602,-0.2454681396484375
1725629505979337000,10.8983369140625,-0.05395917966961861,-0.1500122994184494,0.009338040836155415
1725629505989371000,10.908370849609375,-0.11137492954730988,-0.017804209142923355,0.24085451662540436
1725629505999404800,10.91840478515625,-0.13610397279262543,0.086636982858181,0.3398740291595459
1725629506009439000,10.92843896484375,-0.1251237839460373,0.16181570291519165,0.38056084513664246
1725629506019473000,10.938472900390625,-0.026784425601363182,0.2759241759777069,0.4375500977039337
1725629506029506800,10.9485068359375,0.05195645987987518,0.3650846779346466,0.5206183791160583
1725629506039539700,10.958539794921874,0.08778662234544754,0.44838276505470276,0.6306838393211365
1725629506049574000,10.968573974609376,0.10869554430246353,0.5137071013450623,0.7563865780830383
1725629506059608000,10.978608154296875,0.0988442450761795,0.5444165468215942,0.8735954761505127
1725629506069641700,10.988641845703125,0.06891749054193497,0.53751140832901,0.9403579831123352
1725629506079676000,10.998676025390624,-0.010431394912302494,0.4821448028087616,0.9749357104301453
1725629506089710000,11.0087099609375,-0.12774193286895752,0.3836151361465454,0.9585606455802917
1725629506099743700,11.01874365234375,-0.2664923667907715,0.27367398142814636,0.9402828812599182
1725629506109778000,11.02877783203125,-0.3614875376224518,0.21447201073169708,0.8899372220039368
1725629506119812000,11.03881201171875,-0.36542022228240967,0.1681460589170456,0.8088839054107666
1725629506129845800,11.048845703125,-0.3045596778392792,0.14349080622196198,0.7112820148468018
1725629506139880000,11.0588798828125,-0.2283940464258194,0.1085144504904747,0.6032721996307373
1725629506149913900,11.068913818359375,-0.14847232401371002,0.03648267313838005,0.5013821721076965
1725629506159947800,11.07894775390625,-0.10879574716091156,-0.024508778005838394,0.4369126558303833
1725629506169981000,11.08898095703125,-0.10947087407112122,-0.044404901564121246,0.4213159382343292
1725629506180014800,11.099014892578126,-0.13933131098747253,-0.03264065459370613,0.42485368251800537
1725629506190049000,11.109049072265625,-0.18732674419879913,0.008559370413422585,0.4299088418483734
1725629506200082700,11.119082763671875,-0.2179216742515564,0.06583251059055328,0.4242733120918274
1725629506210116900,11.129116943359374,-0.24450868368148804,0.13465534150600433,0.3985740840435028
1725629506220151000,11.139151123046876,-0.26534709334373474,0.2200634479522705,0.37258589267730713
1725629506230184700,11.149184814453125,-0.2772310972213745,0.22831131517887115,0.35431987047195435
1725629506240219000,11.159218994140625,-0.28214144706726074,0.2199077010154724,0.34563690423965454
1725629506250253000,11.169253173828125,-0.28439804911613464,0.1691437065601349,0.33490025997161865
1725629506260286700,11.17928662109375,-0.2714180648326874,0.08472069352865219,0.3328309953212738
1725629506270321000,11.18932080078125,-0.2633841335773468,-0.004116787575185299,0.34492769837379456
1725629506280355000,11.19935498046875,-0.2627228796482086,0.002578931860625744,0.38011816143989563
1725629506290388000,11.209387939453125,-0.2525746524333954,0.10691172629594803,0.4291488230228424
1725629506300422000,11.219421875,-0.2757057845592499,0.16373133659362793,0.4404435455799103
1725629506310455800,11.229455810546876,-0.3352242112159729,0.22878946363925934,0.4206516444683075
1725629506320487000,11.23948681640625,-0.40610450506210327,0.2372702956199646,0.3988848328590393
1725629506330520800,11.249520751953124,-0.487221896648407,0.13530759513378143,0.41468387842178345
1725629506340555000,11.259554931640626,-0.5296663045883179,-0.008603761903941631,0.42883962392807007
1725629506350589000,11.2695888671875,-0.4753108620643616,-0.08941859751939774,0.4567210078239441
1725629506360622800,11.279622802734375,-0.37284281849861145,-0.13237644731998444,0.496513694524765
1725629506370657000,11.289656982421874,-0.23611308634281158,-0.1913972645998001,0.5245605707168579
1725629506380691000,11.29969091796875,-0.04388132691383362,-0.21753378212451935,0.5417147874832153
1725629506390724900,11.309724853515625,0.19183553755283356,-0.18933938443660736,0.5291039943695068
1725629506400759000,11.319759033203125,0.40692389011383057,-0.0941910445690155,0.5376313924789429
1725629506410792700,11.329792724609375,0.5236283540725708,-0.02599262446165085,0.6311319470405579
1725629506420825900,11.339825927734376,0.49347978830337524,0.002490150509402156,0.7591085433959961
1725629506430860000,11.349860107421875,0.3561241626739502,-0.0721828043460846,0.9043605923652649
1725629506440894000,11.35989404296875,0.16455978155136108,-0.23625428974628448,0.9642515778541565
1725629506450927900,11.369927978515625,0.027104590088129044,-0.3239160478115082,0.9350279569625854
1725629506460961800,11.3799619140625,-0.052320994436740875,-0.4364580512046814,0.8148144483566284
1725629506470996000,11.389995849609376,-0.07623586058616638,-0.5724066495895386,0.6358076333999634
1725629506481030000,11.40002978515625,-0.009978017769753933,-0.6447697877883911,0.43870842456817627
1725629506491063800,11.410063720703125,0.10129718482494354,-0.5480883717536926,0.27743780612945557
1725629506501098000,11.420097900390624,0.21711593866348267,-0.2850165069103241,0.12645521759986877
1725629506511132000,11.4301318359375,0.2863812744617462,0.017837800085544586,-0.026204658672213554
1725629506521165800,11.440165771484375,0.32391878962516785,0.27899402379989624,-0.15724337100982666
1725629506531200000,11.450199951171875,0.3574126660823822,0.4744928479194641,-0.30242305994033813
1725629506541233000,11.46023291015625,0.3597746193408966,0.6232631206512451,-0.4937802255153656
1725629506551266800,11.470266845703126,0.31793785095214844,0.6842073798179626,-0.6605186462402344
1725629506561301000,11.480301025390625,0.2805230915546417,0.6464594602584839,-0.7743690609931946
1725629506571335000,11.4903349609375,0.24832074344158173,0.5277079939842224,-0.8385756611824036
1725629506581368800,11.500368896484375,0.24298137426376343,0.41859933733940125,-0.8618253469467163
1725629506591403000,11.510403076171874,0.2880312204360962,0.3290542960166931,-0.814611554145813
1725629506601437000,11.52043701171875,0.3871364891529083,0.34449049830436707,-0.69484543800354
1725629506611470800,11.530470947265625,0.5095775723457336,0.3388533890247345,-0.5707654356956482
1725629506621505000,11.540505126953125,0.591219425201416,0.2569342851638794,-0.5278059840202332
1725629506631539000,11.5505390625,0.6242324113845825,0.13619260489940643,-0.5193140506744385
1725629506641572900,11.56057275390625,0.6263022422790527,-0.05772998929023743,-0.49540868401527405
1725629506651607000,11.57060693359375,0.6065353751182556,-0.2780458331108093,-0.4741787314414978
1725629506661641000,11.580640869140625,0.545078694820404,-0.4494037330150604,-0.45398637652397156
1725629506671674000,11.590674072265625,0.4484759569168091,-0.5744917988777161,-0.4300316274166107
1725629506681707800,11.600707763671876,0.33084413409233093,-0.586085319519043,-0.41108188033103943
1725629506691742000,11.610741943359375,0.22255545854568481,-0.5710680484771729,-0.3856683671474457
1725629506701776100,11.620776123046875,0.1228533610701561,-0.5667702555656433,-0.36731305718421936
1725629506711809800,11.630809814453125,0.047551073133945465,-0.5174601078033447,-0.3529593050479889
1725629506721844000,11.640843994140624,-0.008458399213850498,-0.44823870062828064,-0.3433660566806793
1725629506731878100,11.650878173828126,-0.05928398296236992,-0.3763832747936249,-0.33533695340156555
1725629506741911800,11.660911865234375,-0.10273692011833191,-0.26556435227394104,-0.3513750433921814
1725629506751946000,11.670946044921875,-0.11611795425415039,-0.13076141476631165,-0.39063239097595215
1725629506761980000,11.68097998046875,-0.10393799096345901,-0.03676168993115425,-0.4145087003707886
1725629506772013800,11.691013916015624,-0.05922247841954231,0.0630442425608635,-0.42094841599464417
1725629506782048000,11.701048095703126,0.0013753531966358423,0.10698240250349045,-0.41984108090400696
1725629506792081000,11.711080810546875,0.06323085725307465,0.1560637503862381,-0.4168437123298645
1725629506802115000,11.721114990234375,0.12186034768819809,0.22165660560131073,-0.41441968083381653
1725629506812149000,11.73114892578125,0.1675603687763214,0.18965770304203033,-0.41276881098747253
1725629506822183000,11.741182861328125,0.18863236904144287,0.11514033377170563,-0.4077223837375641
1725629506832217000,11.751217041015625,0.18657511472702026,0.06962373107671738,-0.39722883701324463
1725629506842250800,11.761250732421875,0.16886694729328156,0.11132803559303284,-0.3822770416736603
1725629506852285000,11.771284912109374,0.14885640144348145,0.17154398560523987,-0.3677331507205963
1725629506862319000,11.781319091796876,0.12796683609485626,0.1833050400018692,-0.3402983248233795
1725629506872352800,11.791352783203125,0.08595913648605347,0.1834685206413269,-0.31920889019966125
1725629506882387000,11.801386962890625,0.07676803320646286,0.11698562651872635,-0.3351886570453644
1725629506892421000,11.811421142578125,0.07840099185705185,0.017470695078372955,-0.3876197040081024
1725629506902454800,11.821454833984374,0.05667811632156372,-0.022288436070084572,-0.5567557215690613
1725629506912489000,11.831489013671876,0.01687418483197689,-0.23269657790660858,-0.8629741072654724
1725629506922521900,11.84152197265625,0.005315265152603388,-0.5554240345954895,-1.0108648538589478
1725629506932556000,11.85155615234375,-0.02223406918346882,-0.7441569566726685,-1.0288949012756348
1725629506942590000,11.86158984375,-0.11153332144021988,-0.8437370657920837,-0.997351884841919
1725629506952623900,11.871623779296876,-0.24046020209789276,-0.8519689440727234,-0.9519163966178894
1725629506962658000,11.881657958984375,-0.34462684392929077,-0.8276689052581787,-0.9163498282432556
1725629506972692000,11.89169189453125,-0.4171202480792999,-0.7860395312309265,-0.8720465302467346
1725629506982726000,11.901725830078124,-0.47153979539871216,-0.6795117855072021,-0.801415205001831
1725629506992760000,11.911760009765626,-0.4705488681793213,-0.4975898563861847,-0.7213450074195862
1725629507002794000,11.9217939453125,-0.4333011209964752,-0.33342885971069336,-0.6904470324516296
1725629507012828000,11.931827880859375,-0.4122084677219391,-0.24866610765457153,-0.6001361012458801
1725629507022862000,11.941862060546875,-0.36419859528541565,-0.13382022082805634,-0.4265213906764984
1725629507032896000,11.95189599609375,-0.3281254768371582,-0.013084018602967262,-0.2240680456161499
1725629507042930000,11.961929931640626,-0.2759610712528229,0.1577785462141037,-0.013443969190120697
1725629507052963000,11.971963134765625,-0.19790753722190857,0.34951791167259216,0.17703589797019958
1725629507062997000,11.9819970703125,-0.13317221403121948,0.4966732859611511,0.31715065240859985
1725629507073031000,11.992031005859374,-0.11363907158374786,0.6017425656318665,0.4437215030193329
1725629507083065000,12.002065185546876,-0.09637699276208878,0.6916844248771667,0.5936441421508789
1725629507093098800,12.0120986328125,-0.07529443502426147,0.746245265007019,0.7556989192962646
1725629507103133000,12.0221328125,-0.03260955959558487,0.7943236231803894,0.8803590536117554
1725629507113167000,12.0321669921875,0.020497256889939308,0.8491922616958618,0.9536682963371277
1725629507123200800,12.04220068359375,0.09485004842281342,0.9583829641342163,1.04002845287323
1725629507133235000,12.05223486328125,0.1316104382276535,1.1244794130325317,1.1733542680740356
1725629507143268900,12.062268798828125,0.08752527832984924,1.2934529781341553,1.318189263343811
1725629507153302800,12.072302734375,-0.027730396017432213,1.3807573318481445,1.3948034048080444
1725629507163337000,12.0823369140625,-0.1863863468170166,1.2838430404663086,1.3013978004455566
1725629507173369900,12.092369873046875,-0.30051925778388977,1.037367343902588,1.1352330446243286
1725629507183404000,12.102404052734375,-0.34516316652297974,0.7396285533905029,1.0064377784729004
1725629507193438000,12.11243798828125,-0.31980985403060913,0.4127752482891083,0.8821284770965576
1725629507203472000,12.122471923828124,-0.2232273817062378,0.07621535658836365,0.7692879438400269
1725629507213506000,12.132506103515626,-0.08597374707460403,-0.20804519951343536,0.6522992253303528
1725629507223539700,12.142539794921875,0.048155829310417175,-0.4263908565044403,0.5456199049949646
1725629507233574000,12.152573974609375,0.1355770230293274,-0.5726388096809387,0.4585004448890686
1725629507243608000,12.162608154296874,0.16329388320446014,-0.6052170395851135,0.3971385359764099
1725629507253641700,12.172641845703126,0.14795637130737305,-0.5722036361694336,0.35647284984588623
1725629507263676000,12.182676025390625,0.12073248624801636,-0.48454970121383667,0.33251479268074036
1725629507273710000,12.1927099609375,0.06805956363677979,-0.3632887899875641,0.3442789316177368
1725629507283743700,12.20274365234375,0.0000040767190512269735,-0.23586507141590118,0.38493582606315613
1725629507293777000,12.21277685546875,-0.0514238066971302,-0.13376177847385406,0.44811949133872986
1725629507303810800,12.222810791015625,-0.10834034532308578,-0.11434093117713928,0.5234235525131226
1725629507313845000,12.232844970703125,-0.13501134514808655,-0.14630477130413055,0.573204517364502
1725629507323878400,12.24287841796875,-0.12015649676322937,-0.1367882341146469,0.6418112516403198
1725629507333912600,12.25291259765625,-0.06381494551897049,-0.1349845826625824,0.682524561882019
1725629507343946500,12.262946533203126,0.0037427940405905247,-0.12481104582548141,0.7011275291442871
1725629507353980400,12.27298046875,0.09366721659898758,-0.02716083452105522,0.7046783566474915
1725629507364014600,12.2830146484375,0.17225949466228485,0.06876063346862793,0.6569308042526245
1725629507374048500,12.293048583984374,0.2570778727531433,0.1114240437746048,0.5490649342536926
1725629507384082400,12.30308251953125,0.34190061688423157,0.1599487066268921,0.4449036717414856
1725629507394116400,12.313116455078125,0.38917702436447144,0.19742131233215332,0.3440544307231903
1725629507404150500,12.323150634765625,0.43952885270118713,0.2773891091346741,0.27943018078804016
1725629507414184400,12.333184326171875,0.4809180498123169,0.41881632804870605,0.2778843641281128
1725629507424217300,12.34321728515625,0.4946591556072235,0.5336385369300842,0.2976343631744385
1725629507434251500,12.35325146484375,0.46109047532081604,0.7446845769882202,0.46034109592437744
1725629507444285700,12.36328564453125,0.3418218791484833,0.6453891396522522,0.6955805420875549
1725629507454319400,12.3733193359375,0.15451733767986298,0.48752591013908386,0.850075900554657
1725629507464353500,12.383353515625,-0.010649243369698524,0.4329012930393219,1.0116016864776611
1725629507474387500,12.393387451171876,-0.1484779268503189,0.27045297622680664,1.081756591796875
1725629507484421400,12.40342138671875,-0.19473278522491455,0.11807888746261597,1.1514840126037598
1725629507494455600,12.41345556640625,-0.136832132935524,-0.13174936175346375,1.2257944345474243
1725629507504489500,12.423489501953124,-0.03876841813325882,-0.4751035273075104,1.256494402885437
1725629507514523400,12.4335234375,0.050499722361564636,-0.6995950937271118,1.2557709217071533
1725629507524557600,12.4435576171875,0.08000142872333527,-0.7482324242591858,1.199306845664978
1725629507534591500,12.453591552734375,0.017186399549245834,-0.6405428647994995,1.030295729637146
1725629507544624600,12.463624755859374,-0.06831065565347672,-0.5285361409187317,0.7967020273208618
1725629507554658300,12.473658203125,-0.04069065302610397,-0.44123581051826477,0.4954565465450287
1725629507564692500,12.4836923828125,0.04087717831134796,-0.2919027805328369,0.13620276749134064
1725629507574726700,12.4937265625,0.09114095568656921,-0.05554070323705673,-0.24149110913276672
1725629507584760300,12.50376025390625,0.07584482431411743,0.11404326558113098,-0.5453721880912781
1725629507594794500,12.51379443359375,0.0035592082422226667,0.15699180960655212,-0.721328854560852
