time,seconds_elapsed,z,y,x
1725630284070380300,0.02438037109375,0.19169864058494568,-0.39623531699180603,-0.0007590768509544432
1725630284080333300,0.034333251953125,0.1863294392824173,-0.1801254153251648,-0.21823200583457947
1725630284090286000,0.0442861328125,0.13265840709209442,-0.06375720351934433,-0.3516402244567871
1725630284100239000,0.054239013671875,0.024281321093440056,-0.024737097322940826,-0.3481578826904297
1725630284110193000,0.06419287109375,-0.1460036337375641,-0.055126577615737915,-0.2154545783996582
1725630284120146000,0.07414599609375,-0.3534814417362213,0.00436897249892354,-0.024113109335303307
1725630284130099000,0.084098876953125,-0.567003607749939,0.13601061701774597,0.21302726864814758
1725630284140052000,0.094052001953125,-0.7531982660293579,0.29244470596313477,0.4006562829017639
1725630284150006000,0.104006103515625,-0.8197045922279358,0.5463666319847107,0.48985618352890015
1725630284159959000,0.113958984375,-0.7737895250320435,0.7379738688468933,0.4677266478538513
1725630284169912000,0.123912109375,-0.6267805099487305,0.8922709822654724,0.3727186620235443
1725630284179865000,0.133864990234375,-0.4105890989303589,1.062717318534851,0.3487217128276825
1725630284189819100,0.143819091796875,-0.25480175018310547,1.044559359550476,0.45584040880203247
1725630284199772200,0.153772216796875,-0.08605027943849564,0.6608718633651733,0.8441330194473267
1725630284209725200,0.16372509765625,0.2609766721725464,0.24829907715320587,1.4435828924179077
1725630284219678200,0.17367822265625,0.06599597632884979,-0.40706437826156616,1.7404202222824097
1725630284229632300,0.18363232421875,-0.28757765889167786,-0.9670577049255371,1.9212372303009033
1725630284239585300,0.193585205078125,-0.11294084787368774,-1.2825783491134644,1.7604202032089233
1725630284249538300,0.203538330078125,0.4670144319534302,-0.16104185581207275,1.3342247009277344
1725630284259491300,0.2134912109375,1.1185709238052368,0.5475198030471802,0.8238179683685303
1725630284269445000,0.223445068359375,1.519832730293274,0.5957115888595581,0.20422840118408203
1725630284279398100,0.233398193359375,1.4872231483459473,0.30434155464172363,-0.39717569947242737
1725630284289351200,0.24335107421875,1.0669747591018677,0.34990671277046204,-0.7153780460357666
1725630284299305200,0.25330517578125,0.1429697871208191,1.46877121925354,-0.5097119808197021
1725630284309258200,0.26325830078125,-0.8492529392242432,2.3965651988983154,-0.03815767168998718
1725630284319211000,0.2732109375,-1.015529990196228,0.8516331911087036,-0.06631580740213394
1725630284329164000,0.2831640625,-0.9429014325141907,-0.4142243564128876,-0.21472899615764618
1725630284339118000,0.2931181640625,-1.0609047412872314,-1.1372568607330322,-0.29049938917160034
1725630284349071000,0.303071044921875,-0.7823747992515564,-1.4319639205932617,-0.3819493353366852
1725630284359024000,0.313024169921875,-0.08483859151601791,-1.8589767217636108,-0.7329105734825134
1725630284368977200,0.32297705078125,0.5563528537750244,-1.8504339456558228,-1.098649024963379
1725630284378931000,0.332930908203125,1.0284740924835205,-1.7137187719345093,-1.3169879913330078
1725630284388884000,0.342884033203125,1.260862112045288,-1.5081076622009277,-1.2651311159133911
1725630284398837000,0.3528369140625,1.1141676902770996,-1.2103084325790405,-1.0529056787490845
1725630284408790000,0.3627900390625,0.9202201962471008,-1.0686999559402466,-0.9713937640190125
1725630284418744000,0.372744140625,0.966389000415802,-1.0443702936172485,-1.1987102031707764
1725630284428697000,0.382697021484375,1.151916742324829,-1.13491952419281,-1.628068447113037
1725630284438650000,0.392650146484375,1.568488597869873,-0.7368826866149902,-2.5394041538238525
1725630284448603100,0.40260302734375,1.9894195795059204,-0.9462500810623169,-2.5479588508605957
1725630284458557200,0.41255712890625,2.324328899383545,-1.4245340824127197,-2.1666953563690186
1725630284468510200,0.42251025390625,2.4646506309509277,-2.7329185009002686,-1.6717863082885742
1725630284478463200,0.432463134765625,3.246758222579956,-3.567864418029785,-0.9402445554733276
1725630284488416300,0.442416259765625,4.1431074142456055,-4.091670989990234,-0.45958375930786133
1725630284498370000,0.4523701171875,4.711488246917725,-4.815220355987549,-0.08342397958040237
1725630284508323000,0.462322998046875,5.4189934730529785,-5.725119113922119,0.36403167247772217
1725630284518276000,0.472276123046875,6.090286731719971,-6.718514442443848,0.6184767484664917
1725630284528230100,0.482230224609375,7.220272541046143,-6.7515668869018555,0.46311062574386597
1725630284538183200,0.49218310546875,7.301783561706543,-6.981215953826904,0.10095507651567459
1725630284548136200,0.50213623046875,6.827785491943359,-6.99697208404541,-0.6635136008262634
1725630284558089000,0.5120888671875,5.9181647300720215,-5.463973522186279,-1.1603130102157593
1725630284568043300,0.522043212890625,5.405113697052002,-4.2273149490356445,-1.7002027034759521
1725630284577996000,0.53199609375,5.041320323944092,-3.2996413707733154,-2.0537960529327393
1725630284587949000,0.541948974609375,4.862198352813721,-2.8063361644744873,-1.991765022277832
1725630284597902000,0.551902099609375,4.942099571228027,-3.2315895557403564,-1.5183169841766357
1725630284607856000,0.561856201171875,5.296732425689697,-3.7296392917633057,-1.100468397140503
1725630284617809200,0.57180908203125,5.709195613861084,-3.623561382293701,-0.9553037285804749
1725630284627762200,0.58176220703125,5.568789005279541,-3.434682846069336,-0.8531210422515869
1725630284637715200,0.591715087890625,5.029171466827393,-3.3747763633728027,-0.3523021638393402
1725630284647669000,0.6016689453125,3.3096938133239746,-3.289308786392212,-0.3041600286960602
1725630284657622000,0.6116220703125,1.7868233919143677,-3.4860892295837402,-0.6755304336547852
1725630284667575000,0.621574951171875,0.736091673374176,-2.9479589462280273,-1.504780650138855
1725630284677528000,0.631528076171875,1.7585101127624512,-1.5212955474853516,-2.2285594940185547
1725630284687482000,0.641482177734375,2.3612966537475586,-0.02214193530380726,-2.8208539485931396
1725630284697435100,0.65143505859375,2.578554153442383,-0.1850123554468155,-2.9935691356658936
1725630284707388200,0.66138818359375,3.211878776550293,-0.5394777655601501,-3.0785305500030518
1725630284717342200,0.67134228515625,3.5963075160980225,-0.560641884803772,-3.243760347366333
1725630284727295200,0.681295166015625,4.272092819213867,0.09807593375444412,-3.7668251991271973
1725630284737248300,0.691248291015625,4.370882511138916,1.1974706649780273,-4.429490566253662
1725630284747201300,0.701201171875,3.6877126693725586,2.3198695182800293,-4.896690368652344
1725630284757155000,0.711155029296875,2.9092326164245605,3.361572265625,-4.687100410461426
1725630284767108000,0.721108154296875,2.796781301498413,4.012356758117676,-3.918881416320801
1725630284777061000,0.73106103515625,3.051670789718628,3.4526216983795166,-3.018371105194092
1725630284787014000,0.741013916015625,2.7056586742401123,3.434904098510742,-2.2924563884735107
1725630284796968200,0.75096826171875,2.566328525543213,3.1129074096679688,-2.00307297706604
1725630284806921000,0.7609208984375,3.1331849098205566,3.8631751537323,-2.213683605194092
1725630284816874000,0.7708740234375,3.018364667892456,3.468681812286377,-2.3799045085906982
1725630284826827000,0.780826904296875,1.195703387260437,3.783350944519043,-2.0509932041168213
1725630284836781000,0.790781005859375,3.822216033935547,5.008833885192871,-2.0555574893951416
1725630284846734000,0.800734130859375,4.475090026855469,5.666568279266357,-2.5734713077545166
1725630284856687000,0.81068701171875,3.3856711387634277,4.478358745574951,-2.1745896339416504
1725630284866640100,0.82064013671875,2.480436086654663,3.8681116104125977,-0.9498103857040405
1725630284876594200,0.83059423828125,2.4228529930114746,3.136928081512451,-0.30407023429870605
1725630284886547200,0.840547119140625,2.7618777751922607,2.4626734256744385,-0.3254309296607971
1725630284896500200,0.850500244140625,1.2726821899414062,1.9117099046707153,-0.3323109447956085
1725630284906453200,0.860453369140625,1.2844483852386475,2.251263380050659,0.0414564274251461
1725630284916407000,0.870406982421875,2.8043689727783203,3.4152965545654297,-0.5757133364677429
1725630284926360000,0.880360107421875,2.8839471340179443,2.999309539794922,-0.2384132444858551
1725630284936313000,0.89031298828125,2.645038366317749,2.6535701751708984,0.5769731402397156
1725630284946267100,0.90026708984375,2.5378522872924805,2.6160340309143066,1.062074065208435
1725630284956220200,0.91022021484375,2.6898837089538574,2.799933671951294,1.0712603330612183
1725630284966173200,0.920173095703125,2.9523258209228516,3.2499544620513916,-0.0831822082400322
1725630284976126200,0.930126220703125,3.7595198154449463,3.2355751991271973,1.4904348850250244
1725630284986080300,0.940080322265625,3.450979709625244,1.4273337125778198,3.1464061737060547
1725630284996033300,0.950033203125,2.929832696914673,0.26057061553001404,3.1376047134399414
1725630285005986300,0.959986328125,2.188835620880127,0.14722561836242676,1.9248024225234985
1725630285015939300,0.969939208984375,0.9093123078346252,0.12920480966567993,-0.15371887385845184
1725630285025893000,0.97989306640625,-0.056165143847465515,0.8496522903442383,-0.5807445049285889
1725630285035846100,0.98984619140625,-0.8192425966262817,0.9206186532974243,-0.3558368384838104
1725630285045799200,0.999799072265625,-1.085443377494812,1.0633364915847778,-0.11216842383146286
1725630285055752200,1.009752197265625,-1.3804984092712402,0.8516958355903625,0.027141263708472252
1725630285065706200,1.019706298828125,-1.5753326416015625,0.2727704644203186,0.04128634184598923
1725630285075659300,1.0296591796875,-1.6396498680114746,-0.28593915700912476,-0.23766860365867615
1725630285085612300,1.0396123046875,-1.4829092025756836,-0.28548771142959595,-0.45448988676071167
1725630285095565300,1.0495654296875,-1.2225849628448486,-0.060338232666254044,-0.6284222602844238
1725630285105519400,1.059519287109375,-1.0509353876113892,0.09944148361682892,-0.9900152683258057
1725630285115472400,1.069472412109375,-1.0326257944107056,-0.28189921379089355,-0.9323242902755737
1725630285125425400,1.07942529296875,-0.9553995132446289,-0.7291427254676819,-1.1979258060455322
1725630285135379200,1.089379150390625,-0.891740083694458,-0.9451008439064026,-1.2329716682434082
1725630285145332200,1.099332275390625,-0.7548787593841553,-0.5843488574028015,-0.6923454403877258
1725630285155285200,1.10928515625,-0.8342297673225403,-0.028256023302674294,-0.2821243107318878
1725630285165238300,1.11923828125,-0.9856986403465271,0.5282511115074158,-0.055384330451488495
1725630285175192300,1.1291923828125,-1.0569744110107422,0.8057999014854431,-0.12779806554317474
1725630285185145300,1.139145263671875,-1.1198052167892456,0.9428754448890686,-0.28234124183654785
1725630285195098400,1.149098388671875,-1.143415927886963,1.0732395648956299,-0.6146385073661804
1725630285205051400,1.159051513671875,-1.2481132745742798,1.1088485717773438,-0.9611722230911255
1725630285215005400,1.16900537109375,-1.1988778114318848,1.0867278575897217,-1.291784644126892
1725630285224958500,1.17895849609375,-0.9751506447792053,1.0782498121261597,-1.7123314142227173
1725630285234911500,1.188911376953125,-0.6900911927223206,1.1435961723327637,-2.036349058151245
1725630285244864300,1.1988642578125,-0.604183554649353,1.1452620029449463,-2.3716139793395996
1725630285254818600,1.208818603515625,-0.5756109952926636,1.0771644115447998,-2.3124351501464844
1725630285264771300,1.218771240234375,-0.5630014538764954,1.1144899129867554,-2.0207011699676514
1725630285274724400,1.228724365234375,-0.6112051606178284,0.9177520275115967,-1.7213035821914673
1725630285284677400,1.238677490234375,-0.7480099201202393,0.7874565720558167,-1.28767728805542
1725630285294631200,1.248631103515625,-0.9520080089569092,0.7999156713485718,-1.0574305057525635
1725630285304584200,1.258584228515625,-1.2670818567276,0.34145474433898926,-1.0529882907867432
1725630285314537200,1.268537109375,-1.5456182956695557,0.9077972769737244,-1.2127100229263306
1725630285324491300,1.2784912109375,-1.7551310062408447,0.42617571353912354,-1.889580488204956
1725630285334444300,1.2884443359375,-1.66916024684906,0.27060261368751526,-1.889438271522522
1725630285344397300,1.298397216796875,-1.482440710067749,0.0344494991004467,-1.7291841506958008
1725630285354350300,1.308350341796875,-1.311105728149414,-0.17674663662910461,-1.5228371620178223
1725630285364304400,1.318304443359375,-1.1224676370620728,-0.02803962491452694,-1.3188514709472656
1725630285374257400,1.32825732421875,-0.909066379070282,0.2648215591907501,-0.9339839220046997
1725630285384210400,1.33821044921875,-0.8500494956970215,0.527571976184845,-0.5502392053604126
1725630285394163500,1.34816357421875,-0.8622824549674988,0.5863609910011292,-0.5612942576408386
1725630285404117200,1.3581171875,-0.7761795520782471,0.3329659104347229,-0.24003301560878754
1725630285414070300,1.3680703125,-0.5960694551467896,0.7420061230659485,-0.07426295429468155
1725630285424023300,1.378023193359375,-0.3576693832874298,0.624340832233429,0.30741357803344727
1725630285433977300,1.387977294921875,0.1904033124446869,0.32103079557418823,0.5923683643341064
1725630285443930400,1.397930419921875,0.06586261838674545,0.04321593791246414,0.655543327331543
1725630285453883400,1.40788330078125,-0.10293439030647278,-0.07538474351167679,0.5612671375274658
1725630285463836400,1.41783642578125,-0.18327850103378296,-0.1269071400165558,0.49775946140289307
1725630285473790500,1.42779052734375,0.01737283542752266,-0.16704364120960236,0.68253093957901
1725630285483743500,1.437743408203125,0.7508580088615417,0.057914283126592636,0.7526313066482544
1725630285493696300,1.4476962890625,0.7573638558387756,-0.19539256393909454,0.36731499433517456
1725630285503649300,1.457649169921875,0.7037188410758972,-0.30689749121665955,0.15065456926822662
1725630285513603300,1.467603271484375,0.5598516464233398,-0.33475494384765625,0.000036571407690644264
1725630285523556400,1.477556396484375,0.40111467242240906,-0.35001906752586365,-0.12007349729537964
1725630285533509400,1.48750927734375,0.18757493793964386,-0.23108947277069092,-0.22617197036743164
1725630285543462400,1.49746240234375,-0.029589658603072166,-0.286498486995697,-0.3053090274333954
1725630285553416200,1.507416259765625,-0.22319772839546204,-0.12590424716472626,-0.35270771384239197
1725630285563369200,1.517369140625,-0.4527960419654846,-0.11334070563316345,-0.476300984621048
1725630285573322200,1.527322265625,-0.5830534100532532,-0.10413841903209686,-0.5314981341362
1725630285583276300,1.5372763671875,-0.7685818672180176,-0.06587888300418854,-0.47463157773017883
1725630285593229300,1.547229248046875,-0.7263420224189758,-0.016411997377872467,-0.3177708387374878
1725630285603182300,1.557182373046875,-0.6990137100219727,-0.06515529751777649,-0.1404072642326355
1725630285613135400,1.56713525390625,-0.5104962587356567,-0.1676284223794937,-0.030088741332292557
1725630285623089400,1.57708935546875,-0.21490322053432465,-0.06871381402015686,-0.026641812175512314
1725630285633042400,1.58704248046875,0.104549340903759,-0.0508892796933651,0.012481623329222202
1725630285642995500,1.596995361328125,0.4469453692436218,0.013433309271931648,-0.015155588276684284
1725630285652949200,1.60694921875,0.7715103626251221,-0.08532974869012833,-0.037993792444467545
1725630285662902300,1.61690234375,1.0252209901809692,0.009602262638509274,-0.12495164573192596
1725630285672855300,1.626855224609375,1.203822135925293,-0.01316137332469225,-0.14406995475292206
1725630285682808300,1.636808349609375,1.3435331583023071,-0.04444487392902374,-0.12400726974010468
1725630285692762400,1.646762451171875,1.4531563520431519,-0.06339006870985031,-0.17545582354068756
1725630285702715400,1.65671533203125,1.59988272190094,-0.1569344848394394,-0.24933035671710968
1725630285712668400,1.66666845703125,1.5046433210372925,-0.25636816024780273,-0.3842695355415344
1725630285722621400,1.676621337890625,1.1221085786819458,-0.3940258026123047,-0.6109719276428223
1725630285732575500,1.686575439453125,0.46610912680625916,-0.4342464506626129,-0.8031017184257507
1725630285742528500,1.696528564453125,0.37399137020111084,-0.08487683534622192,-0.4526759088039398
1725630285752481300,1.706481201171875,0.23544521629810333,0.08309832215309143,-0.23088997602462769
1725630285762435300,1.716435302734375,0.22479252517223358,0.2873329818248749,-0.08911203593015671
1725630285772388000,1.72638818359375,0.32550424337387085,0.398130863904953,-0.06339814513921738
1725630285782341000,1.736341064453125,0.4291950762271881,0.1422218531370163,-0.364857941865921
1725630285792294100,1.746294189453125,0.4754597544670105,0.1764133721590042,-0.5871184468269348
1725630285802248200,1.756248291015625,0.4624979794025421,0.219543918967247,-0.7600536942481995
1725630285812201200,1.766201171875,0.4410070776939392,0.3539520502090454,-0.8077589273452759
1725630285822154200,1.776154296875,0.461216539144516,0.36865854263305664,-0.8344907164573669
1725630285832107300,1.786107177734375,0.4565163254737854,0.3555770814418793,-0.7367950677871704
1725630285842061300,1.796061279296875,0.4457249343395233,0.41232115030288696,-0.6008371710777283
1725630285852014300,1.806014404296875,0.4352720081806183,0.41295763850212097,-0.5289632678031921
1725630285861967400,1.81596728515625,0.4505302309989929,0.3558984100818634,-0.5616538524627686
1725630285871921400,1.82592138671875,0.4810316860675812,0.30893704295158386,-0.5573754906654358
1725630285881874400,1.83587451171875,0.5059851408004761,0.20588475465774536,-0.5289431214332581
1725630285891827500,1.845827392578125,0.5193080902099609,0.11803079396486282,-0.4885408282279968
1725630285901780500,1.855780517578125,0.5012450814247131,0.034668080508708954,-0.41358619928359985
1725630285911734300,1.865734375,0.4856525659561157,0.013236824423074722,-0.3481403589248657
1725630285921687300,1.875687255859375,0.45797964930534363,0.025728324428200722,-0.30293411016464233
1725630285931640300,1.885640380859375,0.4374037981033325,0.048428844660520554,-0.2761959731578827
1725630285941594400,1.895594482421875,0.45165732502937317,0.018608154729008675,-0.24959568679332733
1725630285951547400,1.90554736328125,0.4626428484916687,-0.08653158694505692,-0.3026048243045807
1725630285961500400,1.91550048828125,0.4936152398586273,-0.1300487518310547,-0.35093244910240173
1725630285971453400,1.925453369140625,0.5083473324775696,-0.17494378983974457,-0.3538086414337158
1725630285981407500,1.935407470703125,0.4931829273700714,-0.12680745124816895,-0.3055666983127594
1725630285991360500,1.945360595703125,0.4594305455684662,-0.1458280235528946,-0.2834073305130005
1725630286001313300,1.955313232421875,0.41969823837280273,-0.069621242582798,-0.2379932552576065
1725630286011266300,1.965266357421875,0.350080281496048,0.010941772721707821,-0.22532007098197937
1725630286021220000,1.97522021484375,0.32065194845199585,0.008935791440308094,-0.2285131812095642
1725630286031173000,1.985173095703125,0.29813092947006226,0.0022805521730333567,-0.24456511437892914
1725630286041126100,1.995126220703125,0.3093341886997223,-0.052922192960977554,-0.2650880515575409
1725630286051080200,2.005080078125,0.3144797086715698,-0.11068562418222427,-0.27183568477630615
1725630286061033200,2.015033203125,0.3067167401313782,-0.023263098672032356,-0.25138917565345764
1725630286070986200,2.024986328125,0.3107098639011383,-0.07338831573724747,-0.18553613126277924
1725630286080939300,2.034939208984375,0.24213752150535583,0.03606979548931122,-0.07784722000360489
1725630286090893300,2.044893310546875,0.17766238749027252,-0.015697265043854713,-0.017353512346744537
1725630286100846300,2.054846435546875,0.1306350976228714,-0.019374020397663116,0.017055409029126167
1725630286110799400,2.06479931640625,0.08557654917240143,-0.10648015886545181,0.042971428483724594
1725630286120752000,2.074752197265625,0.046374399214982986,-0.2095249593257904,0.11757677048444748
1725630286130706400,2.08470654296875,0.10819382965564728,-0.18247629702091217,0.08136283606290817
1725630286140659200,2.0946591796875,0.11113888770341873,-0.33464905619621277,-0.06818369776010513
1725630286150612200,2.1046123046875,0.021447883918881416,-0.32432079315185547,-0.08668921142816544
1725630286160566000,2.11456591796875,-0.0989321917295456,-0.06568692624568939,0.11649935692548752
1725630286170519000,2.12451904296875,-0.16470295190811157,0.07313327491283417,0.16858519613742828
1725630286180472000,2.13447216796875,-0.17822018265724182,-0.006357234437018633,0.17352423071861267
1725630286190425000,2.144425048828125,-0.2398289442062378,-0.0656764879822731,0.3124198019504547
1725630286200379100,2.154379150390625,-0.2174387276172638,-0.011702700518071651,0.3619903028011322
1725630286210332200,2.164332275390625,-0.16750818490982056,-0.17850740253925323,0.1880696564912796
1725630286220285200,2.17428515625,-0.15874309837818146,-0.1501205563545227,0.038847483694553375
1725630286230239200,2.1842392578125,-0.17088072001934052,-0.1968153566122055,0.07338149100542068
1725630286240192300,2.194192138671875,-0.1734895557165146,0.0033523545134812593,0.27805671095848083
1725630286250145300,2.204145263671875,-0.16775178909301758,0.18293356895446777,0.39572662115097046
1725630286260098300,2.214098388671875,-0.17269572615623474,0.09459112584590912,0.3208100199699402
1725630286270052000,2.224052001953125,-0.17335058748722076,0.01343555562198162,0.23419976234436035
1725630286280005000,2.234005126953125,-0.15644527971744537,-0.10753930360078812,0.1975979506969452
1725630286289958100,2.243958251953125,-0.16266323626041412,-0.2395218461751938,0.1886792927980423
1725630286299911200,2.2539111328125,-0.14473573863506317,-0.16940385103225708,0.22745072841644287
1725630286309865200,2.263865234375,-0.2768186628818512,-0.25315362215042114,0.14735828340053558
1725630286319818200,2.273818359375,-0.3273547887802124,-0.29401183128356934,0.09829077869653702
1725630286329771300,2.283771240234375,-0.32381439208984375,-0.2300373762845993,0.011575322598218918
1725630286339724300,2.293724365234375,-0.3271244466304779,-0.2014472782611847,-0.04235811159014702
1725630286349678300,2.30367822265625,-0.3241283893585205,-0.18676580488681793,-0.03627944737672806
1725630286359631400,2.31363134765625,-0.31422922015190125,-0.18775129318237305,0.00207927031442523
1725630286369584000,2.323584228515625,-0.31609663367271423,-0.14929711818695068,0.03365929797291756
1725630286379538200,2.3335380859375,-0.35032007098197937,-0.0878981351852417,0.04705287888646126
1725630286389491200,2.3434912109375,-0.40010201930999756,-0.04200707748532295,0.05950555577874184
1725630286399444200,2.3534443359375,-0.4111020863056183,0.02670496329665184,0.09200605005025864
1725630286409397200,2.363397216796875,-0.43282708525657654,0.08405666798353195,0.09135250747203827
1725630286419351000,2.37335107421875,-0.4327389597892761,0.17461848258972168,0.12064903229475021
1725630286429304000,2.383303955078125,-0.5063942670822144,0.3681253492832184,0.2894667983055115
1725630286439257000,2.393257080078125,-0.5370965600013733,0.5300426483154297,0.392850786447525
1725630286449211100,2.403211181640625,-0.4843934178352356,0.46881815791130066,0.24341680109500885
1725630286459164200,2.4131640625,-0.38979578018188477,0.37106800079345703,0.013657968491315842
1725630286469117200,2.4231171875,-0.29678088426589966,0.3348498046398163,-0.14637057483196259
1725630286479070200,2.4330703125,-0.19620782136917114,0.30259013175964355,-0.19677241146564484
1725630286489024300,2.443024169921875,-0.11247963458299637,0.2508595585823059,-0.20353896915912628
1725630286498977300,2.452977294921875,-0.0294360239058733,0.16996408998966217,-0.22513149678707123
1725630286508930300,2.462930419921875,0.024805642664432526,0.06634075939655304,-0.26233983039855957
1725630286518883300,2.47288330078125,0.07212113589048386,-0.010150136426091194,-0.2875802516937256
1725630286528837000,2.482837158203125,0.12401309609413147,-0.08415166288614273,-0.2910623252391815
1725630286538790100,2.4927900390625,0.1567278802394867,-0.16173726320266724,-0.2793898284435272
1725630286548743200,2.5027431640625,0.1719672828912735,-0.14690692722797394,-0.238529771566391
1725630286558697200,2.512697265625,0.15368475019931793,-0.27350324392318726,-0.18432527780532837
1725630286568650200,2.522650146484375,0.08935609459877014,-0.1785799115896225,-0.07319342344999313
1725630286578603300,2.532603271484375,0.02837395668029785,-0.20288455486297607,-0.02438945323228836
1725630286588556300,2.542556396484375,-0.02754257246851921,-0.11777978390455246,-0.02625180222094059
1725630286598510300,2.55251025390625,-0.07262537628412247,-0.12659218907356262,-0.0777796059846878
1725630286608463400,2.56246337890625,-0.1319531500339508,0.015382535755634308,-0.08874650299549103
1725630286618416400,2.57241650390625,-0.17313149571418762,-0.01544681005179882,-0.09996544569730759
1725630286628369200,2.582369140625,-0.22003881633281708,0.16650834679603577,-0.05745846778154373
1725630286638323200,2.5923232421875,-0.22082041203975677,0.15409211814403534,-0.01461101695895195
1725630286648276000,2.60227587890625,-0.23864388465881348,0.17801237106323242,-0.030271468684077263
1725630286658229000,2.61222900390625,-0.2209731936454773,0.13955733180046082,-0.08203142881393433
1725630286668182000,2.62218212890625,-0.1860186755657196,0.09335388243198395,-0.13540808856487274
1725630286678136000,2.632135986328125,-0.15562067925930023,-0.09910770505666733,-0.14046722650527954
1725630286688089000,2.642089111328125,-0.14961844682693481,-0.10251841694116592,-0.13466127216815948
1725630286698042000,2.6520419921875,-0.07171086966991425,-0.12819910049438477,-0.11259756237268448
1725630286707996200,2.66199609375,-0.09463243186473846,-0.2527109384536743,-0.07911843061447144
1725630286717949200,2.67194921875,-0.13292157649993896,-0.1983935832977295,-0.05757443606853485
1725630286727902200,2.681902099609375,-0.21286088228225708,-0.14927902817726135,-0.02249714359641075
1725630286737855200,2.691855224609375,-0.28638219833374023,-0.118327796459198,0.0024945519398897886
1725630286747809300,2.701809326171875,-0.3357689380645752,-0.02664927765727043,0.017960859462618828
1725630286757762300,2.71176220703125,-0.3666955828666687,0.03627583384513855,0.07139033824205399
1725630286767715300,2.72171533203125,-0.36722344160079956,0.0362262986600399,0.14208847284317017
1725630286777668400,2.73166845703125,-0.3584491014480591,0.010543008334934711,0.21655146777629852
1725630286787622100,2.7416220703125,-0.3464052081108093,-0.1076882928609848,0.25024178624153137
1725630286797575200,2.7515751953125,-0.3466719090938568,-0.05103451386094093,0.25112396478652954
1725630286807528200,2.761528076171875,-0.3332173526287079,-0.011920132674276829,0.24723921716213226
1725630286817482200,2.771482177734375,-0.31008124351501465,0.016123276203870773,0.2383977174758911
1725630286827435300,2.781435302734375,-0.3144187331199646,0.12095434963703156,0.24278581142425537
1725630286837388300,2.79138818359375,-0.32375264167785645,0.17020803689956665,0.2459796667098999
1725630286847341300,2.80134130859375,-0.33763542771339417,0.23766537010669708,0.2381768673658371
1725630286857295400,2.81129541015625,-0.36736005544662476,0.3395698368549347,0.22264717519283295
1725630286867248400,2.821248291015625,-0.383365660905838,0.37588149309158325,0.1887134462594986
1725630286877201400,2.831201416015625,-0.43086516857147217,0.4284927248954773,0.13314390182495117
1725630286887154200,2.841154296875,-0.42886433005332947,0.45384708046913147,0.11058638244867325
1725630286897108200,2.851108154296875,-0.4589921236038208,0.5308642387390137,0.10811284929513931
1725630286907061000,2.86106103515625,-0.4943618178367615,0.5829596519470215,0.1476815640926361
1725630286917014000,2.871013916015625,-0.5162072777748108,0.6628402471542358,0.17445003986358643
1725630286926967000,2.880967041015625,-0.5567948818206787,0.7274584174156189,0.23621860146522522
1725630286936921000,2.890921142578125,-0.5792543292045593,0.6858903169631958,0.22510923445224762
1725630286946874000,2.9008740234375,-0.6011053323745728,0.5612668991088867,0.17701628804206848
1725630286956827100,2.9108271484375,-0.6638732552528381,0.5490957498550415,0.22235378623008728
1725630286966781200,2.92078125,-0.6399282217025757,0.5260040163993835,0.3509058952331543
1725630286976734200,2.930734130859375,-0.5997686386108398,0.5151410102844238,0.4447992444038391
1725630286986687200,2.940687255859375,-0.5959142446517944,0.4874238967895508,0.556364119052887
1725630286996640300,2.95064013671875,-0.5687656998634338,0.4736895263195038,0.729233980178833
1725630287006594300,2.96059423828125,-0.6035865545272827,0.42292967438697815,0.7406451106071472
1725630287016547300,2.97054736328125,-0.6305176615715027,0.4194316267967224,0.6971691846847534
1725630287026499600,2.98049951171875,-0.6486666202545166,0.4855230450630188,0.8128678202629089
1725630287036452600,2.99045263671875,-0.6611948013305664,0.41055798530578613,0.8415135741233826
1725630287046406400,3.000406494140625,-0.6893260478973389,0.2212468981742859,0.7440251111984253
1725630287056359400,3.010359375,-0.6089935898780823,0.24372796714305878,0.8235905766487122
1725630287066312400,3.0203125,-0.5948148965835571,0.21350854635238647,0.884132981300354
1725630287076265500,3.030265380859375,-0.5799501538276672,0.07339136302471161,0.7869389057159424
1725630287086219500,3.040219482421875,-0.5376759171485901,-0.03227541223168373,0.6897420883178711
1725630287096172500,3.050172607421875,-0.4591931104660034,-0.019264807924628258,0.6992381811141968
1725630287106125600,3.06012548828125,-0.37718185782432556,-0.008679539896547794,0.6476045846939087
1725630287116079600,3.07007958984375,-0.32092905044555664,-0.016852546483278275,0.573977530002594
1725630287126032600,3.08003271484375,-0.20598940551280975,-0.020353270694613457,0.4213142395019531
1725630287135985700,3.089985595703125,-0.135898157954216,-0.006143826525658369,0.38032159209251404
1725630287145938700,3.099938720703125,-0.052682362496852875,0.04877854138612747,0.3691677451133728
1725630287155892700,3.109892822265625,0.018145378679037094,0.1192091777920723,0.32687535881996155
1725630287165845800,3.119845703125,0.07458016276359558,0.08717188239097595,0.264447957277298
1725630287175798500,3.129798583984375,0.15026125311851501,0.05199567228555679,0.22666433453559875
1725630287185751600,3.13975146484375,0.20280195772647858,0.044065311551094055,0.24984581768512726
1725630287195705600,3.14970556640625,0.24133257567882538,0.023411700502038002,0.30378058552742004
1725630287205658600,3.15965869140625,0.2911408841609955,0.0672321543097496,0.3859289884567261
1725630287215611600,3.169611572265625,0.3365788757801056,-0.048533834517002106,0.33077481389045715
1725630287225564700,3.179564697265625,0.40080526471138,-0.18164953589439392,0.2646937966346741
1725630287235518700,3.189518798828125,0.3869263529777527,-0.36100366711616516,0.1820051670074463
1725630287245471700,3.1994716796875,0.4050675332546234,-0.4559144675731659,0.03545674681663513
1725630287255424500,3.209424560546875,0.4091950058937073,-0.5408623814582825,-0.06004466488957405
1725630287265378800,3.21937890625,0.39726510643959045,-0.6215828061103821,-0.11326926946640015
1725630287275331800,3.229331787109375,0.3977123200893402,-0.6276651620864868,-0.11230040341615677
1725630287285284600,3.23928466796875,0.40541577339172363,-0.6118004322052002,-0.10829607397317886
1725630287295237600,3.249237548828125,0.4331017732620239,-0.6151430010795593,-0.16143789887428284
1725630287305191400,3.25919140625,0.48117396235466003,-0.6249775290489197,-0.23177891969680786
1725630287315144400,3.26914453125,0.5628057718276978,-0.6274426579475403,-0.27027153968811035
1725630287325097500,3.279097412109375,0.6392787098884583,-0.6270658373832703,-0.26127591729164124
1725630287335050500,3.289050537109375,0.7066038250923157,-0.5683124661445618,-0.21401217579841614
1725630287345004500,3.299004638671875,0.7623187303543091,-0.48590415716171265,-0.17861078679561615
1725630287354957600,3.30895751953125,0.8386018872261047,-0.4666135013103485,-0.23814710974693298
1725630287364910600,3.31891064453125,0.9122987389564514,-0.5211790204048157,-0.3463449776172638
1725630287374863600,3.328863525390625,0.9893195629119873,-0.5499764680862427,-0.41568058729171753
1725630287384817700,3.338817626953125,1.0107721090316772,-0.5553408861160278,-0.41465580463409424
1725630287394770700,3.348770751953125,1.018810510635376,-0.4723220765590668,-0.33429771661758423
1725630287404723700,3.3587236328125,0.9916883111000061,-0.4020484387874603,-0.2677469253540039
1725630287414677500,3.368677490234375,0.9236929416656494,-0.31663867831230164,-0.21447642147541046
1725630287424630500,3.378630615234375,0.8710688948631287,-0.24265019595623016,-0.2435552179813385
1725630287434583600,3.38858349609375,0.8267239332199097,-0.24401269853115082,-0.3746209740638733
1725630287444536600,3.39853662109375,0.8388721942901611,-0.24102595448493958,-0.4297449290752411
1725630287454490600,3.40849072265625,0.8365644812583923,-0.2813092768192291,-0.4887244701385498
1725630287464443600,3.418443603515625,0.8267989158630371,-0.24237920343875885,-0.4836823046207428
1725630287474396700,3.428396728515625,0.8158044815063477,-0.1567668318748474,-0.43494078516960144
1725630287484349700,3.438349609375,0.8046929836273193,-0.05321007966995239,-0.41775116324424744
1725630287494303700,3.4483037109375,0.8295532464981079,-0.03845018893480301,-0.49232277274131775
1725630287504256800,3.4582568359375,0.9711713790893555,-0.10160918533802032,-0.6924372315406799
1725630287514209500,3.46820947265625,1.0460429191589355,-0.2193879783153534,-0.8305709958076477
1725630287524162600,3.47816259765625,1.0509170293807983,-0.19271428883075714,-0.8614367842674255
1725630287534116600,3.48811669921875,1.0212621688842773,-0.04416440799832344,-0.7310859560966492
1725630287544069600,3.498069580078125,1.0372155904769897,0.01704009436070919,-0.694715142250061
1725630287554022700,3.508022705078125,1.0510821342468262,-0.011292899027466774,-0.728614091873169
1725630287563975700,3.5179755859375,1.0553323030471802,-0.05350054055452347,-0.8071781396865845
1725630287573929500,3.527929443359375,1.0092530250549316,-0.08252304047346115,-0.877793550491333
1725630287583882500,3.537882568359375,0.9314959049224854,-0.08295340836048126,-0.8709734678268433
1725630287593835500,3.54783544921875,0.8340397477149963,-0.0794464498758316,-0.8528243899345398
1725630287603789600,3.55778955078125,0.739022970199585,-0.07679180800914764,-0.7959941029548645
1725630287613742600,3.56774267578125,0.6408877372741699,-0.0637773871421814,-0.7008020877838135
1725630287623695600,3.577695556640625,0.5645463466644287,-0.0706736370921135,-0.6298389434814453
1725630287633648600,3.587648681640625,0.5092872381210327,-0.09424261003732681,-0.5460813641548157
1725630287643602700,3.597602783203125,0.45812681317329407,-0.16209463775157928,-0.4725770056247711
1725630287653555700,3.6075556640625,0.4096100628376007,-0.2019944041967392,-0.4047614336013794
1725630287663508700,3.6175087890625,0.3551689088344574,-0.2002609521150589,-0.33136364817619324
1725630287673461800,3.627461669921875,0.28889337182044983,-0.1705702692270279,-0.2750188410282135
1725630287683415600,3.63741552734375,0.26048675179481506,-0.18735723197460175,-0.24546122550964355
1725630287693368600,3.64736865234375,0.23852989077568054,-0.23910562694072723,-0.22752276062965393
1725630287703321600,3.657321533203125,0.19669455289840698,-0.2078550159931183,-0.24930500984191895
1725630287713274600,3.667274658203125,0.21360254287719727,-0.14907263219356537,-0.23330460488796234
1725630287723228700,3.677228759765625,0.1908024251461029,-0.03602011501789093,-0.22347861528396606
1725630287733181700,3.687181640625,0.14943870902061462,-0.1198875829577446,-0.15390849113464355
1725630287743134500,3.697134521484375,0.11304101347923279,0.1321350783109665,-0.07273586839437485
1725630287753087500,3.70708740234375,0.06046001985669136,0.017046360298991203,-0.02162838913500309
1725630287763041800,3.717041748046875,-0.020491020753979683,0.15351472795009613,-0.021046753972768784
1725630287772994600,3.72699462890625,-0.11516745388507843,0.058846089988946915,-0.025437187403440475
1725630287782947600,3.736947509765625,-0.2340749353170395,0.26318269968032837,0.041533857583999634
1725630287792901600,3.746901611328125,-0.25672751665115356,0.16826356947422028,0.10442009568214417
1725630287802854700,3.756854736328125,-0.3085976541042328,0.05542117729783058,0.17707592248916626
1725630287812807700,3.7668076171875,-0.36612361669540405,-0.005116052459925413,0.2384045124053955
1725630287822760700,3.7767607421875,-0.3934641480445862,-0.07114806771278381,0.2550599277019501
1725630287832714500,3.786714599609375,-0.44767114520072937,-0.16290287673473358,0.25825124979019165
1725630287842667500,3.79666748046875,-0.4763110280036926,-0.17397816479206085,0.2714117765426636
1725630287852620500,3.80662060546875,-0.4830726087093353,-0.1575797200202942,0.27385953068733215
1725630287862573600,3.816573486328125,-0.4760226905345917,-0.11831939965486526,0.27310532331466675
1725630287872527600,3.826527587890625,-0.4472520053386688,-0.08009451627731323,0.2853555977344513
1725630287882480600,3.836480712890625,-0.45491260290145874,-0.07576075196266174,0.2463379055261612
1725630287892433700,3.84643359375,-0.44515904784202576,-0.035483457148075104,0.19469009339809418
1725630287902386700,3.85638671875,-0.3246336877346039,-0.005588142666965723,0.0550089031457901
1725630287912340700,3.8663408203125,-0.26841115951538086,0.011082271113991737,-0.065070740878582
1725630287922293800,3.876293701171875,-0.2533499300479889,0.07240501791238785,-0.02974763885140419
1725630287932246800,3.886246826171875,-0.26359081268310547,0.1548863649368286,0.08244149386882782
1725630287942199800,3.89619970703125,-0.28801068663597107,0.24214696884155273,0.10832022875547409
1725630287952153600,3.906153564453125,-0.30691200494766235,0.33251920342445374,0.112078458070755
1725630287962106600,3.916106689453125,-0.29519328474998474,0.3813469409942627,0.15688960254192352
1725630287972059600,3.9260595703125,-0.28611791133880615,0.4050833284854889,0.15700660645961761
1725630287982013700,3.936013671875,-0.31117239594459534,0.4194878339767456,0.15705934166908264
1725630287991966700,3.945966796875,-0.30096280574798584,0.3953675925731659,0.19745545089244843
1725630288001919500,3.95591943359375,-0.2833481431007385,0.3285853862762451,0.14334987103939056
1725630288011872500,3.96587255859375,-0.26600950956344604,0.252582848072052,0.006338841747492552
1725630288021826600,3.97582666015625,-0.26916614174842834,0.19237595796585083,-0.1113228052854538
1725630288031779300,3.985779296875,-0.2757723331451416,0.17836441099643707,-0.1277022510766983
1725630288041732400,3.995732421875,-0.28457221388816833,0.15348729491233826,-0.06580106914043427
1725630288051685400,4.005685302734375,-0.2505943775177002,0.07652787864208221,0.009620051831007004
1725630288061639400,4.015639404296875,-0.21674641966819763,-0.004024481866508722,0.02584695816040039
1725630288071592400,4.025592529296875,-0.18530112504959106,-0.09171154350042343,-0.019119342789053917
1725630288081545500,4.03554541015625,-0.16454258561134338,-0.1608850210905075,-0.05423711612820625
1725630288091498500,4.04549853515625,-0.14269176125526428,-0.187801331281662,-0.05442388728260994
1725630288101452300,4.055452392578125,-0.13645730912685394,-0.1926450878381729,-0.00017209822544828057
1725630288111405300,4.0654052734375,-0.13583222031593323,-0.21456772089004517,0.045931167900562286
1725630288121358300,4.0753583984375,-0.158209428191185,-0.1848662942647934,0.0886024683713913
1725630288131311400,4.085311279296875,-0.2171696424484253,-0.19816400110721588,0.10471082478761673
1725630288141265400,4.095265380859375,-0.2753690481185913,-0.20514015853405,0.14962317049503326
1725630288151218400,4.105218505859375,-0.36212730407714844,-0.10710124671459198,0.16529865562915802
1725630288161171500,4.11517138671875,-0.3988288640975952,-0.1217009574174881,0.20311953127384186
1725630288171125500,4.12512548828125,-0.46081429719924927,-0.02214696817100048,0.1935068815946579
1725630288181078500,4.13507861328125,-0.4518013596534729,-0.11503855884075165,0.13213993608951569
1725630288191031300,4.14503125,-0.4305677115917206,-0.18550854921340942,0.04523773863911629
1725630288200984300,4.154984375,-0.4235321581363678,-0.2986332178115845,0.0050556957721710205
1725630288210938000,4.164938232421875,-0.4227263033390045,-0.3118630051612854,0.04527315869927406
1725630288220891100,4.17489111328125,-0.46611690521240234,-0.21106503903865814,0.08727333694696426
1725630288230844200,4.18484423828125,-0.4680292308330536,-0.21413768827915192,0.08097018301486969
1725630288240797200,4.194797119140625,-0.4810635447502136,-0.20880523324012756,0.053497545421123505
1725630288250751200,4.204751220703125,-0.5172064304351807,-0.2804105281829834,-0.01396965142339468
1725630288260704300,4.214704345703125,-0.5512712001800537,-0.33297544717788696,0.0061310892924666405
1725630288270657300,4.2246572265625,-0.5541831254959106,-0.2953271269798279,0.10995873063802719
1725630288280610300,4.2346103515625,-0.5609009265899658,-0.15398170053958893,0.2839486598968506
1725630288290564400,4.244564453125,-0.5678723454475403,-0.038820575922727585,0.44129639863967896
1725630288300517400,4.254517333984375,-0.5775893926620483,-0.024000350385904312,0.4730548560619354
1725630288310470400,4.264470458984375,-0.5807600617408752,0.02847922034561634,0.4221802353858948
1725630288320423400,4.27442333984375,-0.5527254939079285,-0.006686755921691656,0.3874158561229706
1725630288330377200,4.284377197265625,-0.5600211024284363,-0.04489246383309364,0.35562190413475037
1725630288340330200,4.294330322265625,-0.542485237121582,-0.05439755320549011,0.37335696816444397
1725630288350283300,4.304283203125,-0.6057161092758179,0.06787524372339249,0.4137699604034424
1725630288360236300,4.314236328125,-0.6578935384750366,0.21283084154129028,0.4505833685398102
1725630288370190300,4.3241904296875,-0.6148804426193237,0.2695389688014984,0.4368784725666046
1725630288380143400,4.334143310546875,-0.6152974963188171,0.2842654287815094,0.30276036262512207
1725630288390096400,4.344096435546875,-0.5929849743843079,0.19522219896316528,0.22011274099349976
1725630288400050400,4.354050537109375,-0.6186813116073608,0.4129457473754883,0.24894918501377106
1725630288410003500,4.36400341796875,-0.5793237686157227,0.41673675179481506,0.3119039237499237
1725630288419956200,4.373956298828125,-0.6102918386459351,0.5524654984474182,0.3825541138648987
1725630288429909200,4.3839091796875,-0.6366129517555237,0.5423427224159241,0.4693748354911804
1725630288439863600,4.393863525390625,-0.6972456574440002,0.47755175828933716,0.6059694290161133
1725630288449816300,4.40381640625,-0.7181194424629211,0.39442092180252075,0.6474462747573853
1725630288459769300,4.413769287109375,-0.751613199710846,0.35994628071784973,0.7444079518318176
1725630288469722400,4.423722412109375,-0.7584457993507385,0.3949229419231415,0.8137111663818359
1725630288479676200,4.43367626953125,-0.7432612776756287,0.389209121465683,0.8101065754890442
1725630288489629200,4.443629150390625,-0.6913292407989502,0.3417551517486572,0.7434004545211792
1725630288499582200,4.453582275390625,-0.6011545658111572,0.3723255693912506,0.73093581199646
1725630288509535200,4.46353515625,-0.4822618365287781,0.37666037678718567,0.6784801483154297
1725630288519489300,4.4734892578125,-0.4071846604347229,0.3446395993232727,0.5746386647224426
1725630288529442300,4.4834423828125,-0.37676167488098145,0.3296131491661072,0.4555991291999817
1725630288539395300,4.493395263671875,-0.3189348578453064,0.367022305727005,0.3687952756881714
1725630288549348400,4.503348388671875,-0.2723018527030945,0.4705507457256317,0.33657416701316833
1725630288559302400,4.513302490234375,-0.26181110739707947,0.41593196988105774,0.3204159736633301
1725630288569255400,4.52325537109375,-0.21165795624256134,0.37968823313713074,0.2905193567276001
1725630288579208400,4.53320849609375,-0.17132411897182465,0.423296183347702,0.29483580589294434
1725630288589161500,4.543161376953125,-0.16621336340904236,0.345127135515213,0.2385394424200058
1725630288599115300,4.553115234375,-0.15172922611236572,0.2723999321460724,0.14846041798591614
1725630288609068300,4.563068359375,-0.12740585207939148,0.23797792196273804,0.1944449245929718
1725630288619021300,4.573021240234375,-0.12928526103496552,0.3200767934322357,0.28396308422088623
1725630288628975400,4.582975341796875,-0.1542753130197525,0.23443415760993958,0.23894698917865753
1725630288638928400,4.592928466796875,-0.15761280059814453,0.10609589517116547,0.2023322433233261
1725630288648881400,4.60288134765625,-0.13448525965213776,0.06948000937700272,0.2378927618265152
1725630288658834200,4.612834228515625,-0.11217808723449707,0.07917764782905579,0.20479074120521545
1725630288668788500,4.62278857421875,-0.049554772675037384,-0.015801599249243736,0.16686074435710907
1725630288678741200,4.6327412109375,0.034869562834501266,-0.07797469198703766,0.207999125123024
1725630288688694300,4.6426943359375,0.12044693529605865,-0.1780165135860443,0.19083838164806366
1725630288698647300,4.652647216796875,0.23417268693447113,-0.32994455099105835,0.07584602385759354
1725630288708601300,4.662601318359375,0.32427477836608887,-0.3964478373527527,0.02369251474738121
1725630288718554400,4.672554443359375,0.3908521831035614,-0.3317101299762726,-0.010429236106574535
1725630288728507400,4.68250732421875,0.4085788428783417,-0.4084015488624573,-0.12335469573736191
1725630288738460400,4.69246044921875,0.44174692034721375,-0.490579754114151,-0.18151867389678955
1725630288748414200,4.702414306640625,0.42469629645347595,-0.5049721002578735,-0.22921620309352875
1725630288758367200,4.7123671875,0.3601452708244324,-0.5095617771148682,-0.3327055871486664
1725630288768320300,4.7223203125,0.3362482190132141,-0.5551914572715759,-0.42718183994293213
1725630288778273300,4.732273193359375,0.3356924057006836,-0.5782490968704224,-0.4445808231830597
1725630288788227300,4.742227294921875,0.34703007340431213,-0.48666733503341675,-0.38442954421043396
1725630288798180400,4.752180419921875,0.3730507791042328,-0.5009227395057678,-0.4327155649662018
1725630288808133400,4.76213330078125,0.4123099148273468,-0.5184704065322876,-0.455046683549881
1725630288818086400,4.77208642578125,0.4738158881664276,-0.5097475051879883,-0.4621394872665405
1725630288828040400,4.78204052734375,0.5209580063819885,-0.5467332601547241,-0.49383217096328735
1725630288837993500,4.791993408203125,0.6223118305206299,-0.6263343691825867,-0.5175771713256836
1725630288847946500,4.801946533203125,0.7759507894515991,-0.6420959234237671,-0.40691784024238586
1725630288857899500,4.8118994140625,0.9054509997367859,-0.610492467880249,-0.24226737022399902
1725630288867853300,4.821853271484375,0.9752461314201355,-0.6168516874313354,-0.1447618007659912
1725630288877806300,4.831806396484375,0.9898868203163147,-0.6205015182495117,-0.1471719592809677
1725630288887759000,4.841759033203125,1.0095289945602417,-0.6197660565376282,-0.1597677320241928
1725630288897712000,4.851712158203125,1.059032917022705,-0.6073740720748901,-0.14905916154384613
1725630288907666400,4.86166650390625,1.0804693698883057,-0.628777265548706,-0.17083147168159485
1725630288917619200,4.871619140625,1.0952301025390625,-0.5949580669403076,-0.22148558497428894
1725630288927572200,4.881572265625,1.0610525608062744,-0.5316427946090698,-0.32356756925582886
1725630288937526300,4.8915263671875,1.0106556415557861,-0.4541948437690735,-0.3587162494659424
1725630288947479300,4.901479248046875,0.9432612657546997,-0.411005437374115,-0.33695316314697266
1725630288957432300,4.911432373046875,0.8810039758682251,-0.30514079332351685,-0.2716479003429413
1725630288967385300,4.92138525390625,0.8431571125984192,-0.2432672679424286,-0.27008920907974243
1725630288977339400,4.93133935546875,0.8337966203689575,-0.2047656774520874,-0.25299328565597534
1725630288987292400,4.94129248046875,0.833876371383667,-0.2168123871088028,-0.2729995846748352
1725630288997245200,4.9512451171875,0.8673408627510071,-0.2140115350484848,-0.3300860524177551
1725630289007198200,4.9611982421875,0.8947345018386841,-0.1849813610315323,-0.3993452489376068
1725630289017152300,4.97115234375,0.8868408799171448,-0.16577331721782684,-0.46139076352119446
1725630289027105500,4.98110546875,0.8401766419410706,-0.11417487263679504,-0.42809298634529114
1725630289037058300,4.991058349609375,0.7643606662750244,-0.005489665549248457,-0.3512490689754486
1725630289047011300,5.00101123046875,0.6802484393119812,0.09572368115186691,-0.2740214467048645
1725630289056965400,5.01096533203125,0.6271684169769287,0.19388647377490997,-0.26031309366226196
1725630289066918400,5.02091845703125,0.5702418684959412,0.19332875311374664,-0.273957222700119
1725630289076871400,5.030871337890625,0.5263332724571228,0.26446017622947693,-0.2675611078739166
1725630289086824400,5.040824462890625,0.45628318190574646,0.25760796666145325,-0.26632022857666016
1725630289096778500,5.050778564453125,0.38626548647880554,0.3922842741012573,-0.22655735909938812
1725630289106731500,5.0607314453125,0.31874382495880127,0.4476463496685028,-0.21671712398529053
1725630289116684500,5.0706845703125,0.2567656636238098,0.38642799854278564,-0.32597967982292175
1725630289126637600,5.080637451171875,0.2376227080821991,0.34891951084136963,-0.3891328275203705
1725630289136591400,5.09059130859375,0.17604881525039673,0.26338306069374084,-0.43391546607017517
1725630289146544400,5.10054443359375,0.13513141870498657,0.3374623954296112,-0.3441846966743469
1725630289156497400,5.110497314453125,0.08914873003959656,0.32691895961761475,-0.23987825214862823
1725630289166450400,5.120450439453125,0.10521094501018524,0.30771133303642273,-0.22012567520141602
1725630289176404500,5.130404541015625,0.07904592156410217,0.1387774497270584,-0.29829317331314087
1725630289186357500,5.140357421875,0.06349979341030121,0.14996150135993958,-0.24879686534404755
1725630289196310500,5.150310546875,0.03179512917995453,0.2241704761981964,-0.1897822767496109
1725630289206264600,5.1602646484375,0.011290968395769596,0.08096926659345627,-0.1575033813714981
1725630289216217600,5.170217529296875,-0.027189046144485474,0.10628687590360641,-0.0837029293179512
1725630289226170600,5.180170654296875,-0.06438582390546799,0.2512983977794647,0.06306114047765732
1725630289236123600,5.19012353515625,-0.043369490653276443,0.21501575410366058,0.1406792402267456
1725630289246077400,5.200077392578125,-0.03784215450286865,0.2742411196231842,0.14214549958705902
1725630289256030500,5.210030517578125,-0.03330119699239731,0.28015998005867004,0.1421484351158142
1725630289265983200,5.219983154296875,-0.03255068510770798,0.28243929147720337,0.2020418643951416
1725630289275936300,5.229936279296875,-0.04419269412755966,0.22426147758960724,0.20507226884365082
1725630289285890300,5.239890380859375,-0.043412674218416214,0.17817148566246033,0.1883530616760254
1725630289295843300,5.24984326171875,-0.04822021350264549,0.15192389488220215,0.1781693994998932
1725630289305796400,5.25979638671875,-0.10262186825275421,0.11988939344882965,0.16479699313640594
1725630289315749400,5.269749267578125,-0.15066342055797577,0.19148102402687073,0.13330671191215515
1725630289325703400,5.279703369140625,-0.19924458861351013,0.1856684386730194,0.12743501365184784
1725630289335656400,5.289656494140625,-0.23796029388904572,0.1352505385875702,0.06825850903987885
1725630289345609500,5.299609375,-0.2781076431274414,0.11794758588075638,0.05594624578952789
1725630289355562500,5.3095625,-0.30789509415626526,0.11876890808343887,0.05058343708515167
1725630289365516500,5.3195166015625,-0.3097424805164337,0.10340261459350586,0.029684076085686684
1725630289375469600,5.329469482421875,-0.3127502501010895,0.06696763634681702,0.011653411202132702
1725630289385422600,5.339422607421875,-0.31089746952056885,0.04734854772686958,0.015853917226195335
1725630289395375600,5.349375732421875,-0.3385746479034424,0.04572322219610214,0.028441347181797028
1725630289405329400,5.359329345703125,-0.3626183271408081,0.062228165566921234,0.0943896621465683
1725630289415282400,5.369282470703125,-0.3861154019832611,0.05770878121256828,0.2027890980243683
1725630289425235500,5.3792353515625,-0.43153056502342224,0.08521860837936401,0.26448559761047363
1725630289435188500,5.3891884765625,-0.4410918354988098,0.13042016327381134,0.280191034078598
1725630289445142500,5.399142578125,-0.39736297726631165,0.115287646651268,0.26340705156326294
1725630289455095600,5.409095458984375,-0.2979591488838196,0.018100379034876823,0.1470026969909668
1725630289465048600,5.419048583984375,-0.19914701581001282,-0.07380510121583939,-0.028408894315361977
1725630289475001300,5.42900146484375,-0.13152961432933807,-0.050033990293741226,-0.12258200347423553
1725630289484955600,5.43895556640625,-0.10633567720651627,0.009777827188372612,-0.1444561630487442
1725630289494908400,5.448908447265625,-0.09127657115459442,0.0352642796933651,-0.12416739761829376
1725630289504861400,5.458861328125,-0.04007245972752571,-0.03768497332930565,-0.13041675090789795
1725630289514814500,5.468814453125,0.00028668157756328583,-0.15315483510494232,-0.18053877353668213
1725630289524768300,5.478768310546875,0.0060743545182049274,-0.16042248904705048,-0.18728721141815186
1725630289534721300,5.48872119140625,-0.046540919691324234,-0.15108171105384827,-0.10761289298534393
1725630289544674300,5.49867431640625,-0.11726484447717667,-0.17561283707618713,-0.051464393734931946
1725630289554627300,5.50862744140625,-0.2065371870994568,-0.13686038553714752,-0.05490333214402199
1725630289564581400,5.518581298828125,-0.2625593841075897,-0.2531237304210663,-0.06102512776851654
1725630289574534400,5.528534423828125,-0.3658926784992218,-0.2240268588066101,-0.04929976165294647
1725630289584487400,5.5384873046875,-0.44160470366477966,-0.2735671103000641,-0.06190214306116104
1725630289594441500,5.54844140625,-0.4925940930843353,-0.2535768747329712,-0.017204182222485542
1725630289604394500,5.55839453125,-0.5208858847618103,-0.2301851212978363,0.0824757069349289
1725630289614347500,5.568347412109375,-0.5505319237709045,-0.1986178755760193,0.15871562063694
1725630289624300500,5.578300537109375,-0.5856556296348572,-0.20476983487606049,0.1458115130662918
1725630289634254300,5.58825439453125,-0.605405330657959,-0.2589350938796997,0.08347278833389282
1725630289644207400,5.598207275390625,-0.6092219352722168,-0.2923830449581146,0.04951748251914978
1725630289654160400,5.608160400390625,-0.6057025790214539,-0.2480376809835434,0.07030878216028214
1725630289664113400,5.618113525390625,-0.5917743444442749,-0.16722169518470764,0.11041319370269775
1725630289674067500,5.6280673828125,-0.5577961206436157,-0.10613862425088882,0.16067823767662048
1725630289684020500,5.6380205078125,-0.5395660996437073,0.027771443128585815,0.23382548987865448
1725630289693973500,5.647973388671875,-0.5330658555030823,0.07332507520914078,0.248376727104187
1725630289703926500,5.657926513671875,-0.5452892184257507,0.07618436217308044,0.26071250438690186
1725630289713880600,5.667880615234375,-0.5913533568382263,0.20734557509422302,0.3965475857257843
1725630289723833600,5.67783349609375,-0.6519514918327332,0.28529196977615356,0.46472907066345215
1725630289733786400,5.687786376953125,-0.684252917766571,0.24812248349189758,0.45877504348754883
1725630289743739400,5.697739501953125,-0.6883293986320496,0.3444577753543854,0.5546284317970276
1725630289753693400,5.707693359375,-0.7130578756332397,0.5418930649757385,0.6168598532676697
1725630289763646500,5.717646484375,-0.720805287361145,0.6015816330909729,0.6304807662963867
1725630289773599500,5.727599609375,-0.7443793416023254,0.6657606363296509,0.6136211156845093
1725630289783552500,5.737552490234375,-0.7621071338653564,0.6405687928199768,0.5683549046516418
1725630289793506300,5.74750634765625,-0.7942858338356018,0.49537354707717896,0.4683215022087097
1725630289803459300,5.757459228515625,-0.846915602684021,0.6158066391944885,0.4488505721092224
1725630289813412400,5.767412353515625,-0.8536816239356995,0.6702203154563904,0.48949387669563293
1725630289823365400,5.777365478515625,-0.8305291533470154,0.5942970514297485,0.44402652978897095
1725630289833319400,5.7873193359375,-0.7820298075675964,0.49812766909599304,0.39392685890197754
1725630289843272400,5.7972724609375,-0.7414163947105408,0.412880003452301,0.4070747494697571
1725630289853225500,5.8072255859375,-0.6959706544876099,0.38337668776512146,0.46928539872169495
1725630289863178500,5.817178466796875,-0.6554954648017883,0.36878499388694763,0.5215485095977783
1725630289873132500,5.827132568359375,-0.6022966504096985,0.3086113929748535,0.5304575562477112
1725630289883085600,5.83708544921875,-0.5155045986175537,0.27683255076408386,0.48506224155426025
1725630289893038600,5.84703857421875,-0.43833762407302856,0.279206246137619,0.45590513944625854
1725630289902991600,5.85699169921875,-0.37735244631767273,0.2988702952861786,0.42685720324516296
1725630289912945400,5.8669453125,-0.3206675946712494,0.1593925505876541,0.3808676302433014
1725630289922898400,5.8768984375,-0.28872382640838623,0.22477206587791443,0.35646483302116394
1725630289932851500,5.8868515625,-0.23670059442520142,0.17283377051353455,0.2895888686180115
1725630289942804200,5.89680419921875,-0.18068554997444153,0.13135689496994019,0.23692922294139862
1725630289952758500,5.906758544921875,-0.11635130643844604,0.13086527585983276,0.24292905628681183
1725630289962711300,5.916711181640625,-0.06815101951360703,0.13309034705162048,0.26130780577659607
1725630289972664300,5.926664306640625,-0.03136690706014633,0.08575958758592606,0.23303088545799255
1725630289982617300,5.936617431640625,-0.001234820345416665,0.03121236525475979,0.19718246161937714
1725630289992571400,5.9465712890625,0.0512012243270874,-0.028060011565685272,0.1921008825302124
1725630290002524400,5.9565244140625,0.08088979870080948,-0.12091026455163956,0.17620056867599487
1725630290012477400,5.9664775390625,0.11210178583860397,-0.22592589259147644,0.176881805062294
1725630290022430500,5.976430419921875,0.12158581614494324,-0.20795977115631104,0.25008511543273926
1725630290032385000,5.986385009765625,0.12553076446056366,-0.227033331990242,0.20591606199741364
1725630290042338000,5.996338134765625,0.17442873120307922,-0.2635801136493683,0.13396452367305756
1725630290052291000,6.006291015625,0.22501468658447266,-0.21826590597629547,0.12386208772659302
1725630290062245000,6.0162451171875,0.26777034997940063,-0.2599588930606842,0.10031318664550781
1725630290072198100,6.0261982421875,0.3291093409061432,-0.22025330364704132,0.08742695301771164
1725630290082151200,6.036151123046875,0.3879249095916748,-0.22238962352275848,0.058138761669397354
1725630290092104000,6.04610400390625,0.4468417465686798,-0.28212887048721313,-0.015468079596757889
1725630290102058200,6.056058349609375,0.5003378391265869,-0.37875890731811523,-0.09980110079050064
1725630290112011300,6.06601123046875,0.551139771938324,-0.4203127324581146,-0.16026976704597473
1725630290121964000,6.075964111328125,0.580614447593689,-0.41234341263771057,-0.1340632289648056
1725630290131917000,6.0859169921875,0.5677721500396729,-0.3790733516216278,-0.1303475797176361
1725630290141870800,6.095870849609375,0.5406100749969482,-0.39744552969932556,-0.19977505505084991
1725630290151824000,6.105823974609375,0.5256777405738831,-0.4941505193710327,-0.3131159842014313
1725630290161777000,6.11577685546875,0.5554010272026062,-0.5737435221672058,-0.3725217282772064
1725630290171730000,6.12572998046875,0.5717339515686035,-0.5945135354995728,-0.38843652606010437
1725630290181684000,6.13568408203125,0.5734314918518066,-0.5755370855331421,-0.40014323592185974
1725630290191637000,6.145636962890625,0.5585971474647522,-0.458626389503479,-0.3321114778518677
1725630290201590000,6.155590087890625,0.5392522811889648,-0.35402223467826843,-0.3418950140476227
1725630290211543000,6.16554296875,0.5260464549064636,-0.2605351507663727,-0.3886433243751526
1725630290221497000,6.1754970703125,0.5632750391960144,-0.1644286960363388,-0.4189070463180542
1725630290231450000,6.1854501953125,0.5953437685966492,-0.10161405056715012,-0.42392632365226746
1725630290241403100,6.195403076171875,0.6293783783912659,-0.06863963603973389,-0.4421605169773102
1725630290251356200,6.205356201171875,0.6829633116722107,-0.05295867472887039,-0.46037042140960693
1725630290261310200,6.215310302734375,0.7333850860595703,-0.033247996121644974,-0.43978768587112427
1725630290271263200,6.22526318359375,0.762848973274231,-0.06329138576984406,-0.44994205236434937
1725630290281216300,6.23521630859375,0.7810497879981995,-0.06505253165960312,-0.4757542014122009
1725630290291169300,6.245169189453125,0.8145430088043213,-0.004211551044136286,-0.4361415505409241
1725630290301123000,6.255123046875,0.8122116923332214,0.029558692127466202,-0.4208030104637146
1725630290311076000,6.265076171875,0.8100225329399109,0.038599591702222824,-0.4498160183429718
1725630290321029000,6.275029052734375,0.8251743912696838,0.032573774456977844,-0.4822535812854767
1725630290330982000,6.28498193359375,0.8147835731506348,0.006312874611467123,-0.46941235661506653
1725630290340936200,6.294936279296875,0.7517049908638,0.006107724737375975,-0.3846234679222107
1725630290350889000,6.304888916015625,0.6693320870399475,0.10638425499200821,-0.2710689306259155
1725630290360842000,6.314842041015625,0.6003592014312744,0.16503769159317017,-0.22968252003192902
1725630290370795000,6.324794921875,0.5693323612213135,0.15596508979797363,-0.3059599995613098
1725630290380749000,6.3347490234375,0.5822800993919373,0.12277024984359741,-0.41851407289505005
1725630290390702000,6.3447021484375,0.6491907238960266,-0.006988546345382929,-0.5270248651504517
1725630290400655000,6.354655029296875,0.7098971605300903,-0.14370976388454437,-0.6541056036949158
1725630290410608000,6.364608154296875,0.6944547891616821,-0.2289663404226303,-0.7238599061965942
1725630290420562000,6.37456201171875,0.6099082827568054,-0.18261229991912842,-0.6161472797393799
1725630290430515000,6.384514892578125,0.43805426359176636,0.04373322054743767,-0.4022914469242096
1725630290440468000,6.394468017578125,0.3012155592441559,0.11336769908666611,-0.21397541463375092
1725630290450421000,6.4044208984375,0.19130158424377441,0.2404569387435913,-0.09635238349437714
1725630290460375000,6.414375,0.13263903558254242,0.23516686260700226,-0.0836663693189621
1725630290470328000,6.424328125,0.12282288074493408,0.031994037330150604,-0.1572367250919342
1725630290480281000,6.434281005859375,0.07216115295886993,0.09590096026659012,-0.19397005438804626
1725630290490234000,6.444234130859375,0.04211510345339775,0.054485075175762177,-0.2128654569387436
1725630290500188200,6.454188232421875,0.012461543083190918,0.17072996497154236,-0.19316616654396057
1725630290510141200,6.46414111328125,0.03286562114953995,0.11482514441013336,-0.08295417577028275
1725630290520094200,6.47409423828125,0.0019223876297473907,0.2372112274169922,-0.029985815286636353
1725630290530047200,6.484047119140625,0.0360337495803833,0.19449731707572937,0.01563173718750477
1725630290540001300,6.494001220703125,0.07417166978120804,0.11192041635513306,0.009856593795120716
1725630290549954000,6.5039541015625,0.06754892319440842,0.06765255331993103,-0.043365348130464554
1725630290559907000,6.513906982421875,0.042160991579294205,0.20681798458099365,0.024473514407873154
1725630290569860000,6.523860107421875,0.023989176377654076,0.17460092902183533,0.13821819424629211
1725630290579814000,6.53381396484375,0.04318461939692497,0.19549669325351715,0.13933168351650238
1725630290589767000,6.543766845703125,0.10148974508047104,0.050770677626132965,0.03177352994680405
1725630290599720000,6.553719970703125,0.14793431758880615,-0.0063019245862960815,-0.051888156682252884
1725630290609673000,6.5636728515625,0.10999812185764313,0.07281340658664703,0.02799735590815544
1725630290619627000,6.573626953125,0.049183763563632965,0.17516356706619263,0.13115905225276947
1725630290629580000,6.583580078125,-0.01661389134824276,0.1833684891462326,0.10994430631399155
1725630290639533000,6.593532958984375,-0.0723305195569992,0.11760430783033371,0.08724051713943481
1725630290649486000,6.603486083984375,-0.11670251190662384,0.10667841881513596,0.08589694648981094
1725630290659440000,6.613440185546875,-0.1714174449443817,0.200202077627182,0.1525336652994156
1725630290669393200,6.62339306640625,-0.220598042011261,0.352557510137558,0.2485233098268509
1725630290679346200,6.63334619140625,-0.23147433996200562,0.3705669343471527,0.3040288984775543
1725630290689299200,6.64329931640625,-0.23423416912555695,0.33746305108070374,0.26613959670066833
1725630290699253000,6.6532529296875,-0.23855887353420258,0.2977902889251709,0.23449942469596863
1725630290709206000,6.6632060546875,-0.2350165992975235,0.1826847493648529,0.1333131492137909
1725630290719159000,6.673158935546875,-0.22588525712490082,0.036783259361982346,0.05264008045196533
1725630290729112000,6.683112060546875,-0.19176483154296875,-0.0867898091673851,-0.015812214463949203
1725630290739066000,6.693066162109375,-0.1477835774421692,-0.12690560519695282,-0.12946395576000214
1725630290749019100,6.70301904296875,-0.09680667519569397,-0.14048106968402863,-0.3012932538986206
1725630290758972200,6.71297216796875,-0.059831906110048294,-0.10688961297273636,-0.3896791338920593
1725630290768925200,6.72292529296875,-0.031741414219141006,-0.06788815557956696,-0.34214890003204346
1725630290778879200,6.732879150390625,-0.009349524974822998,-0.11117422580718994,-0.2756038010120392
1725630290788832300,6.742832275390625,-0.0222442839294672,-0.1780398041009903,-0.20539462566375732
1725630290798785000,6.752784912109375,-0.056256137788295746,-0.1966913640499115,-0.13677695393562317
1725630290808738000,6.762738037109375,-0.10196397453546524,-0.21097363531589508,-0.09952066838741302
1725630290818692000,6.772692138671875,-0.15244071185588837,-0.18810737133026123,-0.07554230839014053
1725630290828644900,6.782644775390625,-0.24596133828163147,-0.13819894194602966,-0.039401616901159286
1725630290838598000,6.792597900390625,-0.3558754026889801,-0.0753440260887146,0.013313616625964642
1725630290848551000,6.802551025390625,-0.4462284743785858,-0.06338643282651901,-0.006626002490520477
1725630290858505000,6.8125048828125,-0.5047400593757629,-0.04366597160696983,-0.014017659239470959
1725630290868458000,6.8224580078125,-0.5439444184303284,0.023111457005143166,0.0453905425965786
1725630290878411000,6.832410888671875,-0.5871332883834839,0.02986948937177658,0.06636594235897064
1725630290888365000,6.842364990234375,-0.5901075005531311,0.11976955085992813,0.06730097532272339
1725630290898318000,6.852318115234375,-0.5833296179771423,0.19610722362995148,0.055324867367744446
1725630290908271000,6.86227099609375,-0.5724905729293823,0.1250213235616684,-0.018386371433734894
1725630290918224100,6.87222412109375,-0.5708707571029663,0.029772397130727768,-0.12023766338825226
1725630290928178200,6.88217822265625,-0.5593235492706299,0.06921993941068649,-0.08523467183113098
1725630290938131200,6.892131103515625,-0.5469463467597961,0.0714714378118515,-0.029959235340356827
1725630290948084200,6.902084228515625,-0.514319658279419,0.06217567250132561,-0.016583507880568504
1725630290958037200,6.912037353515625,-0.40952494740486145,-0.042070481926202774,-0.01656116358935833
1725630290967991000,6.921990966796875,-0.3608628809452057,-0.19544193148612976,-0.03365492820739746
1725630290977944000,6.931944091796875,-0.3597828149795532,-0.2610574960708618,-0.03567634895443916
1725630290987897000,6.94189697265625,-0.3822987675666809,-0.21887917816638947,0.03558717668056488
1725630290997850000,6.95185009765625,-0.42066138982772827,-0.12099030613899231,0.14577966928482056
1725630291007804200,6.96180419921875,-0.44669246673583984,-0.005754793528467417,0.27302950620651245
1725630291017757200,6.971757080078125,-0.4828721284866333,0.02231622487306595,0.3580602705478668
1725630291027710000,6.9817099609375,-0.5544458627700806,0.10667318105697632,0.39924126863479614
1725630291037662700,6.991662841796875,-0.6255996823310852,0.09630998969078064,0.4245566725730896
1725630291047616800,7.00161669921875,-0.6624850034713745,0.14954926073551178,0.5119528770446777
1725630291057569800,7.01156982421875,-0.6766445636749268,0.16823138296604156,0.5443346500396729
1725630291067522800,7.021522705078125,-0.6643543243408203,0.07375228404998779,0.5147650837898254
1725630291077475800,7.031475830078125,-0.6764786243438721,0.04941196367144585,0.42166826128959656
1725630291087430000,7.041429931640625,-0.6928328275680542,0.0985691249370575,0.4349563717842102
1725630291097382700,7.051382568359375,-0.6857029795646667,0.1791476458311081,0.5083860754966736
1725630291107335700,7.061335693359375,-0.7052982449531555,0.29864048957824707,0.4744606614112854
1725630291117288700,7.071288818359375,-0.6728307604789734,0.33039379119873047,0.456866592168808
1725630291127242800,7.08124267578125,-0.5875611305236816,0.3177810609340668,0.4491881728172302
1725630291137195500,7.091195556640625,-0.5508922934532166,0.48180487751960754,0.39955389499664307
1725630291147148500,7.1011484375,-0.525309681892395,0.5570839047431946,0.4212285578250885
1725630291157101600,7.1111015625,-0.5173950791358948,0.6433389782905579,0.47114700078964233
1725630291167055600,7.1210556640625,-0.49905791878700256,0.6107077598571777,0.46772271394729614
1725630291177008600,7.131008544921875,-0.48414596915245056,0.5641518235206604,0.49414530396461487
1725630291186961700,7.140961669921875,-0.48151716589927673,0.5137885212898254,0.5435378551483154
1725630291196914700,7.150914794921875,-0.4824827015399933,0.47547486424446106,0.5926303267478943
1725630291206868700,7.16086865234375,-0.49086207151412964,0.3868906795978546,0.5830163359642029
1725630291216821800,7.17082177734375,-0.47012344002723694,0.2575795352458954,0.5533933043479919
1725630291226774800,7.18077490234375,-0.4324176013469696,0.12547659873962402,0.5283380150794983
1725630291236727800,7.190727783203125,-0.357027143239975,0.07945303618907928,0.5735697150230408
1725630291246681600,7.200681640625,-0.2979390621185303,-0.006718860939145088,0.5751993060112
1725630291256634600,7.210634521484375,-0.2185758799314499,-0.1832747459411621,0.47356536984443665
1725630291266587600,7.220587646484375,-0.1540437638759613,-0.22834210097789764,0.4508480727672577
1725630291276540700,7.230540771484375,-0.12774430215358734,-0.23788416385650635,0.4280417263507843
1725630291286494700,7.24049462890625,-0.11262580007314682,-0.26714617013931274,0.3580402731895447
1725630291296447700,7.25044775390625,-0.1068149209022522,-0.23294924199581146,0.3719760477542877
1725630291306400800,7.26040087890625,-0.11521879583597183,-0.15541529655456543,0.40813615918159485
1725630291316353800,7.270353759765625,-0.10386594384908676,-0.21767978370189667,0.29822200536727905
1725630291326307800,7.280307861328125,-0.06259360164403915,-0.2966614067554474,0.2291196584701538
1725630291336260900,7.2902607421875,-0.012879759073257446,-0.24737879633903503,0.26558226346969604
1725630291346214000,7.3002138671875,0.04902941361069679,-0.24602217972278595,0.262777715921402
1725630291356166700,7.310166748046875,0.15173305571079254,-0.2866745591163635,0.25620436668395996
1725630291366120700,7.32012060546875,0.2855326533317566,-0.35763633251190186,0.23099461197853088
1725630291376073500,7.330073486328125,0.3737298548221588,-0.4037652015686035,0.1715012490749359
1725630291386026500,7.340026611328125,0.4409259557723999,-0.420277863740921,0.08955364674329758
1725630291395979500,7.3499794921875,0.4937836527824402,-0.3745608329772949,0.07254672050476074
1725630291405933600,7.35993359375,0.5051300525665283,-0.3484850227832794,0.03143550455570221
1725630291415886600,7.369886474609375,0.52202969789505,-0.40927305817604065,-0.07759515196084976
1725630291425839600,7.379839599609375,0.5608130693435669,-0.4523094594478607,-0.12002676725387573
1725630291435792600,7.389792724609375,0.5849512815475464,-0.4679141044616699,-0.13824200630187988
1725630291445746700,7.39974658203125,0.5971876978874207,-0.4777366518974304,-0.18991053104400635
1725630291455699700,7.40969970703125,0.6019275188446045,-0.45091602206230164,-0.23519165813922882
1725630291465652700,7.41965283203125,0.6027275323867798,-0.4233293831348419,-0.2979713976383209
1725630291475605800,7.429605712890625,0.6176475882530212,-0.4252772331237793,-0.38474535942077637
1725630291485559800,7.439559814453125,0.6602581739425659,-0.39921313524246216,-0.42308634519577026
1725630291495512800,7.449512939453125,0.6862163543701172,-0.36111918091773987,-0.48219266533851624
1725630291505465900,7.4594658203125,0.7031482458114624,-0.3314523696899414,-0.5512694716453552
1725630291515419000,7.4694189453125,0.690839409828186,-0.3024595379829407,-0.6298596262931824
1725630291525372700,7.47937255859375,0.6988565921783447,-0.2787694036960602,-0.6922791004180908
1725630291535325700,7.48932568359375,0.7252135872840881,-0.28290390968322754,-0.7370169162750244
1725630291545278700,7.49927880859375,0.7498829960823059,-0.2770015597343445,-0.7350214123725891
1725630291555231700,7.509231689453125,0.8097777962684631,-0.2189742773771286,-0.6777978539466858
1725630291565185800,7.519185791015625,0.8801223039627075,-0.21422213315963745,-0.6360704302787781
1725630291575138800,7.529138916015625,0.9369128942489624,-0.17915073037147522,-0.5606838464736938
1725630291585091600,7.539091552734375,0.9567044377326965,-0.09496473520994186,-0.4784097373485565
1725630291595044600,7.549044677734375,0.9271315336227417,-0.00535469688475132,-0.48188188672065735
1725630291604998700,7.55899853515625,0.8918406367301941,0.07331295311450958,-0.5536213517189026
1725630291614951700,7.56895166015625,0.8558264970779419,0.1721477508544922,-0.5977519750595093
1725630291624904700,7.57890478515625,0.836848795413971,0.2150568664073944,-0.6273524761199951
1725630291634857700,7.588857666015625,0.8075714111328125,0.29941627383232117,-0.593370795249939
1725630291644811500,7.5988115234375,0.7618513107299805,0.4126352369785309,-0.5264511704444885
1725630291654764500,7.6087646484375,0.7094447016716003,0.46596190333366394,-0.47863516211509705
1725630291664717600,7.618717529296875,0.6725591421127319,0.4862738251686096,-0.44524818658828735
1725630291674670600,7.628670654296875,0.6705769300460815,0.49497586488723755,-0.41884738206863403
1725630291684624600,7.638624755859375,0.6842693090438843,0.4105302095413208,-0.4442978799343109
1725630291694577700,7.64857763671875,0.6670820713043213,0.29915285110473633,-0.4818233549594879
1725630291704530700,7.65853076171875,0.6143429279327393,0.3004319667816162,-0.4499239921569824
1725630291714483700,7.668483642578125,0.49479398131370544,0.35156214237213135,-0.37869977951049805
1725630291724437800,7.678437744140625,0.38650158047676086,0.43353211879730225,-0.3212340772151947
1725630291734390800,7.688390869140625,0.289045512676239,0.4743705987930298,-0.2896668016910553
1725630291744343800,7.69834375,0.22041161358356476,0.4134582281112671,-0.29262396693229675
1725630291754296800,7.708296875,0.13858000934123993,0.27769869565963745,-0.3504039943218231
1725630291764251000,7.7182509765625,0.09905871003866196,0.2863702178001404,-0.3715724050998688
1725630291774204000,7.728203857421875,0.08115606009960175,0.2100808173418045,-0.279344379901886
1725630291784156700,7.73815673828125,-0.009145337156951427,0.3832334578037262,-0.17145973443984985
1725630291794109700,7.748109619140625,0.0177848432213068,0.31986552476882935,-0.1301049292087555
1725630291804063700,7.758063720703125,-0.06158854067325592,0.38856950402259827,-0.09288059175014496
1725630291814016800,7.768016845703125,-0.018374811857938766,0.3925313353538513,-0.021847229450941086
1725630291823969500,7.777969482421875,-0.019732756540179253,0.3435922861099243,0.029658304527401924
1725630291833922600,7.787922607421875,0.03710050508379936,0.2239910066127777,0.07620494067668915
1725630291843876600,7.797876708984375,0.09219571202993393,0.12193281203508377,0.10087593644857407
1725630291853829600,7.80782958984375,0.12275470793247223,0.07773329317569733,0.1471487432718277
1725630291863782700,7.81778271484375,0.10769080370664597,0.17712406814098358,0.2374325543642044
1725630291873735700,7.827735595703125,0.08563908189535141,0.25222498178482056,0.3613865375518799
1725630291883689700,7.837689697265625,0.06985293328762054,0.2983485460281372,0.4220331013202667
1725630291893642800,7.847642822265625,0.035469263792037964,0.3120216429233551,0.43459340929985046
1725630291903595800,7.857595703125,-0.011014347895979881,0.35419708490371704,0.4778388738632202
1725630291913548800,7.867548828125,-0.029670976102352142,0.33814698457717896,0.5208753347396851
1725630291923502600,7.877502685546875,-0.055253565311431885,0.2762756049633026,0.4837341010570526
1725630291933455600,7.88745556640625,-0.08080233633518219,0.16827726364135742,0.3918609023094177
1725630291943408600,7.89740869140625,-0.1076536625623703,0.045900214463472366,0.2884117364883423
1725630291953361700,7.907361572265625,-0.1425461620092392,-0.02183709107339382,0.23632581532001495
1725630291963315700,7.917315673828125,-0.1684986650943756,-0.01090801041573286,0.26422935724258423
1725630291973268700,7.927268798828125,-0.18523575365543365,-0.03894777223467827,0.28331130743026733
1725630291983221800,7.9372216796875,-0.20287254452705383,-0.10458484292030334,0.2284318059682846
1725630291993174800,7.9471748046875,-0.2077556997537613,-0.14503364264965057,0.13320253789424896
1725630292003128800,7.95712890625,-0.2052701711654663,-0.1687765270471573,0.014388264156877995
1725630292013081900,7.967081787109375,-0.21830953657627106,-0.1694139987230301,-0.06946317851543427
1725630292023035000,7.977034912109375,-0.22675494849681854,-0.12543828785419464,-0.10262938588857651
1725630292032987400,7.9869873046875,-0.1775524616241455,-0.11159583181142807,-0.1047353446483612
1725630292042941400,7.99694140625,-0.1313743144273758,-0.18297706544399261,-0.16101539134979248
1725630292052894500,8.00689453125,-0.08117584884166718,-0.22796985507011414,-0.2723674178123474
1725630292062847500,8.016847412109374,-0.11357133835554123,-0.20338834822177887,-0.2857482135295868
1725630292072800500,8.026800537109375,-0.16547448933124542,-0.0744345486164093,-0.1517844945192337
1725630292082754300,8.03675439453125,-0.21668094396591187,-0.049476996064186096,-0.03828137367963791
1725630292092707300,8.046707275390625,-0.20274482667446136,-0.10321571677923203,-0.04957444965839386
1725630292102660400,8.056660400390625,-0.18380096554756165,-0.16018126904964447,-0.08320377767086029
1725630292112613400,8.06661328125,-0.18853729963302612,-0.18136632442474365,-0.07793310284614563
1725630292122567400,8.0765673828125,-0.2510744333267212,-0.11769440770149231,-0.06897422671318054
1725630292132520400,8.0865205078125,-0.31289756298065186,0.02810901589691639,-0.025283141061663628
1725630292142473500,8.096473388671875,-0.2665228843688965,0.01583557017147541,-0.06236552819609642
1725630292152426500,8.106426513671876,-0.21149224042892456,-0.17362134158611298,-0.24568451941013336
1725630292162380500,8.116380615234375,-0.20447374880313873,-0.22190365195274353,-0.3941381871700287
1725630292172333600,8.12633349609375,-0.24475982785224915,-0.0799645185470581,-0.34230664372444153
1725630292182286600,8.13628662109375,-0.2751523554325104,0.09181070327758789,-0.18671996891498566
1725630292192239600,8.146239501953126,-0.2617882490158081,0.14050529897212982,-0.15009036660194397
1725630292202193400,8.156193359375,-0.2467469871044159,0.07737640291452408,-0.23240362107753754
1725630292212146400,8.166146484375,-0.2632192373275757,-0.051832061260938644,-0.334885835647583
1725630292222099500,8.176099365234375,-0.37615537643432617,-0.054305605590343475,-0.3684653639793396
1725630292232052500,8.186052490234376,-0.5053156018257141,0.11607224494218826,-0.19037972390651703
1725630292242006500,8.196006591796875,-0.6073303818702698,0.14942196011543274,-0.08122233301401138
1725630292251959600,8.20595947265625,-0.6694275140762329,0.029293596744537354,-0.12940171360969543
1725630292261912300,8.215912353515625,-0.70461106300354,-0.08653100579977036,-0.047877293080091476
1725630292271865300,8.225865234375,-0.7326117753982544,-0.05643533542752266,0.1766085922718048
1725630292281819400,8.2358193359375,-0.7221795916557312,-0.07950257509946823,0.3303385078907013
1725630292291772400,8.2457724609375,-0.6145722270011902,-0.02915051206946373,0.5650032162666321
1725630292301725400,8.255725341796875,-0.537610650062561,-0.07383062690496445,0.6519969701766968
1725630292311678500,8.265678466796874,-0.5075471997261047,-0.26067033410072327,0.5659185647964478
1725630292321632500,8.275632568359375,-0.526740550994873,-0.19507509469985962,0.4333304762840271
1725630292331585300,8.285585205078124,-0.5874123573303223,-0.10853022336959839,0.3452366888523102
1725630292341538300,8.295538330078125,-0.6576937437057495,-0.08019658178091049,0.244195818901062
1725630292351491300,8.3054912109375,-0.7198406457901001,-0.01281147450208664,0.3017287850379944
1725630292361445400,8.3154453125,-0.7337788343429565,0.005882851779460907,0.3990478813648224
1725630292371398400,8.3253984375,-0.7018799185752869,0.025785019621253014,0.5323359966278076
1725630292381351400,8.335351318359375,-0.624920666217804,0.12968690693378448,0.7155135273933411
1725630292391304400,8.345304443359375,-0.584793210029602,0.3558264970779419,0.9241434931755066
1725630292401258500,8.355258544921876,-0.5803875923156738,0.36699366569519043,0.8478844165802002
1725630292411211500,8.36521142578125,-0.5759693384170532,0.2848956882953644,0.7084330320358276
1725630292421164500,8.37516455078125,-0.5306724309921265,0.3670661747455597,0.7023671865463257
1725630292431117600,8.38511767578125,-0.5351485013961792,0.42216959595680237,0.67597496509552
1725630292441071600,8.395071533203126,-0.5504789352416992,0.4792533814907074,0.6422907710075378
1725630292451024600,8.405024658203125,-0.5816522836685181,0.41353505849838257,0.5885207653045654
1725630292460977700,8.414977783203126,-0.631345272064209,0.31677815318107605,0.41045594215393066
1725630292470930400,8.424930419921875,-0.6321824789047241,0.3357895314693451,0.48235252499580383
1725630292480884500,8.434884521484374,-0.6465653777122498,0.4118898808956146,0.6091458797454834
1725630292490837200,8.444837158203125,-0.6114879250526428,0.16052232682704926,0.5020447373390198
1725630292500790300,8.454790283203126,-0.5319941639900208,-0.018038088455796242,0.4317737817764282
1725630292510743300,8.464743408203125,-0.4741070568561554,0.003942050505429506,0.45623350143432617
1725630292520697300,8.474697265625,-0.3920084536075592,0.024197787046432495,0.49192678928375244
1725630292530650400,8.484650390625,-0.35678762197494507,0.14315393567085266,0.6084215044975281
1725630292540603400,8.494603271484374,-0.3328932225704193,0.1551820933818817,0.4768906533718109
1725630292550556400,8.504556396484375,-0.2798878848552704,0.04792245849967003,0.24268732964992523
1725630292560510500,8.514510498046874,-0.24107976257801056,0.22519631683826447,0.2118777483701706
1725630292570463500,8.52446337890625,-0.21930773556232452,0.3296295702457428,0.1233784407377243
1725630292580416500,8.53441650390625,-0.18695618212223053,0.241298109292984,-0.01878376118838787
1725630292590369500,8.54436962890625,-0.15034346282482147,0.21598921716213226,0.014876333065330982
1725630292600323300,8.5543232421875,-0.0715450569987297,0.19535264372825623,0.07962922751903534
1725630292610276400,8.5642763671875,0.01357324980199337,0.0888034999370575,0.06485959887504578
1725630292620229400,8.5742294921875,0.09458687901496887,0.07643631845712662,0.08466845750808716
1725630292630182400,8.584182373046875,0.16252480447292328,0.08033571392297745,0.04008961468935013
1725630292640136400,8.594136474609375,0.19631552696228027,-0.0402386412024498,-0.12140873074531555
1725630292650089500,8.60408935546875,0.23137016594409943,-0.11353451013565063,-0.2009773850440979
1725630292660042500,8.61404248046875,0.27651822566986084,-0.14767064154148102,-0.2555199861526489
1725630292669995500,8.62399560546875,0.321024626493454,-0.22274327278137207,-0.3421355187892914
1725630292679949600,8.633949462890625,0.3608846962451935,-0.2896125912666321,-0.4057917296886444
1725630292689902600,8.643902587890626,0.36148717999458313,-0.21131016314029694,-0.35482409596443176
1725630292699855600,8.653855712890625,0.3431699573993683,-0.17937646806240082,-0.4160618782043457
1725630292709808400,8.663808349609376,0.35077375173568726,-0.23424173891544342,-0.5129871368408203
1725630292719762700,8.6737626953125,0.35699543356895447,-0.29241743683815,-0.5282859206199646
1725630292729715500,8.683715576171876,0.3776257634162903,-0.34340181946754456,-0.5962245464324951
1725630292739668500,8.69366845703125,0.44165030121803284,-0.36724162101745605,-0.6018573641777039
1725630292749621500,8.70362158203125,0.501266360282898,-0.4034278988838196,-0.5747739672660828
1725630292759575300,8.7135751953125,0.5393655300140381,-0.4643189609050751,-0.6005504131317139
1725630292769528300,8.7235283203125,0.5854547023773193,-0.5116167068481445,-0.6169887781143188
1725630292779481300,8.7334814453125,0.6242250204086304,-0.47023144364356995,-0.5727949738502502
1725630292789434400,8.743434326171876,0.6180756092071533,-0.4553699493408203,-0.6299140453338623
1725630292799388400,8.753388427734375,0.6399596333503723,-0.45725998282432556,-0.6802064776420593
1725630292809341400,8.763341552734374,0.6840481758117676,-0.44500476121902466,-0.6438206434249878
1725630292819294500,8.77329443359375,0.7144169807434082,-0.43309909105300903,-0.6358298063278198
1725630292829247500,8.78324755859375,0.7502438426017761,-0.42648571729660034,-0.6700770854949951
1725630292839201500,8.793201416015625,0.7448296546936035,-0.34986284375190735,-0.6492778062820435
1725630292849154600,8.803154541015624,0.7043068408966064,-0.21907438337802887,-0.6250665783882141
1725630292859107600,8.813107666015625,0.6702418327331543,-0.11994832009077072,-0.6314032673835754
1725630292869060600,8.823060546875,0.6488109827041626,-0.08193790167570114,-0.6450792551040649
1725630292879014400,8.833014404296875,0.6288700699806213,-0.04613064229488373,-0.6263316869735718
1725630292888967400,8.842967529296875,0.6006893515586853,-0.05446835607290268,-0.630996823310852
1725630292898920400,8.85292041015625,0.5933374166488647,-0.0637846291065216,-0.6341785192489624
1725630292908873500,8.86287353515625,0.623753011226654,0.0006967111257836223,-0.553626537322998
1725630292918827500,8.87282763671875,0.615979790687561,0.0036019536200910807,-0.4819033443927765
1725630292928780500,8.882780517578125,0.6264469027519226,0.013516285456717014,-0.4048747420310974
1725630292938733300,8.8927333984375,0.6476712822914124,0.03520400449633598,-0.37281107902526855
1725630292948686300,8.902686279296875,0.6538509726524353,0.022998210042715073,-0.3653210401535034
1725630292958640400,8.912640380859376,0.6432824730873108,-0.004523163661360741,-0.3483116924762726
1725630292968593400,8.922593505859375,0.6064611673355103,-0.003394198836758733,-0.27464741468429565
1725630292978546400,8.93254638671875,0.6037205457687378,-0.0264731515198946,-0.20584198832511902
1725630292988499500,8.94249951171875,0.6549989581108093,-0.18382279574871063,-0.28595253825187683
1725630292998453500,8.95245361328125,0.6646870374679565,-0.31250274181365967,-0.4290758967399597
1725630293008406500,8.962406494140625,0.6209828853607178,-0.24217550456523895,-0.4052993059158325
1725630293018359300,8.972359375,0.4291327893733978,0.03200972080230713,-0.21699810028076172
1725630293028312300,8.982312255859375,0.2545062005519867,0.2264186590909958,-0.008590607903897762
1725630293038265600,8.992265625,0.13668368756771088,0.3792433440685272,0.10001230239868164
1725630293048219600,9.0022197265625,0.014222666621208191,0.4628823697566986,0.24312341213226318
1725630293058172700,9.012172607421874,0.023815905675292015,0.3093394339084625,0.29444947838783264
1725630293068125700,9.022125732421875,0.04370633885264397,0.21518588066101074,0.2543860971927643
1725630293078079700,9.032079833984374,0.10399764776229858,0.013948378153145313,0.18406294286251068
1725630293088032800,9.04203271484375,0.15199914574623108,0.06790729612112045,0.1652369201183319
1725630293097985800,9.05198583984375,0.17326821386814117,0.021535536274313927,0.18824557960033417
1725630293107938800,9.061938720703125,0.18646661937236786,0.026105495169758797,0.20453289151191711
1725630293117891800,9.071891845703124,0.18905813992023468,0.005450550466775894,0.2029363214969635
1725630293127846000,9.081845947265625,0.18620899319648743,-0.02754240483045578,0.15585029125213623
1725630293137799000,9.091798828125,0.1592271775007248,-0.1260162591934204,0.12011225521564484
1725630293147752000,9.101751953125,0.13352297246456146,-0.08451147377490997,0.11502595990896225
1725630293157704700,9.11170458984375,0.09440620243549347,-0.040775448083877563,0.12576036155223846
1725630293167658800,9.12165869140625,0.07743336260318756,-0.015820495784282684,0.1689063459634781
1725630293177611500,9.131611572265625,0.04416648671030998,0.040017738938331604,0.17912302911281586
1725630293187564500,9.141564453125,0.019294381141662598,-0.009333892725408077,0.19062043726444244
1725630293197517600,9.151517578125,-0.017176810652017593,-0.03134864568710327,0.16545994579792023
1725630293207471600,9.1614716796875,-0.028641236945986748,-0.07322201877832413,0.1328340619802475
1725630293217424600,9.171424560546875,-0.04766206443309784,-0.12675076723098755,0.10477634519338608
1725630293227377700,9.181377685546876,-0.07888781279325485,-0.08761797100305557,0.1451817899942398
1725630293237330700,9.19133056640625,-0.1215742900967598,0.010405800305306911,0.1625424027442932
1725630293247284700,9.20128466796875,-0.19319216907024384,0.08610740303993225,0.14056159555912018
1725630293257237800,9.21123779296875,-0.23011024296283722,0.14697130024433136,0.18202409148216248
1725630293267190800,9.221190673828126,-0.2380618453025818,0.1625416874885559,0.18717369437217712
1725630293277143800,9.231143798828125,-0.23269611597061157,0.1427759826183319,0.1427668184041977
1725630293287097600,9.24109765625,-0.22049173712730408,0.07343566417694092,0.10276877880096436
1725630293297050600,9.251050537109375,-0.19480687379837036,-0.015348801389336586,0.022987663745880127
1725630293307003600,9.261003662109376,-0.18721820414066315,-0.07329954206943512,-0.08230632543563843
1725630293316956700,9.270956787109375,-0.19001451134681702,-0.0640312060713768,-0.13917680084705353
1725630293326910700,9.28091064453125,-0.19529680907726288,-0.008787538856267929,-0.1305164396762848
1725630293336863700,9.29086376953125,-0.19724731147289276,-0.01745506376028061,-0.1077839732170105
1725630293346816800,9.300816650390624,-0.1920565813779831,-0.08636761456727982,-0.07077615708112717
1725630293356769800,9.310769775390625,-0.18220582604408264,-0.1648658812046051,-0.057397499680519104
1725630293366723800,9.320723876953124,-0.18885084986686707,-0.251102477312088,-0.0621427558362484
1725630293376676900,9.3306767578125,-0.19922226667404175,-0.2736471891403198,-0.008276594802737236
1725630293386630000,9.3406298828125,-0.23259912431240082,-0.25387367606163025,0.06850585341453552
1725630293396582700,9.350582763671875,-0.2582203447818756,-0.24086865782737732,0.09675959497690201
1725630293406536700,9.36053662109375,-0.26941290497779846,-0.22519926726818085,0.1309412568807602
1725630293416489700,9.37048974609375,-0.26976123452186584,-0.24176545441150665,0.10417701303958893
1725630293426442500,9.3804423828125,-0.30186551809310913,-0.23101212084293365,0.05941632390022278
1725630293436395500,9.3903955078125,-0.36587435007095337,-0.1341652125120163,0.08500104397535324
1725630293446349600,9.400349609375,-0.4576685428619385,0.0011953475186601281,0.18563330173492432
1725630293456302600,9.410302490234375,-0.5304908156394958,0.10424104332923889,0.27722370624542236
1725630293466255600,9.420255615234375,-0.5558794736862183,0.10323689132928848,0.29013293981552124
1725630293476208600,9.430208740234375,-0.528028666973114,0.022652029991149902,0.22706156969070435
1725630293486162700,9.44016259765625,-0.4974457919597626,-0.1543979048728943,0.12188880145549774
1725630293496115700,9.45011572265625,-0.47565314173698425,-0.2600332796573639,0.024010708555579185
1725630293506068700,9.46006884765625,-0.4375270903110504,-0.2868588864803314,-0.0159230288118124
1725630293516021800,9.470021728515626,-0.4036705791950226,-0.3094446361064911,-0.055905330926179886
1725630293525975800,9.479975830078125,-0.41735005378723145,-0.2976703345775604,-0.07128068804740906
1725630293535928800,9.4899287109375,-0.4608975350856781,-0.197015643119812,-0.04291216656565666
1725630293545881900,9.4998818359375,-0.4985956847667694,-0.09983624517917633,0.04656801000237465
1725630293555835000,9.5098349609375,-0.5424379110336304,0.08632776141166687,0.15550167858600616
1725630293565788700,9.51978857421875,-0.5403441786766052,0.1469877064228058,0.21396474540233612
1725630293575741700,9.52974169921875,-0.5269785523414612,0.13385193049907684,0.2518948018550873
1725630293585694700,9.53969482421875,-0.5258020758628845,0.06389223039150238,0.31429487466812134
1725630293595647700,9.549647705078126,-0.5932857990264893,0.1881803572177887,0.39262428879737854
1725630293605601800,9.559601806640625,-0.6573397517204285,0.22924478352069855,0.47082746028900146
1725630293615554800,9.569554931640624,-0.7227499485015869,0.2660882771015167,0.5599304437637329
1725630293625507600,9.579507568359375,-0.7429246306419373,0.3214164674282074,0.6074440479278564
1725630293635460600,9.589460693359374,-0.7191731929779053,0.3209517300128937,0.6359710693359375
1725630293645414700,9.59941455078125,-0.676156222820282,0.3570389449596405,0.6590699553489685
1725630293655367700,9.60936767578125,-0.6367232799530029,0.39251863956451416,0.6720936298370361
1725630293665320700,9.61932080078125,-0.5917778015136719,0.3802318274974823,0.6662083864212036
1725630293675273700,9.629273681640624,-0.5494881272315979,0.3726212978363037,0.634281575679779
1725630293685227500,9.6392275390625,-0.5136358737945557,0.46782708168029785,0.682707667350769
1725630293695180500,9.6491806640625,-0.4562380909919739,0.5946537852287292,0.7698947787284851
1725630293705133600,9.659133544921875,-0.40421155095100403,0.5401349067687988,0.7381309270858765
1725630293715086600,9.669086669921874,-0.3381499946117401,0.43796566128730774,0.6512101292610168
1725630293725040600,9.67904052734375,-0.29283374547958374,0.4187796115875244,0.6270484924316406
1725630293734993700,9.68899365234375,-0.24842341244220734,0.3680668771266937,0.5571778416633606
1725630293744946700,9.69894677734375,-0.24598723649978638,0.3750660717487335,0.5481411814689636
1725630293754899700,9.708899658203125,-0.2588372528553009,0.44955974817276,0.5878987312316895
1725630293764853800,9.718853759765626,-0.2442341446876526,0.4234118163585663,0.5448414087295532
1725630293774806800,9.728806884765625,-0.2094908058643341,0.40286073088645935,0.47198688983917236
1725630293784759800,9.738759765625,-0.17817525565624237,0.32512378692626953,0.3922387361526489
1725630293794712800,9.748712890625,-0.1450418084859848,0.19967879354953766,0.29042235016822815
1725630293804667000,9.7586669921875,-0.14049561321735382,0.030893826857209206,0.21731449663639069
1725630293814620000,9.768619873046875,-0.1479109227657318,-0.1322503536939621,0.18907113373279572
1725630293824573000,9.778572998046876,-0.15244953334331512,-0.2338608354330063,0.220142662525177
1725630293834525700,9.788525634765625,-0.16572965681552887,-0.24364528059959412,0.2896119952201843
1725630293844478700,9.798478759765626,-0.16901011765003204,-0.2533554434776306,0.30703964829444885
1725630293854432500,9.8084326171875,-0.17819084227085114,-0.3262038230895996,0.22542066872119904
1725630293864385500,9.818385498046876,-0.1492084413766861,-0.3971382677555084,0.17028392851352692
1725630293874338600,9.828338623046875,-0.07307533174753189,-0.48204997181892395,0.19162197411060333
1725630293884291600,9.83829150390625,0.010860397480428219,-0.4438081979751587,0.1546362191438675
1725630293894245600,9.84824560546875,0.10227792710065842,-0.39929452538490295,0.1505168378353119
1725630293904198700,9.85819873046875,0.1871829479932785,-0.29274293780326843,0.18987078964710236
1725630293914151700,9.868151611328125,0.2896323502063751,-0.23822936415672302,0.15143631398677826
1725630293924104700,9.878104736328124,0.3923141360282898,-0.21583564579486847,0.07343347370624542
1725630293934058800,9.888058837890625,0.46829864382743835,-0.22891177237033844,-0.03791382536292076
1725630293944011800,9.89801171875,0.5336218476295471,-0.22486145794391632,-0.08952638506889343
1725630293953964800,9.90796484375,0.6167742609977722,-0.18225114047527313,-0.10367070138454437
1725630293963917800,9.917917724609374,0.7084277868270874,-0.20664280652999878,-0.17429111897945404
1725630293973871600,9.92787158203125,0.7877590656280518,-0.3130533993244171,-0.30805638432502747
1725630293983824600,9.93782470703125,0.8566706776618958,-0.42032402753829956,-0.4541064500808716
1725630293993777700,9.947777587890625,0.9065671563148499,-0.3533537685871124,-0.4218555688858032
1725630294003730700,9.957730712890625,0.8891600966453552,-0.287571519613266,-0.4225526452064514
1725630294013684700,9.967684814453126,0.8312872052192688,-0.35651010274887085,-0.5586806535720825
1725630294023637800,9.9776376953125,0.7856094837188721,-0.41588786244392395,-0.6556695103645325
1725630294033591300,9.98759130859375,0.7341630458831787,-0.4365244507789612,-0.7104299664497375
1725630294043544300,9.99754443359375,0.6969205141067505,-0.411375492811203,-0.6968930959701538
1725630294053498400,10.007498291015626,0.6618863940238953,-0.337515652179718,-0.6395903825759888
1725630294063451400,10.017451416015625,0.6529763340950012,-0.23105601966381073,-0.5834922790527344
1725630294073404400,10.027404296875,0.6514418125152588,-0.14267316460609436,-0.5870624780654907
1725630294083357400,10.037357421875,0.6693925857543945,-0.0971934050321579,-0.6467892527580261
1725630294093311200,10.047311279296874,0.6812726855278015,-0.034900471568107605,-0.6784129738807678
1725630294103264300,10.05726416015625,0.7160428166389465,0.01891934499144554,-0.6825128793716431
1725630294113217300,10.06721728515625,0.7534897923469543,0.05821561440825462,-0.7034311890602112
1725630294123170300,10.07717041015625,0.7858470678329468,0.056713927537202835,-0.7630721926689148
1725630294133124400,10.087124267578124,0.7980174422264099,0.04270916059613228,-0.8498108386993408
1725630294143077400,10.097077392578125,0.7852409482002258,0.09975729137659073,-0.8458619117736816
1725630294153030400,10.107030517578124,0.7600663304328918,0.18942485749721527,-0.7901621460914612
1725630294162983400,10.1169833984375,0.7129018902778625,0.2541627287864685,-0.7334319949150085
1725630294172937500,10.1269375,0.6698465347290039,0.30426666140556335,-0.7047758102416992
1725630294182890500,10.136890380859375,0.6216237545013428,0.32705211639404297,-0.6726505756378174
1725630294192843500,10.146843505859374,0.5793460607528687,0.3584388196468353,-0.5877796411514282
1725630294202796300,10.15679638671875,0.4790900647640228,0.38099658489227295,-0.5448849201202393
1725630294212750300,10.166750244140625,0.38576462864875793,0.48048722743988037,-0.4685136675834656
1725630294222703000,10.176703125,0.30019065737724304,0.5119630098342896,-0.44013628363609314
1725630294232656100,10.18665625,0.2468416839838028,0.4950021505355835,-0.4294048249721527
1725630294242609200,10.196609130859375,0.21790337562561035,0.4638863801956177,-0.36713480949401855
1725630294252563200,10.206563232421875,0.194562628865242,0.4281552731990814,-0.26983943581581116
1725630294262516200,10.21651611328125,0.17165134847164154,0.4218718707561493,-0.1362159252166748
1725630294272469200,10.22646923828125,0.1441696584224701,0.32442015409469604,-0.09517448395490646
1725630294282422300,10.23642236328125,0.14372092485427856,0.22632846236228943,-0.13616447150707245
1725630294292376300,10.246376220703125,0.16997303068637848,0.14159919321537018,-0.09719789028167725
1725630294302329300,10.256329345703126,0.1462206244468689,0.06328349560499191,0.0389765202999115
1725630294312282400,10.266282470703125,0.07527827471494675,0.13264846801757812,0.15337419509887695
1725630294322235400,10.2762353515625,0.07238603383302689,0.06371542066335678,0.12006969749927521
1725630294332188400,10.2861884765625,0.06198239326477051,0.013931621797382832,0.05344646796584129
1725630294342142500,10.296142578125,0.009173650294542313,-0.018209805712103844,0.050764210522174835
1725630294352095500,10.306095458984375,-0.10840357840061188,0.211760014295578,0.15759985148906708
1725630294362048500,10.316048583984376,-0.15393254160881042,0.18080508708953857,0.304696261882782
1725630294372002300,10.326002197265625,-0.21558232605457306,0.30936864018440247,0.35898613929748535
1725630294381955300,10.335955322265624,-0.16858598589897156,0.1312917172908783,0.3412957191467285
1725630294391908400,10.345908447265625,-0.1387047916650772,0.09205030649900436,0.30448630452156067
1725630294401861400,10.355861328125,-0.07877066731452942,0.020867420360445976,0.2994944453239441
1725630294411814100,10.365814208984375,-0.03021404892206192,0.005634936969727278,0.3207930624485016
1725630294421768400,10.3757685546875,0.03560847416520119,-0.13732866942882538,0.2702684700489044
1725630294431721200,10.38572119140625,0.05890900269150734,-0.17884282767772675,0.25545090436935425
1725630294441674200,10.39567431640625,0.03749122470617294,-0.22462010383605957,0.2459137737751007
1725630294451627300,10.405627197265625,0.026062538847327232,-0.24335810542106628,0.3077065646648407
1725630294461581300,10.415581298828124,0.021703235805034637,-0.3152795433998108,0.2637190520763397
1725630294471534300,10.425534423828125,0.025077462196350098,-0.42571043968200684,0.07084812968969345
1725630294481487400,10.4354873046875,0.02729605883359909,-0.4697079360485077,-0.0314265601336956
1725630294491440400,10.4454404296875,0.009536768309772015,-0.3915409445762634,-0.05552603676915169
1725630294501394200,10.455394287109375,-0.03752259165048599,-0.26830995082855225,-0.023254213854670525
1725630294511347200,10.46534716796875,-0.07157616317272186,-0.1712249517440796,0.0929136723279953
1725630294521300200,10.47530029296875,-0.04738409444689751,-0.24602411687374115,0.1322166472673416
1725630294531253200,10.485253173828125,-0.042206376791000366,-0.2865148186683655,0.11913492530584335
1725630294541207300,10.495207275390625,-0.03393670916557312,-0.3098922371864319,0.13390414416790009
1725630294551160300,10.505160400390626,-0.06350605189800262,-0.36910468339920044,0.10889598727226257
1725630294561113300,10.51511328125,-0.15366730093955994,-0.30028724670410156,0.09868772327899933
1725630294571066400,10.52506640625,-0.19031186401844025,-0.23679853975772858,0.09890930354595184
1725630294581020400,10.5350205078125,-0.15601655840873718,-0.30877113342285156,0.03365384787321091
1725630294590973400,10.544973388671876,-0.03735143318772316,-0.45112401247024536,-0.12692996859550476
1725630294600926500,10.554926513671875,0.009699029847979546,-0.4670877158641815,-0.2642742693424225
1725630294610879500,10.56487939453125,0.004386556334793568,-0.30385562777519226,-0.2494172900915146
1725630294620833300,10.574833251953125,-0.0017526824958622456,-0.20157970488071442,-0.21832214295864105
1725630294630786300,10.584786376953126,0.006890340242534876,-0.2314358651638031,-0.277599573135376
1725630294640739300,10.5947392578125,-0.041860513389110565,-0.31237468123435974,-0.3363071382045746
1725630294650692400,10.6046923828125,-0.11835209280252457,-0.2575167417526245,-0.27373188734054565
1725630294660646400,10.614646484375,-0.21972733736038208,-0.10305607318878174,-0.0951225534081459
1725630294670599200,10.62459912109375,-0.2938675880432129,0.04117940366268158,0.06651268154382706
1725630294680552200,10.63455224609375,-0.35015788674354553,0.1307140588760376,0.0873187705874443
1725630294690505200,10.644505126953124,-0.4067513942718506,0.19658681750297546,0.094495989382267
1725630294700459300,10.654459228515625,-0.4551965594291687,0.19142916798591614,0.08921564370393753
1725630294710412300,10.664412353515624,-0.4735657274723053,0.1316835582256317,0.03531140834093094
1725630294720365300,10.674365234375,-0.4478030502796173,0.06042255461215973,-0.019540531560778618
1725630294730318300,10.684318359375,-0.44226792454719543,-0.0054496717639267445,-0.05655847117304802
1725630294740272400,10.6942724609375,-0.4552209973335266,-0.010923249647021294,-0.0767812430858612
1725630294750225400,10.704225341796874,-0.4361133575439453,0.07247869670391083,-0.025081567466259003
1725630294760178400,10.714178466796875,-0.3948219418525696,0.14766305685043335,0.07501338422298431
1725630294770131500,10.72413134765625,-0.36140379309654236,0.10618699342012405,0.1067686527967453
1725630294780085200,10.734085205078125,-0.37634751200675964,0.07471460103988647,0.1407233327627182
1725630294790038300,10.744038330078125,-0.3995537757873535,0.1562398225069046,0.24349364638328552
1725630294799991300,10.7539912109375,-0.41789010167121887,0.1767728477716446,0.29484793543815613
1725630294809944300,10.7639443359375,-0.46888697147369385,0.20644792914390564,0.28286316990852356
1725630294819898400,10.7738984375,-0.5200511813163757,0.25524479150772095,0.32079845666885376
1725630294829851400,10.783851318359375,-0.5559103488922119,0.29088905453681946,0.35535377264022827
1725630294839804400,10.793804443359376,-0.5782501101493835,0.336059033870697,0.4064575433731079
1725630294849757400,10.80375732421875,-0.5927936434745789,0.4789474904537201,0.5035595893859863
1725630294859711500,10.81371142578125,-0.6160991191864014,0.5333061814308167,0.5256478786468506
1725630294869664500,10.82366455078125,-0.6393437385559082,0.6224600076675415,0.5619233250617981
1725630294879617300,10.8336171875,-0.6478321552276611,0.6072069406509399,0.5312973856925964
1725630294889570300,10.8435703125,-0.6496487259864807,0.4851215183734894,0.41721126437187195
1725630294899523300,10.8535234375,-0.6448376178741455,0.38202497363090515,0.3234623372554779
1725630294909477000,10.86347705078125,-0.6763912439346313,0.4571373164653778,0.3894174098968506
1725630294919430100,10.87343017578125,-0.7158770561218262,0.5075407028198242,0.46297433972358704
1725630294929383200,10.883383056640625,-0.712448000907898,0.3932124674320221,0.4424176812171936
1725630294939336200,10.893336181640626,-0.7166315317153931,0.30235815048217773,0.44071969389915466
1725630294949290200,10.903290283203125,-0.6596462726593018,0.21631592512130737,0.4441205561161041
1725630294959243300,10.9132431640625,-0.6162411570549011,0.21554289758205414,0.5355462431907654
1725630294969196300,10.9231962890625,-0.5905600190162659,0.3126257658004761,0.6691125631332397
1725630294979149300,10.9331494140625,-0.5593875646591187,0.22626157104969025,0.6010041236877441
1725630294989103400,10.943103271484375,-0.4919390380382538,0.19011075794696808,0.5487126708030701
1725630294999056400,10.953056396484374,-0.42107880115509033,0.24193042516708374,0.5527423024177551
1725630295009009400,10.963009521484375,-0.3604647219181061,0.2036283165216446,0.4893995523452759
1725630295018962400,10.97296240234375,-0.3008709251880646,0.15437351167201996,0.42965301871299744
1725630295028916500,10.98291650390625,-0.22597883641719818,0.06209232285618782,0.301911860704422
1725630295038868200,10.9928681640625,-0.17028947174549103,-0.09189210087060928,0.12922213971614838
1725630295048821200,11.0028212890625,-0.11136569827795029,-0.0777062401175499,0.13917943835258484
1725630295058774300,11.012774169921874,-0.1030769795179367,0.028745166957378387,0.25032612681388855
1725630295068728300,11.022728271484375,-0.07966459542512894,-0.11311716586351395,0.20208348333835602
1725630295078681300,11.032681396484374,-0.05302038788795471,-0.2629319131374359,0.12831096351146698
1725630295088634400,11.04263427734375,-0.027392255142331123,-0.21636682748794556,0.14703431725502014
1725630295098587400,11.05258740234375,0.01603623479604721,-0.1954272985458374,0.15093591809272766
1725630295108541200,11.062541259765625,-0.028348010033369064,-0.1636110544204712,0.1357995718717575
1725630295118494200,11.072494140625,-0.09165284782648087,-0.012714377604424953,0.1967005431652069
1725630295128447200,11.082447265625,-0.16774362325668335,-0.044779904186725616,0.11075794696807861
1725630295138400300,11.092400146484374,-0.1892346739768982,-0.17710961401462555,-0.009225807152688503
1725630295148354300,11.102354248046876,-0.09314995259046555,-0.12623125314712524,0.04304672032594681
1725630295158307300,11.112307373046875,0.023913614451885223,-0.11523136496543884,0.09990852326154709
1725630295168260000,11.122260009765625,0.0907301977276802,-0.1871524304151535,0.15068195760250092
1725630295178213000,11.132213134765625,0.18551594018936157,-0.2781294882297516,0.10327281057834625
1725630295188167200,11.142167236328126,0.30846238136291504,-0.4356013834476471,-0.06625097244977951
1725630295198120200,11.1521201171875,0.4117308259010315,-0.5375185012817383,-0.1684308499097824
1725630295208073200,11.1620732421875,0.5197950005531311,-0.432216078042984,-0.1628267616033554
1725630295218026200,11.172026123046875,0.5976513624191284,-0.4414750635623932,-0.2527477741241455
1725630295227980000,11.18197998046875,0.6618058085441589,-0.5493744015693665,-0.3471749424934387
1725630295237933000,11.19193310546875,0.6828272938728333,-0.5021510124206543,-0.3543166220188141
1725630295247886000,11.201885986328126,0.6545261740684509,-0.42922621965408325,-0.4801703989505768
1725630295257839000,11.211839111328125,0.6079814434051514,-0.44653913378715515,-0.626665472984314
1725630295267793200,11.221793212890624,0.5648768544197083,-0.35968413949012756,-0.6382880210876465
1725630295277746200,11.23174609375,0.5249540209770203,-0.18136000633239746,-0.5748361945152283
1725630295287699200,11.24169921875,0.49515801668167114,-0.13771159946918488,-0.6179082989692688
1725630295297652200,11.25165234375,0.46953174471855164,-0.09452753514051437,-0.6468799710273743
1725630295307606300,11.261606201171874,0.4729307293891907,-0.06868768483400345,-0.6981325149536133
1725630295317559300,11.271559326171875,0.49887844920158386,-0.07564006000757217,-0.7319917678833008
1725630295327512300,11.28151220703125,0.548660933971405,-0.04810937121510506,-0.6667137145996094
1725630295337465300,11.29146533203125,0.6057777404785156,-0.057196661829948425,-0.6420890688896179
1725630295347419100,11.301419189453124,0.683007001876831,-0.11752098798751831,-0.6906288862228394
1725630295357372200,11.3113720703125,0.7272985577583313,-0.04434620961546898,-0.5764747858047485
1725630295367325200,11.3213251953125,0.7384798526763916,0.009391053579747677,-0.5478987693786621
1725630295377278200,11.3312783203125,0.7602933645248413,0.011322574689984322,-0.6386857628822327
1725630295387232300,11.341232177734375,0.8105365633964539,0.11451766639947891,-0.6362305879592896
1725630295397185000,11.35118505859375,0.7307591438293457,0.22598251700401306,-0.6622179746627808
1725630295407138000,11.361137939453124,0.6606892347335815,0.2903098165988922,-0.7592752575874329
1725630295417091000,11.371091064453125,0.58179771900177,0.42164063453674316,-0.7227126955986023
1725630295427045000,11.381045166015625,0.49905169010162354,0.5319871306419373,-0.5921208262443542
1725630295436998100,11.390998046875,0.46624305844306946,0.5320205092430115,-0.5079876184463501
1725630295446951200,11.400951171875,0.4497394561767578,0.5540453791618347,-0.49338898062705994
1725630295456904200,11.410904296875,0.4337274432182312,0.6699629426002502,-0.40152376890182495
1725630295466857200,11.420857177734375,0.37580928206443787,0.707410991191864,-0.33679670095443726
1725630295476811300,11.430811279296876,0.3334465026855469,0.8061405420303345,-0.18831351399421692
1725630295486764300,11.440764404296875,0.3331487774848938,0.7865316867828369,-0.13549396395683289
1725630295496717300,11.45071728515625,0.37841901183128357,0.47452205419540405,-0.3272594213485718
1725630295506670300,11.46067041015625,0.45510074496269226,0.20120824873447418,-0.45298752188682556
1725630295516624100,11.4706240234375,0.4216037690639496,0.12792249023914337,-0.23705245554447174
1725630295526577200,11.4805771484375,0.34027349948883057,0.20079296827316284,0.03660652041435242
1725630295536530200,11.4905302734375,0.31374281644821167,0.15702125430107117,0.09277844429016113
1725630295546483200,11.500483154296875,0.23586666584014893,0.08502242714166641,0.026105143129825592
1725630295556437200,11.510437255859374,0.14799459278583527,0.10243275761604309,-0.022044328972697258
1725630295566390300,11.520390380859375,0.035089340060949326,0.1620742380619049,-0.042363978922367096
1725630295576343300,11.53034326171875,-0.06016818434000015,0.29774758219718933,-0.017189281061291695
1725630295586296300,11.54029638671875,-0.0514303520321846,0.16368697583675385,0.03622946888208389
1725630295596250400,11.55025048828125,-0.04033096879720688,0.24455900490283966,0.07920007407665253
1725630295606203400,11.560203369140625,0.03541092947125435,0.20590534806251526,0.128944993019104
1725630295616156200,11.57015625,0.1272854059934616,0.09181218594312668,0.11988858878612518
1725630295626109200,11.580109130859375,0.2208331972360611,-0.12369746714830399,0.07098177075386047
1725630295636063000,11.59006298828125,0.2981395721435547,-0.21693925559520721,0.05717133358120918
1725630295646016000,11.60001611328125,0.2688780725002289,-0.20825254917144775,0.12665480375289917
1725630295655969000,11.609968994140624,0.23467718064785004,-0.1270991712808609,0.2858356833457947
1725630295665922000,11.619922119140625,0.2209182232618332,-0.1028851792216301,0.4140647351741791
1725630295675876000,11.6298759765625,0.20997574925422668,-0.19995103776454926,0.36978280544281006
1725630295685829000,11.6398291015625,0.20224565267562866,-0.28968626260757446,0.24433593451976776
1725630295695782100,11.6497822265625,0.22133579850196838,-0.34328311681747437,0.18595534563064575
1725630295705735200,11.659735107421875,0.21479001641273499,-0.2996472120285034,0.08536189049482346
1725630295715689200,11.669689208984375,0.2194732129573822,-0.16698171198368073,0.08295802026987076
1725630295725642200,11.679642333984376,0.13199582695960999,-0.04507816955447197,0.13668516278266907
1725630295735595300,11.68959521484375,0.02098313719034195,0.03739798814058304,0.20138652622699738
1725630295745548300,11.69954833984375,-0.05434064567089081,0.05467284843325615,0.26689818501472473
1725630295755502300,11.70950244140625,-0.10136213153600693,0.017483431845903397,0.3637075126171112
1725630295765455400,11.719455322265626,-0.14355327188968658,-0.06285348534584045,0.3638523817062378
1725630295775408400,11.729408447265625,-0.19896666705608368,-0.16310793161392212,0.28966179490089417
1725630295785361400,11.739361328125,-0.2250501960515976,-0.24112097918987274,0.20361827313899994
1725630295795315200,11.749315185546875,-0.2544265389442444,-0.3478544056415558,0.06408683955669403
1725630295805268200,11.759268310546876,-0.2606620490550995,-0.3891325891017914,-0.02057265117764473
1725630295815221200,11.76922119140625,-0.26007336378097534,-0.3962480425834656,-0.049071792513132095
1725630295825174000,11.779174072265626,-0.2599061131477356,-0.38977310061454773,-0.05194907262921333
1725630295835128300,11.78912841796875,-0.24568207561969757,-0.35018599033355713,-0.04047620669007301
1725630295845081000,11.7990810546875,-0.1958567351102829,-0.40276530385017395,-0.051863618195056915
1725630295855034000,11.8090341796875,-0.12001175433397293,-0.5039365887641907,-0.05891641601920128
1725630295864987100,11.818987060546876,-0.11950148642063141,-0.5649170875549316,-0.07732950896024704
1725630295874941200,11.828941162109375,-0.13114890456199646,-0.4667495787143707,-0.09120960533618927
1725630295884894200,11.838894287109374,-0.18819089233875275,-0.4129369556903839,-0.021121064200997353
1725630295894847200,11.84884716796875,-0.21405541896820068,-0.2711178958415985,0.1119171604514122
1725630295904800300,11.85880029296875,-0.2175164669752121,-0.23125489056110382,0.16131135821342468
1725630295914754000,11.868754150390625,-0.21083544194698334,-0.19965264201164246,0.16616035997867584
1725630295924707000,11.87870703125,-0.20745882391929626,-0.14371028542518616,0.14622792601585388
1725630295934660000,11.88866015625,-0.1773701161146164,-0.1783752590417862,0.041655465960502625
1725630295944613000,11.898613037109374,-0.1548996865749359,-0.2819344103336334,-0.09301366657018661
1725630295954566100,11.908566162109375,-0.17941249907016754,-0.31776055693626404,-0.18063245713710785
1725630295964520200,11.918520263671875,-0.22649025917053223,-0.13339926302433014,-0.10720378905534744
1725630295974473200,11.92847314453125,-0.23737171292304993,0.006121374201029539,-0.0045556616969406605
1725630295984426200,11.93842626953125,-0.23310771584510803,-0.01470987219363451,0.003933963365852833
1725630295994379300,11.948379150390625,-0.24593444168567657,0.023293793201446533,-0.03542198985815048
1725630296004333300,11.958333251953125,-0.26105400919914246,-0.04086574912071228,-0.04761367291212082
1725630296014286300,11.968286376953126,-0.3067174255847931,-0.13843593001365662,-0.08005035668611526
1725630296024239400,11.9782392578125,-0.3926784098148346,-0.09931356459856033,-0.02333195134997368
1725630296034192100,11.988192138671875,-0.5058828592300415,0.05572447180747986,0.11646124720573425
1725630296044146200,11.998146240234375,-0.58818519115448,0.1009444072842598,0.11062413454055786
1725630296054099200,12.00809912109375,-0.6079983115196228,0.1803298145532608,0.18098914623260498
1725630296064052200,12.01805224609375,-0.6095637679100037,0.2877015173435211,0.32185253500938416
1725630296074005200,12.028005126953126,-0.628485918045044,0.2413708120584488,0.3311172425746918
1725630296083959300,12.037959228515625,-0.6730754971504211,0.2690778076648712,0.3387743830680847
1725630296093912300,12.047912353515626,-0.6925445199012756,0.22971981763839722,0.33376720547676086
1725630296103865300,12.057865234375,-0.7119415998458862,0.20305012166500092,0.2606477439403534
1725630296113818400,12.067818359375,-0.7020794153213501,0.14716945588588715,0.22026659548282623
1725630296123772400,12.0777724609375,-0.7188850045204163,0.31385350227355957,0.3878153860569
1725630296133725400,12.087725341796874,-0.7608429789543152,0.49896299839019775,0.47318458557128906
1725630296143678500,12.097678466796875,-0.7777782678604126,0.43204495310783386,0.382779598236084
1725630296153631200,12.10763134765625,-0.7653717398643494,0.39188292622566223,0.397081583738327
1725630296163585500,12.11758544921875,-0.7187475562095642,0.32141780853271484,0.36483603715896606
1725630296173538300,12.127538330078124,-0.6788408160209656,0.30010417103767395,0.3499802350997925
1725630296183491300,12.1374912109375,-0.6690393090248108,0.4763164818286896,0.5066012740135193
1725630296193444400,12.1474443359375,-0.6573693752288818,0.603382408618927,0.6299170255661011
1725630296203398100,12.157398193359375,-0.6422399878501892,0.6269980072975159,0.6892759203910828
1725630296213351200,12.16735107421875,-0.6291536092758179,0.6536393165588379,0.7320988178253174
1725630296223304200,12.17730419921875,-0.5939095616340637,0.6754772663116455,0.7507308125495911
1725630296233257200,12.18725732421875,-0.5611705780029297,0.5921705961227417,0.7051518559455872
1725630296243211300,12.197211181640625,-0.5084389448165894,0.4313103258609772,0.5837910771369934
1725630296253164300,12.207164306640625,-0.47679802775382996,0.2542862594127655,0.49131426215171814
1725630296263117300,12.217117431640625,-0.43999314308166504,0.14029231667518616,0.41311877965927124
1725630296273070300,12.2270703125,-0.45872798562049866,0.250705748796463,0.4881933927536011
1725630296283024400,12.2370244140625,-0.4452510476112366,0.24203823506832123,0.5420853495597839
1725630296292977400,12.246977294921875,-0.4128032624721527,0.07407695800065994,0.42450201511383057
1725630296302930400,12.256930419921876,-0.3942998945713043,0.09932079166173935,0.4273766279220581
1725630296312883500,12.266883544921875,-0.3292338252067566,0.09241817146539688,0.38356471061706543
1725630296322837200,12.276837158203126,-0.30403608083724976,-0.07816927880048752,0.3172341585159302
1725630296332790300,12.286790283203125,-0.28627505898475647,-0.045569781213998795,0.3008878529071808
1725630296342743300,12.296743408203126,-0.2670536935329437,-0.037800807505846024,0.23793713748455048
