time,seconds_elapsed,z,y,x
1725891371984590800,0.0395908203125,0,0,0
1725891372003439600,0.058439697265625,1.2682533264160156,-0.7861762046813965,0.771847128868103
1725891372022288600,0.07728857421875,1.0186901092529297,-1.8343191146850586,1.012192726135254
1725891372041137400,0.096137451171875,0.08183860778808594,-0.9595375061035156,1.4536356925964355
1725891372059986400,0.114986328125,-0.01904296875,-0.5633656978607178,1.496034860610962
1725891372078835200,0.133835205078125,-0.5873823165893555,-0.08675599098205566,0.9762108325958252
1725891372097684000,0.15268408203125,-1.5642590522766113,-0.527883768081665,0.7942168712615967
1725891372116533000,0.171532958984375,-1.4182052612304688,0.37662649154663086,-0.2498464584350586
1725891372135381800,0.1903818359375,-1.100346565246582,0.6375505924224854,-0.7232427597045898
1725891372154230800,0.209230712890625,-0.2818593978881836,-0.29080915451049805,0.11837553977966309
1725891372173079600,0.22807958984375,0.09963035583496094,0.09179306030273438,-0.1343367099761963
1725891372191928300,0.24692822265625,0.10077190399169922,-0.698871374130249,0.13556241989135742
1725891372210777300,0.26577734375,-0.5222043991088867,-0.7155611515045166,-0.28530335426330566
1725891372229626400,0.28462646484375,-0.22029590606689453,-0.5237514972686768,-0.6937816143035889
1725891372248475100,0.30347509765625,-0.12857913970947266,-0.6598255634307861,-0.7833824157714844
1725891372267324000,0.322323974609375,-0.10646533966064453,-1.4188272953033447,-0.14576148986816406
1725891372286173000,0.3411728515625,0.01919841766357422,-1.578850269317627,0.5342304706573486
1725891372305021700,0.360021728515625,0.5105838775634766,-2.110975503921509,0.9996142387390137
1725891372323870700,0.37887060546875,1.162269115447998,-3.2010560035705566,1.6073527336120605
1725891372342719500,0.397719482421875,0.5311965942382812,-3.6326537132263184,1.2750582695007324
1725891372361568500,0.416568603515625,0.8677458763122559,-0.8378682136535645,-1.2111830711364746
1725891372380417300,0.435417236328125,-0.2276921272277832,-0.5613572597503662,-2.5252177715301514
1725891372399266000,0.45426611328125,-0.7629022598266602,-1.5096917152404785,-3.0227956771850586
1725891372418115000,0.473114990234375,-0.4619779586791992,-0.5158793926239014,-3.704922676086426
1725891372436963800,0.4919638671875,1.0684409141540527,1.0308945178985596,-3.7763795852661133
1725891372455812900,0.510812744140625,2.7951135635375977,-1.1080894470214844,-1.4578137397766113
1725891372474661600,0.52966162109375,1.5688366889953613,-1.0567148923873901,-1.0667424201965332
1725891372493510400,0.548510498046875,1.4627423286437988,-0.4253042936325073,0.28731870651245117
1725891372512359400,0.567359375,0.3818788528442383,0.2777911424636841,1.1972227096557617
1725891372531208400,0.58620849609375,-0.527606725692749,0.47881370782852173,1.9141368865966797
1725891372550057200,0.60505712890625,-0.8899314403533936,1.8864834308624268,1.3690071105957031
1725891372568906000,0.623906005859375,-0.3837618827819824,4.10024356842041,1.6111164093017578
1725891372587755000,0.642755126953125,0.24166035652160645,5.722446441650391,0.9594631195068359
1725891372606603800,0.661603759765625,-0.7374777793884277,4.3338446617126465,2.3767290115356445
1725891372625452800,0.680452880859375,-1.1471776962280273,2.960944414138794,3.1992263793945312
1725891372644301600,0.699301513671875,0.3448035717010498,3.5213875770568848,6.370108604431152
1725891372663150300,0.718150390625,-1.549336552619934,2.6518025398254395,10.9354248046875
1725891372681999400,0.736999267578125,-2.413766384124756,-1.1781030893325806,12.423261642456055
1725891372700848000,0.75584814453125,-3.834712505340576,-2.9023821353912354,9.232666969299316
1725891372719697200,0.774697265625,-5.571654319763184,-1.283606767654419,1.745565414428711
1725891372738546000,0.7935458984375,-0.6498830318450928,3.431075096130371,-4.136959075927734
1725891372757394700,0.812394775390625,6.250288009643555,8.152212142944336,-4.737798690795898
1725891372776243700,0.83124365234375,-0.4998400807380676,3.551853656768799,-5.164438247680664
1725891372795092500,0.850092529296875,-0.9234417080879211,1.243739366531372,-3.837636947631836
1725891372813941500,0.86894140625,1.7808842658996582,-0.7024569511413574,-2.253960609436035
1725891372832790300,0.887790283203125,-0.6133401989936829,-3.284775495529175,-1.5198612213134766
1725891372851639300,0.906639404296875,-2.5781869888305664,-1.868573784828186,-1.847008228302002
1725891372870488000,0.925488037109375,-0.9114645719528198,1.7038440704345703,-2.341305732727051
1725891372889337000,0.944337158203125,-1.6079374551773071,0.06751823425292969,-0.33033180236816406
1725891372908185900,0.963185791015625,-1.918731451034546,1.7131977081298828,0.5573091506958008
1725891372927034600,0.98203466796875,-1.1241601705551147,1.523019552230835,0.5756349563598633
1725891372945883600,1.000883544921875,-1.4082874059677124,-1.5948047637939453,4.412093162536621
1725891372964732400,1.019732421875,-2.250542640686035,-1.080021619796753,0.9279489517211914
1725891372983581400,1.03858154296875,-1.0982660055160522,-0.4129605293273926,0.369873046875
1725891373002430200,1.05743017578125,0.10210466384887695,-0.7957773208618164,-0.21512889862060547
1725891373021279000,1.076279052734375,0.97068190574646,-0.18413662910461426,0.3324136734008789
1725891373040128000,1.0951279296875,-0.06457781791687012,-0.3316779136657715,0.7379541397094727
1725891373058976800,1.113976806640625,0.4692723751068115,-1.3014910221099854,1.1416635513305664
1725891373077825800,1.13282568359375,2.2549808025360107,-0.2040870189666748,0.4713277816772461
1725891373096674600,1.151674560546875,1.4181597232818604,0.2208116054534912,0.04805469512939453
1725891373115523600,1.170523681640625,0.5376260280609131,-1.5558390617370605,0.9615840911865234
1725891373134372400,1.189372314453125,1.0541110038757324,-0.6609044075012207,1.074625015258789
1725891373153221400,1.208221435546875,0.0992128849029541,-0.18865704536437988,1.086348533630371
1725891373172070100,1.227070068359375,0.13310742378234863,0.6588931083679199,1.0214052200317383
1725891373190919200,1.245919189453125,0.35663652420043945,-1.385484218597412,1.7648601531982422
1725891373209768000,1.264767822265625,1.6665327548980713,-0.864630937576294,1.6489648818969727
1725891373228616700,1.28361669921875,0.6979296207427979,0.08965253829956055,0.2958078384399414
1725891373247465700,1.3024658203125,0.8163421154022217,2.2652170658111572,-1.6675243377685547
1725891373266314500,1.321314453125,0.7586777210235596,4.271121978759766,-6.380484580993652
1725891373285163500,1.34016357421875,0.755955696105957,3.896937131881714,-5.18804931640625
1725891373304012300,1.35901220703125,-2.7424871921539307,1.7101671695709229,-4.385623455047607
1725891373322861000,1.377861083984375,-3.030909538269043,0.9662575721740723,-3.006035804748535
1725891373341710000,1.3967099609375,-0.321300745010376,1.5016978979110718,-0.43927764892578125
1725891373360558800,1.415558837890625,-1.5193092823028564,0.5806772708892822,-0.4841156005859375
1725891373379408000,1.434407958984375,1.2542855739593506,-3.3419408798217773,0.9305152893066406
1725891373398256600,1.453256591796875,0.5029380321502686,-3.0196292400360107,1.0555248260498047
1725891373417105700,1.472105712890625,-0.03740715980529785,-3.1962380409240723,1.5164947509765625
1725891373435954400,1.490954345703125,0.7392992973327637,-2.9087815284729004,1.1375665664672852
1725891373454803500,1.509803466796875,0.7794375419616699,-2.3700828552246094,0.08139324188232422
1725891373473652200,1.52865234375,1.780405044555664,-2.671541213989258,0.3248157501220703
1725891373492501200,1.547501220703125,3.2085461616516113,-1.401054859161377,0.5833816528320312
1725891373511350000,1.56635009765625,3.2975986003875732,-2.375898838043213,0.09357643127441406
1725891373530198800,1.58519873046875,-0.0003038644790649414,-1.5121417045593262,-0.27994251251220703
1725891373549047800,1.6040478515625,-2.4052767753601074,0.264223575592041,-3.9564285278320312
1725891373567896600,1.622896484375,-2.163829803466797,1.6744251251220703,-7.775454044342041
1725891373586745600,1.64174560546875,-1.034170389175415,1.2681069374084473,-4.076492786407471
1725891373605594400,1.660594482421875,-0.5746272206306458,4.3065948486328125,1.9101910591125488
1725891373624443100,1.679443115234375,-2.133547067642212,4.237975120544434,6.266722202301025
1725891373643292200,1.698292236328125,-0.9258555173873901,4.12325382232666,5.732847690582275
1725891373662141000,1.717140869140625,-1.3666095733642578,1.6549148559570312,4.908553123474121
1725891373680990000,1.735989990234375,-4.024502277374268,0.004312038421630859,2.718832015991211
1725891373699839000,1.7548388671875,-2.0657100677490234,0.5412659645080566,-0.4685540199279785
1725891373718687700,1.773687744140625,1.4977078437805176,1.113379955291748,0.5964756011962891
1725891373737536500,1.79253662109375,3.52811336517334,-1.5531797409057617,-0.45198631286621094
1725891373756385500,1.811385498046875,1.2436003684997559,-2.0897445678710938,-3.3910484313964844
1725891373775234300,1.830234375,-0.16722440719604492,-3.9389472007751465,-5.916998386383057
1725891373794083300,1.849083251953125,-2.0107665061950684,-2.9147582054138184,-3.614406108856201
1725891373812932000,1.86793212890625,-1.6614563465118408,-2.560384750366211,-1.1894302368164062
1725891373831781000,1.886781005859375,-2.111496925354004,-4.323680400848389,1.2188310623168945
1725891373850630000,1.9056298828125,-1.5960946083068848,-4.7037458419799805,1.2385234832763672
1725891373869479000,1.92447900390625,-0.5372035503387451,-2.093756675720215,1.825577735900879
1725891373888327700,1.94332763671875,-0.4132668972015381,0.8161077499389648,1.5148096084594727
1725891373907176400,1.962176513671875,1.3929725885391235,0.42397594451904297,0.48155736923217773
1725891373926025500,1.981025390625,1.038982629776001,0.8317794799804688,-0.4984474182128906
1725891373944874500,1.99987451171875,-0.3310859203338623,0.43845367431640625,0.2695307731628418
1725891373963723300,2.01872314453125,-0.17710614204406738,0.5014200210571289,-0.5880889892578125
1725891373982572300,2.037572265625,-0.09684157371520996,0.5463461875915527,-0.781796932220459
1725891374001421000,2.056421142578125,-1.0609354972839355,0.5179524421691895,-2.5877792835235596
1725891374020269800,2.075269775390625,-1.1838455200195312,0.30609130859375,-2.538318395614624
1725891374039118800,2.094118896484375,1.3467566967010498,-0.0784454345703125,-1.1160459518432617
1725891374057967600,2.112967529296875,-0.5709290504455566,12.962604522705078,0.42705774307250977
1725891374076816600,2.131816650390625,-0.6483030319213867,13.306366920471191,-2.12601375579834
1725891374095665400,2.15066552734375,1.1104698181152344,1.9100985527038574,-1.448598861694336
1725891374114514400,2.169514404296875,0.6633074283599854,-1.0183568000793457,-5.467128276824951
1725891374133363500,2.188363525390625,2.226606607437134,-1.6718440055847168,-2.912391185760498
1725891374152212200,2.207212158203125,0.7731058597564697,-5.692422389984131,0.7287602424621582
1725891374171061200,2.226061279296875,-2.4245901107788086,-3.073314666748047,-1.4634809494018555
1725891374189910000,2.244909912109375,-0.357313871383667,-0.24336910247802734,-1.066403865814209
1725891374208758800,2.2637587890625,-3.8193154335021973,-4.200361251831055,-0.10452938079833984
1725891374227607800,2.28260791015625,-0.40370988845825195,0.21117305755615234,0.425295352935791
1725891374246456600,2.30145654296875,0.6463941335678101,1.984842300415039,-0.830538272857666
1725891374265305600,2.3203056640625,0.25545167922973633,3.1575751304626465,-3.318854331970215
1725891374284154400,2.339154296875,-1.2682976722717285,5.837824821472168,-6.133095741271973
1725891374303003400,2.35800341796875,1.2257394790649414,5.497132301330566,-5.889324188232422
1725891374321852400,2.376852294921875,2.387478828430176,4.061994552612305,-3.747133255004883
1725891374340701200,2.395701171875,3.7742202281951904,-3.0944948196411133,-2.03414249420166
1725891374359550200,2.41455029296875,2.399721622467041,-14.589895248413086,0.017238259315490723
1725891374378399000,2.43339892578125,2.83514404296875,-20.703826904296875,5.903319835662842
1725891374397248000,2.452248046875,-3.584052085876465,-15.851579666137695,4.114554405212402
1725891374416096800,2.4710966796875,-4.731672286987305,-9.626688957214355,-0.39838671684265137
1725891374434945800,2.48994580078125,-1.4202666282653809,0.8880739212036133,-2.6129181385040283
1725891374453794600,2.508794677734375,0.03604899346828461,5.725752353668213,-1.52149498462677
1725891374472643600,2.5276435546875,3.1912312507629395,10.76581859588623,0.3757157325744629
1725891374491492400,2.546492431640625,2.9809720516204834,2.968935012817383,1.5620629787445068
1725891374510341400,2.56534130859375,0.8156527280807495,-1.3969078063964844,1.0742005109786987
1725891374529190100,2.584190185546875,-0.29249048233032227,-2.901235580444336,0.3831503391265869
1725891374548039200,2.6030390625,-1.2171438932418823,-1.9470949172973633,-0.17624402046203613
1725891374566888000,2.621887939453125,-1.5806090831756592,-0.2733345031738281,-0.7299308180809021
1725891374585737000,2.640737060546875,-0.9074347019195557,0.9778366088867188,-0.9527825117111206
1725891374604586000,2.6595859375,-0.2150130271911621,1.6359796524047852,-0.6176724433898926
1725891374623434800,2.678434814453125,-0.5140950679779053,2.1195454597473145,0.3505605459213257
1725891374642283800,2.69728369140625,-0.5293106436729431,1.5954227447509766,2.232527256011963
1725891374661132500,2.716132568359375,-0.46983909606933594,0.7772035598754883,2.891932964324951
1725891374679981600,2.734981689453125,-0.39082032442092896,0.138275146484375,1.8407304286956787
1725891374698830300,2.753830322265625,-0.980289876461029,-0.05807209014892578,0.3312145471572876
1725891374717679400,2.772679443359375,-1.2611095905303955,-0.008868217468261719,-0.12280464172363281
1725891374736528400,2.7915283203125,-1.3384110927581787,0.12873458862304688,-0.4224677085876465
1725891374755377200,2.810377197265625,-1.6739083528518677,0.04509735107421875,-0.6028507947921753
1725891374774226200,2.82922607421875,-1.280264973640442,0.18548965454101562,-0.3676713705062866
1725891374793075000,2.848074951171875,-0.4580770432949066,0.14659786224365234,0.05598902702331543
1725891374811924000,2.866924072265625,0.05491536855697632,0.22877883911132812,0.38605618476867676
1725891374830772700,2.885772705078125,0.6966211795806885,0.7223825454711914,0.67572021484375
1725891374849621800,2.904621826171875,0.45087122917175293,0.6140766143798828,0.3525444269180298
1725891374868470800,2.923470703125,-0.16037970781326294,0.11630058288574219,-0.3963196277618408
1725891374887319600,2.942319580078125,0.7191365361213684,-0.48139381408691406,0.7593457698822021
1725891374906168600,2.96116845703125,0.9439398050308228,-0.056839942932128906,2.106128692626953
1725891374925017600,2.980017578125,0.008011102676391602,0.6644315719604492,0.8680824041366577
1725891374943866400,2.998866455078125,-0.34178268909454346,0.23926925659179688,-0.3704908490180969
1725891374962715400,3.01771533203125,-0.8844901323318481,0.1976613998413086,-0.6605129837989807
1725891374981564200,3.036564208984375,-1.0889451503753662,0.5554571151733398,0.49428790807724
1725891375000413200,3.0554130859375,-1.095283031463623,1.0392284393310547,1.1277159452438354
1725891375019262200,3.07426220703125,-1.009125828742981,0.1557025909423828,1.5930211544036865
1725891375038111000,3.093111083984375,-0.4525487422943115,-0.5703506469726562,1.5444393157958984
1725891375056960000,3.1119599609375,-0.4676438570022583,-0.06604671478271484,0.9102286100387573
1725891375075808800,3.130808837890625,-0.5726823806762695,0.3730764389038086,1.0258541107177734
1725891375094657800,3.14965771484375,-1.0172922611236572,0.42308521270751953,1.7572667598724365
1725891375113506600,3.168506591796875,-1.313002586364746,0.3341083526611328,1.7552227973937988
1725891375132355600,3.18735546875,-0.7958060503005981,0.08737373352050781,0.9532225131988525
1725891375151204600,3.20620458984375,-0.2149207592010498,-1.00531005859375,0.23871833086013794
1725891375170053400,3.225053466796875,-1.0642898082733154,-1.4099435806274414,-0.5687260627746582
1725891375188902400,3.24390234375,-2.111172676086426,-0.9900693893432617,-0.6147594451904297
1725891375207751400,3.26275146484375,-2.0537290573120117,-0.5826244354248047,0.08473211526870728
1725891375226600200,3.28160009765625,-1.5864462852478027,-0.5716047286987305,1.011953353881836
1725891375245449200,3.30044921875,-0.7352936267852783,-0.9508466720581055,1.9184879064559937
1725891375264298200,3.31929833984375,-0.9745851755142212,-2.2749881744384766,2.289902925491333
1725891375283147000,3.33814697265625,-1.1676759719848633,-3.096236228942871,2.4968976974487305
1725891375301996000,3.35699609375,-0.8640177249908447,-4.019600868225098,2.894484758377075
1725891375320844800,3.3758447265625,-1.2875444889068604,-5.237260818481445,2.582961082458496
1725891375339693800,3.39469384765625,-2.8073713779449463,-5.706521034240723,3.1388955116271973
1725891375358542800,3.41354296875,-4.25709342956543,-4.882472038269043,3.450106620788574
1725891375377391600,3.4323916015625,-4.233194351196289,-2.6912765502929688,2.583984613418579
1725891375396240600,3.45124072265625,-3.9060795307159424,-1.5592527389526367,1.5139693021774292
1725891375415089700,3.470089599609375,-3.235470771789551,-1.9996623992919922,2.923801898956299
1725891375433938400,3.4889384765625,-1.6646263599395752,-2.420278549194336,5.392880439758301
1725891375452787500,3.507787353515625,0.2095092535018921,-2.7213449478149414,5.629098892211914
1725891375471636500,3.526636474609375,1.8461787700653076,-2.333977699279785,3.42673921585083
1725891375490485200,3.5454853515625,2.8006591796875,-2.041928291320801,0.9818483591079712
1725891375509334300,3.564334228515625,3.6418211460113525,-2.6291561126708984,-0.8159857988357544
1725891375528183300,3.583183349609375,2.2946386337280273,-3.6130809783935547,-3.389727830886841
1725891375547032000,3.602031982421875,0.9886364340782166,-3.834718704223633,-6.852307319641113
1725891375565881000,3.620881103515625,1.3994156122207642,-3.289484977722168,-7.174829483032227
1725891375584730000,3.639730224609375,0.8565568923950195,-4.146572113037109,-5.63214111328125
1725891375603579000,3.658578857421875,0.8053202629089355,-5.653744697570801,-3.0491528511047363
1725891375622428000,3.677427978515625,2.084181308746338,-4.891249656677246,-1.1358299255371094
1725891375641277000,3.69627685546875,4.361164569854736,-1.4243402481079102,-0.7538657188415527
1725891375660125700,3.715125732421875,4.493256092071533,0.2113962173461914,2.256730079650879
1725891375678974700,3.733974609375,1.7432236671447754,-1.3503437042236328,3.3947746753692627
1725891375697823700,3.75282373046875,2.6754958629608154,-2.9587345123291016,2.0009751319885254
1725891375716672500,3.771672607421875,3.0752241611480713,-0.4353451728820801,-0.0466763973236084
1725891375735521500,3.790521484375,2.264911651611328,1.4571733474731445,-1.8651950359344482
1725891375754370600,3.80937060546875,2.878267765045166,1.3765363693237305,-2.5834383964538574
1725891375773219300,3.82821923828125,3.924323081970215,-0.033876895904541016,-2.4839439392089844
1725891375792068400,3.847068359375,3.6472082138061523,-1.074873924255371,-2.4094862937927246
1725891375810917400,3.86591748046875,4.030394077301025,-0.3275432586669922,-1.1162368059158325
1725891375829766100,3.88476611328125,5.289609909057617,1.034398078918457,0.3221997618675232
1725891375848615200,3.903615234375,5.0706048011779785,1.5521354675292969,1.4288039207458496
1725891375867464200,3.922464111328125,4.089391708374023,2.195338249206543,0.6942526698112488
1725891375886313200,3.941313232421875,3.8826122283935547,1.3717923164367676,-0.44559144973754883
1725891375905162000,3.960161865234375,3.764554023742676,1.336252212524414,-1.3933584690093994
1725891375924011000,3.979010986328125,3.854156494140625,1.3845529556274414,-1.6365469694137573
1725891375942859800,3.99785986328125,2.887942314147949,0.8668332099914551,-0.7372539043426514
1725891375961708800,4.016708740234375,2.208279609680176,0.41568946838378906,-0.05797088146209717
1725891375980557800,4.035557861328125,1.5955696105957031,0.03585243225097656,1.2076715230941772
1725891375999406800,4.05440673828125,1.3428025245666504,0.0644378662109375,2.020270824432373
1725891376018255600,4.073255615234375,0.7326841354370117,0.6221671104431152,1.884644865989685
1725891376037104600,4.092104736328125,0.13378334045410156,0.5113778114318848,1.3945878744125366
1725891376055953700,4.11095361328125,0.6826343536376953,0.5767941474914551,1.2090526819229126
1725891376074802700,4.129802734375,0.6726837158203125,0.7369928359985352,2.1633777618408203
1725891376093651500,4.1486513671875,0.23264026641845703,0.6345586776733398,2.664130449295044
1725891376112500500,4.16750048828125,0.2002582550048828,0.24070119857788086,1.643876552581787
1725891376131349500,4.186349609375,0.7497386932373047,-0.034221649169921875,1.2019734382629395
1725891376150198300,4.2051982421875,2.225435733795166,0.3717317581176758,1.3113880157470703
1725891376169047300,4.22404736328125,2.2071285247802734,0.904512882232666,-0.4558889865875244
1725891376187896300,4.242896240234375,0.8548927307128906,-0.7018837928771973,-2.6134467124938965
1725891376206745000,4.2617451171875,-1.006281852722168,-2.757443904876709,-4.828503608703613
1725891376225594000,4.280593994140625,-0.7179136276245117,-2.086388111114502,-5.100655555725098
1725891376244443100,4.299443115234375,0.6103167533874512,0.3208026885986328,-2.911369800567627
1725891376263292200,4.318292236328125,1.4158916473388672,2.094482898712158,0.19329333305358887
1725891376282141000,4.337140869140625,1.2294530868530273,2.734421730041504,3.317939281463623
1725891376300990000,4.355989990234375,0.25002002716064453,3.1141436100006104,5.286513328552246
1725891376319839000,4.3748388671875,-1.0134849548339844,4.016477584838867,4.673308372497559
1725891376338688000,4.39368798828125,-0.5410823822021484,4.347433567047119,2.918161630630493
1725891376357536800,4.412536865234375,0.3898582458496094,4.569514751434326,1.081207275390625
1725891376376385800,4.4313857421875,-0.6648702621459961,2.437290668487549,-0.528048038482666
1725891376395234800,4.45023486328125,-4.885387420654297,-1.4138174057006836,-4.67353630065918
1725891376414083600,4.46908349609375,-3.3418846130371094,-7.165929317474365,1.7891263961791992
1725891376432932600,4.4879326171875,-2.7386884689331055,-4.020502090454102,3.4518237113952637
1725891376451781600,4.50678173828125,-1.5834331512451172,0.9279260635375977,2.37821626663208
1725891376470630400,4.52563037109375,-0.740077018737793,-2.4948906898498535,-0.2966954708099365
1725891376489479400,4.5444794921875,-0.9819574356079102,-1.9033336639404297,0.5707910060882568
1725891376508328400,4.563328369140625,-0.5020990371704102,-1.0077528953552246,2.0270040035247803
1725891376527177500,4.582177490234375,0.22789764404296875,0.8157165050506592,1.7826250791549683
1725891376546026200,4.601026123046875,2.212590217590332,1.0841002464294434,0.8247048258781433
1725891376564875300,4.619875244140625,2.614861011505127,0.6626386642456055,0.11673879623413086
1725891376583724300,4.638724365234375,1.750154972076416,0.7611198425292969,-2.088695526123047
1725891376602573800,4.65757373046875,1.2301011085510254,0.8569059371948242,-2.9562253952026367
1725891376621422000,4.676422119140625,0.3293037414550781,-0.4399747848510742,-2.0751140117645264
1725891376640271000,4.69527099609375,0.024690628051757812,-1.037343978881836,-2.406188726425171
1725891376659120000,4.7141201171875,0.5637283325195312,-2.0358781814575195,-2.068129539489746
1725891376677969200,4.73296923828125,1.369807243347168,-1.492997169494629,-3.0487992763519287
1725891376696818000,4.75181787109375,1.648941993713379,1.1951055526733398,-2.9156649112701416
1725891376715667200,4.770667236328125,-3.4937896728515625,2.3224658966064453,1.3577203750610352
1725891376734516000,4.789515869140625,-5.391291618347168,-0.3020668029785156,4.006718635559082
1725891376753365000,4.808364990234375,-0.37285709381103516,-3.829359531402588,-1.027948021888733
1725891376772214000,4.827214111328125,0.582435131072998,-1.1922664642333984,-1.9242687225341797
1725891376791063000,4.84606298828125,1.1955184936523438,0.7552332878112793,-0.9350965023040771
1725891376809911800,4.864911865234375,2.087130069732666,1.699540138244629,-0.4159572720527649
1725891376828760800,4.8837607421875,2.4067769050598145,1.0184941291809082,-0.494101881980896
1725891376847609900,4.90260986328125,2.099331855773926,-0.11534786224365234,-0.19168448448181152
1725891376866459000,4.921458984375,1.825418472290039,1.8364741802215576,-0.5902813076972961
1725891376885307600,4.9403076171875,0.6710319519042969,0.852266788482666,2.1005406379699707
1725891376904156700,4.95915673828125,-0.5996170043945312,-1.0727782249450684,2.109290599822998
1725891376923005700,4.978005615234375,-0.5280952453613281,-2.2162466049194336,-0.06924039125442505
1725891376941854500,4.9968544921875,1.2596583366394043,-1.0141963958740234,-2.2575159072875977
1725891376960703500,5.015703369140625,2.6097564697265625,-0.009508132934570312,-1.8126654624938965
1725891376979552500,5.034552490234375,4.1817169189453125,0.7107381820678711,-0.701375424861908
1725891376998401500,5.053401611328125,4.087011814117432,1.8855104446411133,-1.0267492532730103
1725891377017250600,5.07225048828125,0.004512786865234375,7.280635833740234,-7.512355804443359
1725891377036099600,5.091099609375,-6.917538642883301,9.823737144470215,-1.8843239545822144
1725891377054948400,5.1099482421875,-7.948661804199219,0.6319394111633301,-1.9658023118972778
1725891377073797400,5.12879736328125,-4.159336090087891,-5.8152546882629395,-0.5118511915206909
1725891377092646400,5.147646484375,-2.9901857376098633,-8.193784713745117,4.317081928253174
1725891377111495400,5.166495361328125,-3.909844398498535,-5.433252811431885,2.8310935497283936
1725891377130344200,5.18534423828125,-6.961004257202148,-6.331984996795654,2.000107765197754
1725891377149193200,5.204193115234375,-3.701223373413086,-4.306778907775879,2.9107396602630615
1725891377168042200,5.223042236328125,1.7976055145263672,0.8846678733825684,2.2235403060913086
1725891377186891300,5.241891357421875,4.579899787902832,3.8731613159179688,2.5444188117980957
1725891377205740300,5.260740234375,4.528242111206055,4.712348461151123,2.741365671157837
1725891377224589000,5.279589111328125,3.6602602005004883,3.7553515434265137,2.0738563537597656
1725891377243438000,5.29843798828125,1.6399993896484375,1.373563528060913,1.0935848951339722
1725891377262287000,5.317287109375,1.1226444244384766,-1.0605101585388184,0.6612679958343506
1725891377281136000,5.33613623046875,1.083526611328125,-2.877131700515747,-0.42911091446876526
1725891377299985200,5.354985107421875,0.3885211944580078,-2.866154909133911,-0.23031708598136902
1725891377318834200,5.373834228515625,-0.14432144165039062,-1.5220038890838623,0.07791838049888611
1725891377337683000,5.392682861328125,-0.34073925018310547,-0.38713622093200684,0.7802771329879761
1725891377356532000,5.411531982421875,0.011742591857910156,0.7426211833953857,-0.04891189932823181
1725891377375381000,5.430381103515625,-0.1275949478149414,1.3537724018096924,-1.009277582168579
1725891377394230000,5.44922998046875,0.7241687774658203,1.9093008041381836,-0.03754609823226929
1725891377413078800,5.468078857421875,0.6273250579833984,1.4112849235534668,-0.277649849653244
1725891377431927800,5.486927734375,0.47556114196777344,-0.32050371170043945,0.5990369319915771
1725891377450776800,5.50577685546875,0.12848186492919922,-0.8294520378112793,0.2658766508102417
1725891377469625900,5.5246259765625,0.3510770797729492,-0.9401013851165771,0.25707244873046875
1725891377488475000,5.543474853515625,0.7392959594726562,-0.45255136489868164,-0.5177140235900879
1725891377507323600,5.56232373046875,1.0253973007202148,0.5094895362854004,-1.1405811309814453
1725891377526172700,5.581172607421875,0.8793401718139648,0.713167667388916,-0.8977025151252747
1725891377545021700,5.600021728515625,1.1375560760498047,0.9464216232299805,-0.539021372795105
1725891377563870700,5.61887060546875,1.5468568801879883,1.3283805847167969,-0.25137054920196533
1725891377582719700,5.6377197265625,1.0990400314331055,1.6603431701660156,-0.20674598217010498
1725891377601568800,5.65656884765625,0.8305282592773438,1.6980016231536865,0.12167692184448242
1725891377620417500,5.67541748046875,0.3305330276489258,1.5515484809875488,0.5694952011108398
1725891377639266600,5.6942666015625,0.676175594329834,1.198173999786377,0.4995391368865967
1725891377658115600,5.713115478515625,-0.17839622497558594,1.0169005393981934,-0.2897803783416748
1725891377676964600,5.731964599609375,0.004406929016113281,1.122222900390625,-0.7782502174377441
1725891377695813600,5.750813720703125,-0.21835994720458984,1.283757209777832,-1.4845988750457764
1725891377714662400,5.769662353515625,-0.5406675338745117,1.1726655960083008,-2.0286312103271484
1725891377733511400,5.788511474609375,0.24240636825561523,0.6792755126953125,-1.9828097820281982
1725891377752360400,5.8073603515625,-0.13555335998535156,0.30446434020996094,-2.4209036827087402
1725891377771209500,5.82620947265625,-0.2862105369567871,-0.1645669937133789,-2.2665083408355713
1725891377790058500,5.84505859375,-0.13519287109375,-0.09985876083374023,-2.0236949920654297
1725891377808907500,5.863907470703125,0.06382560729980469,0.33007240295410156,-1.3197767734527588
1725891377827756500,5.882756591796875,0.33446311950683594,0.8141865730285645,-0.9481770992279053
1725891377846605300,5.901605224609375,0.037570953369140625,1.0147676467895508,-0.32535529136657715
1725891377865454300,5.920454345703125,0.2310652732849121,0.581174373626709,0.39531874656677246
1725891377884303400,5.939303466796875,-0.07020807266235352,0.26839685440063477,0.8272597789764404
1725891377903152400,5.95815234375,-0.11579227447509766,0.22865056991577148,0.8970530033111572
1725891377922001400,5.97700146484375,-0.7065219879150391,0.14885330200195312,0.3997623920440674
1725891377940850400,5.995850341796875,-0.7513031959533691,-0.102294921875,-0.2629709243774414
1725891377959699200,6.01469921875,-1.0804252624511719,-0.4010791778564453,-0.7846457958221436
1725891377978548200,6.03354833984375,-1.5588464736938477,-1.1295480728149414,-0.7422323226928711
1725891377997397200,6.052397216796875,-2.1542820930480957,-2.010615825653076,-0.214033842086792
1725891378016246300,6.071246337890625,-2.290912628173828,-2.08050537109375,0.16576337814331055
1725891378035095300,6.09009521484375,-1.5949420928955078,-0.6874532699584961,0.5459301471710205
1725891378053944300,6.1089443359375,-0.681574821472168,0.8157815933227539,0.17603492736816406
1725891378072793300,6.12779345703125,-0.37967824935913086,1.6624078750610352,-0.00046753883361816406
1725891378091642000,6.14664208984375,-0.6144900321960449,1.2320995330810547,0.06355118751525879
1725891378110491100,6.1654912109375,-0.9209675788879395,0.0895681381225586,0.35823798179626465
1725891378129340200,6.184340087890625,-0.8179135322570801,-1.3473730087280273,0.21591997146606445
1725891378148189200,6.203189208984375,-1.0061321258544922,-2.098154067993164,-0.5791544914245605
1725891378167038200,6.2220380859375,-1.00563383102417,-1.9021635055541992,-0.7075740098953247
1725891378185887000,6.240886962890625,-1.1748652458190918,-1.6333866119384766,-0.5443859100341797
1725891378204736300,6.259736328125,-1.6705808639526367,-1.662130355834961,-0.733363151550293
1725891378223585000,6.2785849609375,-1.5946781635284424,-1.948826789855957,-0.6485381126403809
1725891378242434000,6.29743408203125,-1.4575371742248535,-1.5353612899780273,-0.7501568794250488
1725891378261283000,6.316282958984375,-0.7403910160064697,-1.0045156478881836,-0.5290281772613525
1725891378280132000,6.335132080078125,0.04334449768066406,-0.7357845306396484,-0.23582172393798828
1725891378298981000,6.353981201171875,0.4898977279663086,-0.5705194473266602,0.2974836826324463
1725891378317830000,6.372829833984375,0.31295204162597656,-0.4785432815551758,0.21061015129089355
1725891378336679000,6.391678955078125,-0.22051191329956055,-0.6921072006225586,-0.19785451889038086
1725891378355528000,6.41052783203125,-0.6446943283081055,-0.9059553146362305,-0.25708866119384766
1725891378374377000,6.429376953125,-0.8639111518859863,-0.9964990615844727,-0.4578521251678467
1725891378393226000,6.44822607421875,-0.8230886459350586,-0.7116222381591797,-0.4700186252593994
1725891378412075000,6.467074951171875,-0.6877346038818359,-0.19007110595703125,-0.697904109954834
1725891378430924000,6.485924072265625,-0.24020051956176758,0.2538003921508789,-1.2308727502822876
1725891378449772800,6.504772705078125,-0.24306249618530273,0.46099138259887695,-1.3387521505355835
1725891378468622000,6.5236220703125,-0.7202372550964355,0.1212005615234375,-1.0402686595916748
1725891378487470800,6.542470947265625,-1.190098762512207,-0.10028934478759766,-0.29462718963623047
1725891378506320000,6.56131982421875,-1.1266765594482422,-0.06860828399658203,0.4260599613189697
1725891378525169000,6.5801689453125,-0.43422698974609375,0.29091501235961914,0.8829814195632935
1725891378544018000,6.599017822265625,0.4443068504333496,0.6970095634460449,1.2316325902938843
1725891378562867000,6.617866943359375,0.6335635185241699,0.7565751075744629,1.0607233047485352
1725891378581715700,6.6367158203125,0.7309188842773438,0.5560550689697266,1.185716986656189
1725891378600565000,6.65556494140625,0.17728519439697266,0.07863235473632812,0.8494086265563965
1725891378619413800,6.674413818359375,-0.5739197731018066,-0.15375661849975586,0.6198856830596924
1725891378638262800,6.6932626953125,-1.1323761940002441,-0.3692598342895508,0.8982539176940918
1725891378657111800,6.71211181640625,-1.325244426727295,-0.46935033798217773,0.9944591522216797
1725891378675960800,6.7309609375,-0.7004890441894531,-0.17704343795776367,0.6040253639221191
1725891378694809900,6.749809814453125,-0.051679134368896484,0.09538650512695312,0.43036460876464844
1725891378713659000,6.768658935546875,0.31115007400512695,0.1633915901184082,0.4051976203918457
1725891378732508000,6.7875078125,-0.022499561309814453,0.5640888214111328,-0.17681884765625
1725891378751356700,6.806356689453125,-0.3296804428100586,0.7680110931396484,-0.2708110809326172
1725891378770205700,6.825205810546875,-0.7077360153198242,0.6681513786315918,-0.19157695770263672
1725891378789054700,6.8440546875,-0.19666147232055664,0.47291040420532227,-0.7830252647399902
1725891378807903700,6.86290380859375,0.19523191452026367,0.5785341262817383,-1.241776466369629
1725891378826752800,6.881752685546875,0.6156439781188965,0.5679655075073242,-1.2361570596694946
1725891378845601800,6.900601806640625,0.3636589050292969,0.28243017196655273,-1.0075889825820923
1725891378864450800,6.919450927734375,-0.2966799736022949,-0.29094552993774414,-0.7186300754547119
1725891378883299600,6.938299560546875,-0.1707916259765625,-0.783144474029541,-0.33557629585266113
1725891378902148900,6.95714892578125,-0.07795858383178711,-0.8530349731445312,-0.006247878074645996
1725891378920997600,6.97599755859375,-0.02108001708984375,-0.6061983108520508,-0.2330256700515747
1725891378939846700,6.9948466796875,0.27411651611328125,0.00830841064453125,-0.5587867498397827
1725891378958695700,7.01369580078125,0.2120189666748047,0.4005718231201172,-0.36025452613830566
1725891378977544700,7.032544677734375,0.7122936248779297,-0.0800318717956543,-0.4495360851287842
1725891378996393700,7.051393798828125,0.5889873504638672,-0.4487009048461914,-0.3471018671989441
1725891379015242800,7.07024267578125,0.6857681274414062,-0.6101970672607422,-0.66583651304245
1725891379034091800,7.089091796875,-0.09373855590820312,-0.6096687316894531,0.09145265817642212
1725891379052940500,7.1079404296875,-0.058193206787109375,-0.8070068359375,1.1725096702575684
1725891379071789600,7.12678955078125,2.477874755859375,0.2676365375518799,0.50199294090271
1725891379090638600,7.145638671875,2.679581642150879,1.7100470066070557,-0.6082794070243835
1725891379109487600,7.164487548828125,1.5390186309814453,1.3093059062957764,-1.1807650327682495
1725891379128336600,7.183336669921875,1.5120363235473633,1.468425989151001,-1.0535125732421875
1725891379147185700,7.202185546875,0.8891220092773438,1.5744264125823975,-0.7897399663925171
1725891379166034700,7.22103466796875,1.2864103317260742,1.5568733215332031,-0.43569475412368774
1725891379184883700,7.2398837890625,1.3212590217590332,1.216118574142456,-0.6360732316970825
1725891379203732500,7.258732421875,1.5904035568237305,0.6930675506591797,-0.8952525854110718
1725891379222581500,7.27758154296875,1.4288749694824219,0.016340255737304688,-1.0313575267791748
1725891379241430500,7.296430419921875,1.1753225326538086,-0.14294195175170898,-0.6248204708099365
1725891379260279600,7.315279541015625,0.9010472297668457,0.43111276626586914,-0.7158665657043457
1725891379279128600,7.334128662109375,1.4174437522888184,1.2999475002288818,-0.9877779483795166
1725891379297977600,7.3529775390625,1.3972854614257812,2.0927836894989014,-1.7782375812530518
1725891379316826600,7.37182666015625,0.48969268798828125,2.6769492626190186,-2.0397286415100098
1725891379335675600,7.390675537109375,0.9518823623657227,2.5544939041137695,-1.6919162273406982
1725891379354524700,7.409524658203125,0.9344182014465332,2.267592430114746,-1.7000415325164795
1725891379373373400,7.42837353515625,-0.08922719955444336,1.5352859497070312,-2.0094339847564697
1725891379392222500,7.447222412109375,0.33446359634399414,0.08644390106201172,-1.4907324314117432
1725891379411071500,7.466071533203125,0.04440736770629883,-0.7248611450195312,-1.2219033241271973
1725891379429920500,7.48492041015625,-0.08275842666625977,-0.5048251152038574,-1.027374029159546
1725891379448769500,7.50376953125,0.22211885452270508,0.10941123962402344,-0.29626893997192383
1725891379467618600,7.52261865234375,0.007480144500732422,0.48825788497924805,-0.1684863567352295
1725891379486467600,7.541467529296875,-0.06057453155517578,0.38236474990844727,-0.015553474426269531
1725891379505316400,7.56031640625,0.05289649963378906,-0.5597267150878906,0.39111924171447754
1725891379524165600,7.57916552734375,-0.6592507362365723,-2.039015293121338,0.7289879322052002
1725891379543014400,7.598014404296875,-0.9585652351379395,-2.9057579040527344,0.7001743316650391
1725891379561863400,7.616863525390625,-0.948662281036377,-2.657194137573242,0.384197473526001
1725891379580712400,7.63571240234375,-0.7523622512817383,-2.248777389526367,0.2903928756713867
1725891379599561500,7.6545615234375,-1.1407265663146973,-1.9947643280029297,0.06268548965454102
1725891379618410500,7.673410400390625,-1.3212089538574219,-1.5029430389404297,0.16197800636291504
1725891379637259500,7.692259521484375,-1.4138193130493164,-1.3137083053588867,0.22951829433441162
1725891379656108500,7.711108642578125,-1.3751230239868164,-1.5029430389404297,0.2696187496185303
1725891379674957600,7.72995751953125,-1.775749921798706,-1.8931455612182617,0.316516637802124
1725891379693806300,7.748806396484375,-1.5559494495391846,-2.3522891998291016,0.5018215179443359
1725891379712655400,7.7676552734375,-1.4842500686645508,-2.6037044525146484,0.5149550437927246
1725891379731504400,7.78650439453125,-2.482725143432617,-2.345576286315918,-0.36489880084991455
1725891379750353400,7.805353515625,-3.236107349395752,-2.507655143737793,-0.20138227939605713
1725891379769202400,7.824202392578125,-3.105008125305176,-1.9076728820800781,0.18691778182983398
1725891379788051000,7.843051025390625,-2.1286373138427734,-1.4858636856079102,0.6899046897888184
1725891379806900000,7.86189990234375,-0.20737266540527344,-0.6200075149536133,0.7396643161773682
1725891379825749000,7.8807490234375,2.023202419281006,0.1298055648803711,-0.1334526538848877
1725891379844598000,7.899597900390625,3.034773111343384,0.42812013626098633,-0.9557318687438965
1725891379863446800,7.91844677734375,3.00773286819458,0.21680259704589844,-1.5976896286010742
1725891379882296000,7.937296142578125,2.2335684299468994,-0.047139644622802734,-0.987018346786499
1725891379901144800,7.956144775390625,0.4337329864501953,-0.1848592758178711,1.0089893341064453
1725891379919994000,7.974994140625,-1.0412611961364746,-0.7070784568786621,2.682101011276245
1725891379938843000,7.9938427734375,-1.6391711235046387,-0.20190763473510742,2.576676845550537
1725891379957692000,8.01269189453125,-0.8790249824523926,0.38918304443359375,1.467372179031372
1725891379976541000,8.031541015625,0.05975055694580078,0.7669434547424316,-0.10011482238769531
1725891379995390000,8.050389892578124,0.25269508361816406,0.5745363235473633,-1.3135170936584473
1725891380014239000,8.069239013671876,0.6513433456420898,0.2598147392272949,-0.5151581764221191
1725891380033088000,8.088087890625,0.2108936309814453,0.029129981994628906,-0.5494937896728516
1725891380051937000,8.10693701171875,-0.5581130981445312,-0.2972273826599121,-0.1158137321472168
1725891380070786000,8.1257861328125,-1.3310394287109375,-0.6008143424987793,-0.01329803466796875
1725891380089634800,8.144634765625,-0.6354269981384277,-0.44418907165527344,-0.2308647632598877
1725891380108483800,8.16348388671875,0.5371856689453125,0.08048486709594727,-0.4282801151275635
1725891380127332900,8.182332763671875,0.6774563789367676,0.42145776748657227,-0.4541666507720947
1725891380146182000,8.201181884765624,0.6732397079467773,0.2121109962463379,-0.09926128387451172
1725891380165031000,8.220031005859376,0.17310762405395508,-0.7650747299194336,0.11889433860778809
1725891380183880000,8.2388798828125,-0.3193550109863281,-1.503519058227539,0.00993359088897705
1725891380202729000,8.25772900390625,0.029107093811035156,-1.6646642684936523,0.11445355415344238
1725891380221578000,8.276577880859374,0.7118501663208008,-0.9717888832092285,-0.08926475048065186
1725891380240427000,8.295427001953126,1.4558167457580566,-0.43268632888793945,0.17592835426330566
1725891380259275800,8.31427587890625,1.8453922271728516,0.1150369644165039,-0.06176936626434326
1725891380278125000,8.333125,1.221543788909912,0.46867847442626953,-0.46824097633361816
1725891380296973800,8.351973876953124,0.9515132904052734,0.08449172973632812,-0.13403528928756714
1725891380315822800,8.37082275390625,1.379084587097168,0.25707054138183594,0.5762379169464111
1725891380334672000,8.389671875,1.9369707107543945,0.42302393913269043,-0.13548702001571655
1725891380353521000,8.40852099609375,3.1894521713256836,1.5701007843017578,-1.3199721574783325
1725891380372370000,8.427369873046874,1.452016830444336,0.9435698986053467,-1.4003856182098389
1725891380391219000,8.446218994140626,0.6606359481811523,-0.01959681510925293,-1.3727329969406128
1725891380410068000,8.46506787109375,0.5631227493286133,-0.6080687046051025,-0.9415416717529297
1725891380428917000,8.4839169921875,1.5303268432617188,0.05373573303222656,-1.0302093029022217
1725891380447765800,8.502765869140624,1.7018060684204102,1.5115139484405518,-1.4852793216705322
1725891380466614800,8.52161474609375,1.8151111602783203,2.2083444595336914,-1.9298267364501953
1725891380485463800,8.5404638671875,1.7476043701171875,2.267042875289917,-2.671971082687378
1725891380504312800,8.559312744140625,2.0906167030334473,2.3174381256103516,-1.5790455341339111
1725891380523161900,8.578161865234375,2.691195487976074,1.969954490661621,-1.0368602275848389
1725891380542011000,8.597010986328126,1.3710079193115234,2.3466477394104004,-2.09116530418396
1725891380560860000,8.61585986328125,0.4761795997619629,2.7464051246643066,-1.7409074306488037
1725891380579709000,8.634708984375,1.8121142387390137,2.024939775466919,-0.9874951839447021
1725891380598558000,8.653557861328125,1.1653141975402832,1.109492301940918,-1.103163719177246
1725891380617406700,8.67240673828125,1.02490234375,-0.1173238754272461,-0.5874640941619873
1725891380636255700,8.691255859375,0.7252316474914551,-0.8869032859802246,-0.4427299499511719
1725891380655104800,8.710104736328125,0.3540186882019043,-1.1933207511901855,0.01640486717224121
1725891380673953800,8.728953857421875,-0.10889720916748047,-1.2359647750854492,0.3215627670288086
1725891380692802800,8.747802734375,-0.7183895111083984,-1.8922839164733887,0.5586702823638916
1725891380711651800,8.76665185546875,-0.34346866607666016,-2.513734817504883,0.7999880313873291
1725891380730500900,8.7855009765625,-0.043318748474121094,-2.3576526641845703,0.11418008804321289
1725891380749350000,8.804349853515625,-0.4002528190612793,-1.9457683563232422,-0.8211100101470947
1725891380768198700,8.82319873046875,-1.3290033340454102,-1.796365737915039,-0.700831413269043
1725891380787048400,8.84204833984375,-1.412614345550537,-2.259047508239746,0.4322150945663452
1725891380805896700,8.860896728515625,-1.68475341796875,-2.4254283905029297,1.4995009899139404
1725891380824746000,8.87974609375,-1.214341163635254,-2.0367660522460938,1.6916617155075073
1725891380843594800,8.8985947265625,-1.1383328437805176,-2.0320253372192383,1.571117639541626
1725891380862443800,8.91744384765625,-1.1538300514221191,-2.0425615310668945,1.5233334302902222
1725891380881292800,8.936292724609375,-1.5075178146362305,-1.9578304290771484,0.7470407485961914
1725891380900141800,8.955141845703125,-1.7457637786865234,-2.264237403869629,-0.02840256690979004
1725891380918990800,8.973990966796874,-1.9377527236938477,-2.4254493713378906,-0.2843078374862671
1725891380937839900,8.99283984375,-1.6763734817504883,-2.3282718658447266,-0.671195387840271
1725891380956689000,9.01168896484375,-0.7509031295776367,-1.9636650085449219,-0.2911982536315918
1725891380975538000,9.030537841796875,0.45937395095825195,-0.9044713973999023,-0.5499175786972046
1725891380994386700,9.04938671875,0.6950254440307617,0.7423820495605469,-0.712934136390686
1725891381013236000,9.068236083984376,0.7049989700317383,1.257166862487793,0.04506373405456543
1725891381032084700,9.087084716796875,0.33886146545410156,0.21181678771972656,0.642317533493042
1725891381050933800,9.105933837890625,0.09074020385742188,-0.4729123115539551,0.8218841552734375
1725891381069782800,9.12478271484375,-0.5366291999816895,-0.3607006072998047,1.1136023998260498
1725891381088631800,9.1436318359375,-0.5819182395935059,-0.5145511627197266,1.696537733078003
1725891381107480800,9.162480712890625,-0.334200382232666,-0.8018631935119629,2.0923590660095215
1725891381126329900,9.181329833984375,0.3860049247741699,-1.289696216583252,2.719498634338379
1725891381145179000,9.200178955078124,0.09533262252807617,-1.2854466438293457,2.4648261070251465
1725891381164028000,9.21902783203125,-0.5732173919677734,-1.0938611030578613,1.522475004196167
1725891381182877000,9.237876953125,0.013976097106933594,-0.5463247299194336,1.1627771854400635
1725891381201725700,9.2567255859375,0.46026611328125,-0.3339552879333496,0.5945717096328735
1725891381220574700,9.27557470703125,1.045525074005127,-0.6543388366699219,-0.08543825149536133
1725891381239423700,9.294423828125,1.328446865081787,-0.771181583404541,-0.17528045177459717
1725891381258272800,9.313272705078125,1.0229711532592773,-0.5636711120605469,0.20789086818695068
1725891381277121800,9.332121826171875,1.2836418151855469,-0.6416482925415039,0.6859176158905029
1725891381295970800,9.350970703125,1.7047853469848633,-0.589442253112793,0.40194594860076904
1725891381314819800,9.36981982421875,1.1412935256958008,-0.7120394706726074,0.11502707004547119
1725891381333668900,9.3886689453125,1.1278796195983887,-1.3696274757385254,0.24546432495117188
1725891381352518000,9.407517822265625,1.359562873840332,-1.8059334754943848,-0.06257647275924683
1725891381371367000,9.426366943359374,2.034971237182617,-0.8623366355895996,-0.6191877722740173
1725891381390215700,9.445215576171876,1.6816511154174805,0.20189619064331055,-1.401566743850708
1725891381409064700,9.464064697265625,1.0019865036010742,0.18081331253051758,-0.9062906503677368
1725891381427913700,9.482913818359375,1.0599193572998047,-0.24379205703735352,0.24494445323944092
1725891381446762800,9.5017626953125,1.6490478515625,-0.3005821704864502,0.14776229858398438
1725891381465611800,9.52061181640625,4.097135543823242,0.5805613994598389,-0.3098562955856323
1725891381484460800,9.539460693359375,3.6425180435180664,1.8885968923568726,-0.9924592971801758
1725891381503309800,9.558309814453125,2.4470996856689453,2.019766092300415,-1.3927743434906006
1725891381522158800,9.577158935546874,2.490605354309082,1.6439573764801025,-1.416663646697998
1725891381541007600,9.596007568359376,1.6301255226135254,2.4732792377471924,-1.8325411081314087
1725891381559857000,9.61485693359375,1.7392845153808594,1.9357800483703613,-1.4573891162872314
1725891381578705700,9.63370556640625,1.894484519958496,1.718256950378418,-1.6409199237823486
1725891381597554700,9.6525546875,1.4687352180480957,1.6230933666229248,-1.312511920928955
1725891381616403700,9.67140380859375,1.6064767837524414,1.7934119701385498,-1.3671579360961914
1725891381635252700,9.690252685546875,0.8820209503173828,2.1452746391296387,-1.6015360355377197
1725891381654101800,9.709101806640625,1.5009803771972656,1.9484646320343018,-0.8914225101470947
1725891381672950800,9.72795068359375,1.5735039710998535,1.5355520248413086,-0.8675105571746826
1725891381691799800,9.7467998046875,0.6550474166870117,1.4131073951721191,-0.6968393325805664
1725891381710648800,9.76564892578125,1.2396984100341797,0.7605414390563965,0.16579723358154297
1725891381729497900,9.784497802734375,1.328317642211914,-0.5422544479370117,0.618175745010376
1725891381748346600,9.8033466796875,0.9127383232116699,-2.1014246940612793,0.4971930980682373
1725891381767195600,9.822195556640626,-0.027870655059814453,-3.142327308654785,0.5213866233825684
1725891381786044700,9.841044677734375,-0.5821161270141602,-3.124215602874756,0.3153519630432129
1725891381804893700,9.859893798828125,-0.9508867263793945,-2.5947623252868652,0.15777504444122314
1725891381823742700,9.87874267578125,-1.29032564163208,-2.298819065093994,0.3088937997817993
1725891381842591700,9.897591796875,-1.5652899742126465,-2.035780906677246,0.5597083568572998
1725891381861440800,9.916440673828125,-1.960841178894043,-2.370884895324707,0.8252278566360474
1725891381880289800,9.935289794921875,-1.6983518600463867,-3.120419502258301,1.4906435012817383
1725891381899138600,9.954138671875,-1.4600811004638672,-3.070302963256836,1.0326958894729614
1725891381917987800,9.97298779296875,-1.485490322113037,-2.774862289428711,0.48496711254119873
1725891381936836600,9.991836669921875,-0.9651212692260742,-2.6576156616210938,0.002237558364868164
1725891381955686000,10.010685791015625,-0.8680000305175781,-1.9741592407226562,-0.20156347751617432
1725891381974534700,10.02953466796875,-1.6543540954589844,-0.09276390075683594,-6.653780937194824
1725891381993383700,10.0483837890625,0.6620607376098633,0.4102592468261719,2.7125802040100098
1725891382012232700,10.067232666015625,-4.1927571296691895,-0.510554313659668,-1.8865150213241577
1725891382031081700,10.086081787109375,0.5771965980529785,-0.566889762878418,-0.43255913257598877
1725891382049930800,10.1049306640625,0.48207902908325195,-0.8987445831298828,-1.0647385120391846
1725891382068779800,10.12377978515625,-0.1145334243774414,-0.8295135498046875,-0.8993721008300781
1725891382087628800,10.14262890625,-0.7013092041015625,-0.8283843994140625,0.4103127717971802
1725891382106477800,10.161477783203125,-1.6511039733886719,-1.3976731300354004,1.5368695259094238
1725891382125326600,10.18032666015625,-1.3217344284057617,-1.5455212593078613,2.2038230895996094
1725891382144175900,10.19917578125,-0.49701786041259766,-1.022538661956787,2.064324378967285
1725891382163024600,10.218024658203126,-0.5183801651000977,-0.14153480529785156,1.787886381149292
1725891382181873700,10.236873779296875,0.4197392463684082,-0.609097957611084,1.5963428020477295
1725891382200722700,10.25572265625,1.142651081085205,-0.7794084548950195,0.3541841506958008
1725891382219571700,10.27457177734375,1.2263927459716797,-0.7970504760742188,-0.03415942192077637
1725891382238420700,10.293420654296876,0.5378079414367676,-0.4379262924194336,-0.1713099479675293
1725891382257269800,10.312269775390625,0.48386478424072266,-0.37395143508911133,-0.18249952793121338
1725891382276118800,10.331118896484375,-0.1951465606689453,-0.7989988327026367,0.09518909454345703
1725891382294967800,10.3499677734375,0.18725252151489258,-1.7926983833312988,0.5027666091918945
1725891382313816600,10.368816650390626,0.5172152519226074,-1.8622307777404785,0.28151214122772217
1725891382332665600,10.38766552734375,0.7283587455749512,-1.1169867515563965,0.7406487464904785
1725891382351514600,10.4065146484375,1.310863971710205,-0.7856030464172363,0.11440384387969971
1725891382370363600,10.42536376953125,2.133953094482422,-0.1923513412475586,-0.5614761114120483
1725891382389212700,10.444212646484376,1.5283842086791992,0.5711193084716797,-0.7096372842788696
1725891382408061700,10.463061767578125,0.9124517440795898,0.7071888446807861,-0.44578057527542114
1725891382426910700,10.48191064453125,2.307185173034668,0.1526012420654297,-0.764850914478302
1725891382445759700,10.500759765625,3.275435447692871,0.5192227363586426,-0.8791512846946716
1725891382464608800,10.51960888671875,5.211518287658691,1.7750800848007202,-1.465063214302063
1725891382483457500,10.53845751953125,3.3191747665405273,2.158639907836914,-2.9055724143981934
1725891382502306800,10.557306884765625,2.0439348220825195,1.455657958984375,-1.5989453792572021
1725891382521155600,10.576155517578124,2.543236255645752,1.3141433000564575,-1.2478703260421753
1725891382540004600,10.595004638671876,1.3243637084960938,1.947249174118042,-1.6811481714248657
1725891382558853600,10.613853515625,1.728074073791504,1.5182311534881592,-1.1127448081970215
1725891382577702700,10.63270263671875,2.222879409790039,1.9895268678665161,-1.465940237045288
1725891382596551700,10.6515517578125,1.2734193801879883,1.6950139999389648,-1.7162319421768188
1725891382615400700,10.670400634765626,1.3394193649291992,1.7749221324920654,-1.679498314857483
1725891382634249700,10.689249755859375,1.0943498611450195,2.1844193935394287,-1.1318728923797607
1725891382653098800,10.7080986328125,1.058692455291748,2.109205722808838,-1.0313174724578857
1725891382671947500,10.726947509765624,1.709059715270996,1.7142939567565918,-0.8988931179046631
1725891382690796500,10.745796630859376,1.7337584495544434,0.8576440811157227,-1.19492769241333
1725891382709645600,10.7646455078125,1.343736171722412,0.4810357093811035,-1.2938487529754639
1725891382728494600,10.78349462890625,1.1785120964050293,-0.5712423324584961,-0.8038539886474609
1725891382747343600,10.802343505859374,0.5860652923583984,-1.9156250953674316,-0.4008815288543701
1725891382766192600,10.821192626953126,-0.7080144882202148,-2.931579113006592,0.16633319854736328
1725891382785041700,10.840041748046875,-1.1247401237487793,-3.482511043548584,0.836307168006897
1725891382803890700,10.858890625,-1.5899591445922852,-3.5220112800598145,0.5944777727127075
1725891382822739700,10.87773974609375,-2.086866855621338,-2.9992265701293945,-0.14612352848052979
1725891382841588500,10.89658837890625,-3.038120746612549,-3.0795469284057617,0.10523593425750732
1725891382860437800,10.915437744140625,-2.819704055786133,-4.3998918533325195,1.5418046712875366
1725891382879286500,10.93428662109375,-1.871500015258789,-5.161474227905273,1.8061559200286865
1725891382898135600,10.953135498046874,-1.6117525100708008,-3.0725231170654297,0.9626574516296387
1725891382916984600,10.971984619140626,-0.7889094352722168,-0.23877811431884766,0.5561700463294983
1725891382935833600,10.99083349609375,-0.46604347229003906,0.6381072998046875,0.5173119902610779
1725891382954682600,11.0096826171875,-0.6322307586669922,0.608607292175293,-0.6276779174804688
1725891382973531600,11.02853173828125,0.060758113861083984,-0.41437721252441406,-0.31138986349105835
1725891382992380700,11.047380615234376,-0.4148063659667969,-1.0552453994750977,-0.005163908004760742
1725891383011229700,11.066229736328125,-0.7458043098449707,-0.9428529739379883,-1.0657014846801758
1725891383030078500,11.085078369140625,-0.9390535354614258,-1.3007526397705078,-0.3693046569824219
1725891383048927500,11.103927490234375,-0.8594985008239746,-1.5732526779174805,-0.21828293800354004
1725891383067776500,11.122776611328124,-1.4398856163024902,-1.295867919921875,-0.46776509284973145
1725891383086625500,11.14162548828125,-1.2291336059570312,-1.0984811782836914,0.22415542602539062
1725891383105474600,11.160474609375,-0.7065262794494629,-1.4282855987548828,1.1382819414138794
1725891383124323600,11.179323486328125,-0.6396498680114746,-1.9607505798339844,1.1919540166854858
1725891383143172600,11.198172607421874,0.11435461044311523,-2.1491122245788574,1.4457783699035645
1725891383162021600,11.217021728515626,0.3147273063659668,-1.8102989196777344,1.3225440979003906
1725891383180870700,11.23587060546875,0.38671207427978516,-1.2644391059875488,0.8741683959960938
1725891383199719400,11.254719482421875,0.45422983169555664,-1.0137825012207031,0.3067903518676758
1725891383218568400,11.273568359375,0.06742286682128906,-1.027238368988037,-0.2450575828552246
1725891383237417500,11.29241748046875,0.21553325653076172,-1.226240634918213,-0.3506537675857544
1725891383256266500,11.3112666015625,1.2302985191345215,-1.1411972045898438,-0.5055441856384277
1725891383275115500,11.330115478515625,1.0363588333129883,-0.6033415794372559,-0.33691298961639404
1725891383293964500,11.348964599609374,0.7137060165405273,-0.1500697135925293,0.03666055202484131
1725891383312813600,11.3678134765625,0.668759822845459,-0.04137849807739258,-0.07726800441741943
1725891383331662600,11.38666259765625,0.24540042877197266,-0.5371651649475098,-0.02920699119567871
1725891383350511600,11.40551171875,1.3649520874023438,-1.1926531791687012,0.4977349042892456
1725891383369360600,11.424360595703124,2.7050180435180664,-0.5757029056549072,0.46935153007507324
1725891383388209400,11.44320947265625,3.9043636322021484,1.7962634563446045,-1.0576059818267822
1725891383407058400,11.462058349609375,4.689212799072266,3.1033332347869873,-1.4397895336151123
1725891383425907500,11.480907470703125,3.3311100006103516,2.62899112701416,-1.3475311994552612
1725891383444756500,11.499756591796874,3.0504837036132812,2.3909971714019775,-2.127688407897949
1725891383463605500,11.51860546875,3.1337146759033203,2.2892367839813232,-1.789468765258789
1725891383482454500,11.53745458984375,3.4187707901000977,2.4721426963806152,-1.6150294542312622
1725891383501303600,11.556303466796875,3.4453086853027344,2.43422269821167,-1.255092978477478
1725891383520152300,11.57515234375,2.4856486320495605,2.209122657775879,-2.061279535293579
1725891383539001600,11.594001708984376,1.3765077590942383,1.6051039695739746,-2.0936827659606934
1725891383557850400,11.612850341796875,2.983366012573242,1.8531379699707031,-0.5923998355865479
1725891383576699400,11.631699462890625,2.617431640625,2.027263641357422,-0.6350288391113281
1725891383595548400,11.65054833984375,-0.03335857391357422,1.654686450958252,-1.9127839803695679
1725891383614397400,11.6693974609375,1.0796046257019043,0.9636049270629883,-0.9094510078430176
1725891383633246500,11.68824658203125,2.882789134979248,-0.33985280990600586,-0.31732845306396484
1725891383652095500,11.707095458984375,0.9284296035766602,-0.7891569137573242,-0.28799986839294434
1725891383670944500,11.725944580078124,0.7512569427490234,-2.2058653831481934,0.2501072883605957
1725891383689793300,11.744793212890626,0.6868910789489746,-3.8604893684387207,0.7372879981994629
1725891383708642300,11.763642333984375,-0.7328815460205078,-4.5958251953125,0.92134690284729
1725891383727491300,11.7824912109375,-3.14401912689209,-4.600009918212891,0.8025717735290527
1725891383746340400,11.80134033203125,-4.973503112792969,-4.314068794250488,0.4212402105331421
1725891383765189400,11.820189453125,-4.279218673706055,-5.128949165344238,1.2331726551055908
1725891383784038400,11.839038330078125,-2.036868095397949,-4.121817588806152,-0.4092456102371216
1725891383802887400,11.857887451171875,-0.7653546333312988,0.030015945434570312,-1.1520347595214844
1725891383821736400,11.876736328125,-0.9759674072265625,0.8252658843994141,-0.6172242164611816
1725891383840585500,11.89558544921875,-1.1066341400146484,-2.0522546768188477,-0.5363527536392212
1725891383859434200,11.914434326171875,-0.9698691368103027,-3.526927947998047,-0.6016238927841187
1725891383878283300,11.933283203125,-1.7279119491577148,-1.7613506317138672,-0.18045341968536377
1725891383897132300,11.95213232421875,-2.030573844909668,-1.336721420288086,-0.0203779935836792
1725891383915981300,11.970981201171876,-1.2599835395812988,-1.7336692810058594,-0.5007127523422241
1725891383934830300,11.989830322265625,-0.4150047302246094,-1.3600349426269531,-0.6556462049484253
1725891383953679400,12.008679443359375,-0.7660126686096191,-0.5705194473266602,-0.5582089424133301
1725891383972528400,12.0275283203125,-0.8677568435668945,-0.6867160797119141,-0.93092942237854
1725891383991377400,12.04637744140625,-0.3027682304382324,-0.8325862884521484,-1.6469602584838867
1725891384010226200,12.06522607421875,0.4823784828186035,-1.2171554565429688,-1.1570128202438354
1725891384029075500,12.084075439453125,0.0250244140625,-1.7057256698608398,-0.28899192810058594
1725891384047924200,12.10292431640625,-0.6195883750915527,-1.7299938201904297,-0.4077644348144531
1725891384066773200,12.121773193359376,-0.5851292610168457,-2.134324550628662,-0.40073370933532715
1725891384085622300,12.140622314453125,-0.8560614585876465,-2.6551923751831055,-0.7097978591918945
1725891384104471300,12.15947119140625,-0.5276179313659668,-2.2846035957336426,-3.7816412448883057
1725891384123320300,12.1783203125,1.0574302673339844,-1.1925578117370605,-2.0492825508117676
1725891384142169300,12.19716943359375,-0.7917890548706055,-2.5012660026550293,1.27852463722229
1725891384161018400,12.216018310546875,-1.5503435134887695,-4.563333034515381,3.1932671070098877
1725891384179867100,12.2348671875,-1.122596263885498,-2.58798885345459,2.0156173706054688
1725891384198716200,12.253716064453124,0.21266794204711914,-0.9442658424377441,1.557478427886963
1725891384217565200,12.272565185546876,2.3217458724975586,1.354755163192749,0.9861366748809814
1725891384236414200,12.291414306640625,2.364582061767578,2.961268901824951,0.001863241195678711
1725891384255263200,12.31026318359375,2.907552719116211,2.2667667865753174,-1.007440209388733
1725891384274112300,12.3291123046875,4.247302055358887,1.228358268737793,-2.588866710662842
1725891384292961300,12.347961181640626,4.2945356369018555,1.5032896995544434,-3.312429666519165
1725891384311810300,12.366810302734375,4.297536373138428,0.8008818626403809,-3.66353178024292
1725891384330659300,12.385659423828125,4.119357109069824,0.7043881416320801,-3.143737316131592
1725891384349508000,12.404508056640625,3.1629199981689453,1.1875033378601074,-2.8165173530578613
1725891384368357000,12.423357177734376,2.782503128051758,2.3987221717834473,-2.0813586711883545
1725891384387206100,12.4422060546875,3.136319160461426,2.425001382827759,-0.8085956573486328
1725891384406055200,12.46105517578125,2.8405261039733887,2.59006667137146,-1.5067334175109863
1725891384424904200,12.479904296875,1.8616580963134766,2.5108063220977783,-1.214969515800476
1725891384443753200,12.498753173828124,2.024629592895508,2.5183372497558594,-1.0896161794662476
1725891384462602200,12.517602294921875,2.0371289253234863,2.5821917057037354,-1.2972722053527832
1725891384481451000,12.536450927734375,1.5702157020568848,2.490896701812744,-1.2381582260131836
1725891384500300000,12.555300048828125,1.3239002227783203,1.964890480041504,-1.0223324298858643
1725891384519149000,12.574149169921874,1.1128754615783691,0.5852470397949219,-0.6245181560516357
1725891384537998000,12.592998046875,1.642174243927002,-1.007767677307129,-0.42745161056518555
1725891384556847000,12.61184716796875,1.7365293502807617,-1.6963424682617188,-0.5066337585449219
1725891384575696100,12.630696044921875,0.9599742889404297,-2.5435986518859863,0.007365703582763672
1725891384594545200,12.649545166015624,-0.1321859359741211,-4.208601951599121,0.48180651664733887
1725891384613394200,12.668394287109376,-1.2384324073791504,-5.028028964996338,0.6004259586334229
1725891384632243000,12.687242919921875,-2.296189308166504,-4.437263488769531,0.7699146270751953
1725891384651092000,12.706092041015625,-3.211674213409424,-3.159165382385254,0.6835746765136719
1725891384669941000,12.72494091796875,-3.6855640411376953,-2.104344367980957,0.09227168560028076
1725891384688790000,12.7437900390625,-2.719071388244629,-2.341085433959961,0.29666006565093994
1725891384707639000,12.76263916015625,-1.8141436576843262,-2.7878408432006836,0.4603562355041504
1725891384726488000,12.781488037109375,-1.143455982208252,-2.3042068481445312,0.31017184257507324
1725891384745337000,12.800337158203124,-0.8857293128967285,-1.9771308898925781,-0.10398626327514648
1725891384764185900,12.819185791015625,-1.2767586708068848,-1.874481201171875,-0.17731857299804688
1725891384783035000,12.838034912109375,-1.728644847869873,-1.272348403930664,-0.48963940143585205
1725891384801884000,12.8568837890625,-1.646975040435791,-0.6404495239257812,-0.3069310188293457
1725891384820733000,12.87573291015625,-0.6694502830505371,-0.43195247650146484,-0.09119260311126709
1725891384839582000,12.89458203125,-0.1060934066772461,-0.4384603500366211,-0.7308965921401978
1725891384858431000,12.913430908203125,0.3485550880432129,-0.4263143539428711,-1.2297557592391968
1725891384877280000,12.932280029296875,0.4717278480529785,-0.7192049026489258,-1.0934103727340698
1725891384896128800,12.951128662109374,-0.2070450782775879,-1.0896539688110352,-0.4641820192337036
1725891384914978000,12.96997802734375,-0.9800686836242676,-1.0777649879455566,0.13363170623779297
1725891384933826800,12.988826904296875,-1.115738868713379,-1.2742304801940918,0.663386344909668
1725891384952675800,13.00767578125,-1.1737194061279297,-1.4418091773986816,0.8798060417175293
1725891384971524900,13.02652490234375,-0.4162478446960449,-1.3239450454711914,1.259145736694336
1725891384990374000,13.045373779296876,-0.20194721221923828,-1.527115821838379,0.8819866180419922
1725891385009223000,13.064222900390625,-0.24188852310180664,-1.9094634056091309,0.8077280521392822
1725891385028071700,13.08307177734375,0.023045063018798828,-2.5655813217163086,0.2727348804473877
1725891385046921000,13.1019208984375,0.46245384216308594,-2.6581320762634277,0.032268524169921875
1725891385065769700,13.120769775390626,0.6526765823364258,-2.210580825805664,-0.026570558547973633
1725891385084618800,13.13961865234375,1.6550884246826172,-1.4557290077209473,-0.9532315731048584
1725891385103467800,13.1584677734375,1.0576481819152832,-0.2800259590148926,-1.2189429998397827
1725891385122316800,13.17731689453125,0.9765291213989258,-0.17302560806274414,-0.5050451755523682
1725891385141165800,13.196165771484376,0.9316530227661133,-0.20996379852294922,0.06747746467590332
1725891385160014800,13.215014892578125,2.4987850189208984,0.421999454498291,-1.3650799989700317
1725891385178863900,13.23386376953125,3.2364134788513184,0.8449492454528809,-2.884871244430542
1725891385197712600,13.252712646484374,4.240322113037109,0.4963500499725342,-3.391373634338379
1725891385216561700,13.271561767578126,3.749082088470459,1.5546772480010986,-3.7108516693115234
1725891385235410700,13.29041064453125,3.5612220764160156,1.796291708946228,-2.4668450355529785
1725891385254259700,13.309259765625,3.7653675079345703,2.317821979522705,-1.771598219871521
1725891385273108700,13.328108642578124,4.654160499572754,2.3250787258148193,-1.5743560791015625
1725891385291957800,13.346957763671876,4.430335998535156,3.0131869316101074,-2.1876413822174072
1725891385310806800,13.365806884765625,3.417116165161133,3.4482882022857666,-1.920128345489502
1725891385329655600,13.384655517578125,2.6466312408447266,3.0925796031951904,-1.8718520402908325
1725891385348504600,13.403504638671874,2.3875741958618164,2.696225881576538,-1.7731218338012695
1725891385367353600,13.422353515625,1.8027710914611816,2.1754398345947266,-1.7204539775848389
1725891385386202600,13.44120263671875,1.0810132026672363,1.5524797439575195,-1.4769127368927002
1725891385405051600,13.4600517578125,0.656768798828125,0.5592508316040039,-0.6811947822570801
1725891385423900700,13.478900634765624,0.7475080490112305,-0.7587418556213379,0.021596908569335938
1725891385442749700,13.497749755859376,0.33533287048339844,-2.9264678955078125,0.39501047134399414
1725891385461598500,13.516598388671875,-0.08895635604858398,-4.672689914703369,0.08265995979309082
1725891385480447500,13.535447509765625,-1.6770472526550293,-5.025104999542236,-0.1844789981842041
1725891385499296500,13.554296630859374,-1.6572637557983398,-3.7857303619384766,0.020410537719726562
1725891385518145500,13.5731455078125,-2.1121826171875,-2.163235664367676,-0.20694708824157715
1725891385536994600,13.59199462890625,-2.8961825370788574,-1.4752001762390137,-0.5279004573822021
1725891385555843600,13.610843505859375,-3.5681848526000977,-2.175778865814209,0.16287970542907715
1725891385574692600,13.629692626953124,-3.2038793563842773,-3.0144472122192383,0.5052006244659424
1725891385593541400,13.648541259765626,-1.6625041961669922,-3.5464487075805664,0.22584915161132812
1725891385612390700,13.667390625,-1.6627936363220215,-3.678042411804199,-0.5209534168243408
1725891385631239400,13.686239501953125,-2.079319953918457,-2.6982994079589844,-1.2608100175857544
1725891385650088400,13.70508837890625,-2.3555450439453125,-2.050442695617676,-0.5683579444885254
1725891385668937500,13.7239375,-2.420085906982422,-2.1067161560058594,-0.11077666282653809
1725891385687786500,13.742786376953125,-2.574059009552002,-1.3229799270629883,-0.45835423469543457
1725891385706635500,13.761635498046875,-2.0974369049072266,-1.172713279724121,-1.013702154159546
1725891385725484300,13.780484375,-1.7452173233032227,-0.8302440643310547,-1.3165960311889648
1725891385744333600,13.79933349609375,-0.7201666831970215,-0.9792900085449219,-1.625150203704834
1725891385763182300,13.818182373046875,-0.45856237411499023,-1.072176456451416,-1.4279146194458008
1725891385782031400,13.83703125,-0.8097629547119141,-0.8452138900756836,-0.07364392280578613
1725891385800880400,13.85588037109375,-1.1237921714782715,-0.887326717376709,0.6405301094055176
1725891385819729400,13.8747294921875,-1.7059035301208496,-1.0655498504638672,1.6111509799957275
1725891385838578400,13.893578369140625,-1.1513047218322754,-2.0298023223876953,2.298781633377075
1725891385857427200,13.91242724609375,-1.404052734375,-1.660975456237793,0.980938196182251
1725891385876276200,13.931276123046874,-0.7129907608032227,-1.4846649169921875,1.0521042346954346
1725891385895125200,13.950125244140626,0.19330501556396484,-1.5964670181274414,1.2514569759368896
1725891385913974300,13.968974365234375,1.080765724182129,-0.9005093574523926,0.7372608184814453
1725891385932823300,13.9878232421875,2.1317238807678223,-0.528923511505127,0.10459160804748535
1725891385951672300,14.00667236328125,1.8422880172729492,-0.11230802536010742,-0.41679680347442627
1725891385970521300,14.025521240234376,1.1209745407104492,0.09108114242553711,-0.1956850290298462
1725891385989370400,14.044370361328125,1.2917547225952148,-0.41150379180908203,-0.25695598125457764
1725891386008219100,14.06321923828125,1.185476303100586,0.0962367057800293,-0.48597341775894165
1725891386027068200,14.082068115234375,1.2003583908081055,-0.39354538917541504,-0.09848666191101074
1725891386045917200,14.100917236328126,0.7197532653808594,-0.7468366622924805,-0.46923279762268066
1725891386064766200,14.11976611328125,2.8327150344848633,-0.20966219902038574,-1.1861101388931274
1725891386083615200,14.138615234375,5.554157257080078,-0.09118270874023438,-1.2113581895828247
1725891386102464300,14.15746435546875,4.988236904144287,0.6714520454406738,-2.0404703617095947
1725891386121313300,14.176313232421874,3.8460636138916016,2.391310214996338,-1.5174399614334106
1725891386140162000,14.195162109375,4.519186973571777,2.710848808288574,-1.434420108795166
1725891386159011000,14.214010986328125,3.9484081268310547,2.935796022415161,-1.4650832414627075
1725891386177860000,14.232860107421875,3.301593780517578,3.3850014209747314,-1.4915852546691895
1725891386196709000,14.251709228515624,3.593325614929199,3.8642961978912354,-0.8383238315582275
1725891386215558100,14.27055810546875,2.9061269760131836,3.405736207962036,-0.6665829420089722
1725891386234407000,14.289406982421875,2.6378021240234375,2.9665424823760986,-1.0254400968551636
1725891386253256200,14.308256103515625,1.7014498710632324,2.8763043880462646,-1.2204930782318115
1725891386272105000,14.32710498046875,1.7810101509094238,2.0390586853027344,-0.6763325929641724
1725891386290954000,14.3459541015625,1.8657512664794922,0.1942729949951172,-0.20722365379333496
1725891386309803000,14.364802978515625,1.9108223915100098,-2.0333900451660156,-0.037903547286987305
1725891386328652000,14.383652099609375,2.167952537536621,-4.062454700469971,0.49481916427612305
1725891386347501000,14.4025009765625,1.03761625289917,-5.072440147399902,0.38633060455322266
1725891386366349800,14.421349853515625,-0.5762844085693359,-4.611443042755127,0.2863192558288574
1725891386385199000,14.44019921875,-1.5710053443908691,-3.594520092010498,0.3193356990814209
1725891386404048000,14.4590478515625,-1.8288145065307617,-3.166342258453369,0.18980252742767334
1725891386422897000,14.47789697265625,-1.8921680450439453,-2.756566047668457,-0.021822094917297363
1725891386441746000,14.496745849609376,-1.9810643196105957,-2.2923641204833984,-0.06567001342773438
1725891386460595000,14.515594970703125,-1.9350037574768066,-2.5269269943237305,0.903838038444519
1725891386479444000,14.53444384765625,-1.7267122268676758,-3.117734909057617,2.151055335998535
1725891386498292700,14.553292724609374,-1.8659448623657227,-3.048121452331543,2.001052141189575
1725891386517141800,14.572141845703126,-1.8004999160766602,-2.1724472045898438,0.9518134593963623
1725891386535990800,14.59099072265625,-0.9156908988952637,-2.2905807495117188,1.7351408004760742
1725891386554839800,14.60983984375,-1.2092442512512207,-2.5544443130493164,1.38979172706604
1725891386573688800,14.628688720703124,-1.2679738998413086,-2.1930160522460938,0.8041245937347412
1725891386592537900,14.647537841796876,-1.017174243927002,-1.927088737487793,0.62132728099823
1725891386611386600,14.66638671875,-0.5251998901367188,-1.8536720275878906,0.3901975154876709
1725891386630235600,14.685235595703125,0.029011249542236328,-1.3297119140625,0.612066388130188
1725891386649084700,14.704084716796874,0.3110222816467285,-0.3838357925415039,0.8970028162002563
1725891386667933700,14.72293359375,0.9201803207397461,0.009226322174072266,1.297288417816162
1725891386686782700,14.74178271484375,0.9889307022094727,0.15139102935791016,1.3956012725830078
1725891386705631700,14.7606318359375,0.768773078918457,0.47352170944213867,1.619113802909851
1725891386724480800,14.779480712890624,-0.20273733139038086,-0.010632038116455078,2.0120935440063477
1725891386743329500,14.79832958984375,-0.9487133026123047,-0.7004528045654297,2.015185594558716
1725891386762178600,14.817178466796875,-0.08147192001342773,-0.550940990447998,1.7453316450119019
1725891386781027600,14.836027587890625,0.6309618949890137,-0.19054794311523438,1.4788073301315308
1725891386799876600,14.854876708984374,0.4710102081298828,-0.34364795684814453,1.0670379400253296
1725891386818725600,14.8737255859375,0.28727197647094727,-0.6293916702270508,1.0156502723693848
1725891386837574400,14.892574462890625,1.068436622619629,-0.912691593170166,0.522779643535614
1725891386856423700,14.911423583984375,1.5859723091125488,-0.42337703704833984,-0.38587379455566406
1725891386875272400,14.9302724609375,1.8261594772338867,-1.2962164878845215,-0.5530076026916504
1725891386894121500,14.94912158203125,1.2231025695800781,-1.5859158039093018,-0.7777990698814392
1725891386912970500,14.967970458984375,1.983266830444336,-0.2583451271057129,-1.1384354829788208
1725891386931819500,14.986819580078125,3.3956947326660156,0.696404218673706,-1.29621160030365
1725891386950668500,15.00566845703125,3.0307884216308594,0.07462072372436523,-1.7750505208969116
1725891386969517300,15.024517333984376,1.9080095291137695,0.03538775444030762,-1.002211093902588
1725891386988366300,15.043366455078125,2.7118892669677734,-0.05308651924133301,0.42212018370628357
1725891387007215400,15.06221533203125,3.6651477813720703,0.7980327606201172,-0.4164581000804901
1725891387026064400,15.081064453125,1.2622385025024414,1.0271475315093994,-1.2325471639633179
1725891387044913400,15.099913330078126,3.5873641967773438,1.709625005722046,-0.17877662181854248
1725891387063762400,15.118762451171875,4.404021739959717,3.334723949432373,-0.8855480551719666
1725891387082611200,15.137611083984375,2.2424936294555664,3.685257911682129,-2.302168130874634
1725891387101460200,15.156460205078124,2.6873559951782227,3.7042458057403564,-1.8179991245269775
1725891387120309200,15.175309326171876,3.9129891395568848,3.023122787475586,-0.13763248920440674
1725891387139158300,15.194158203125,4.674587249755859,1.9334042072296143,-0.08814990520477295
1725891387158007300,15.21300732421875,0.6498165130615234,2.314432144165039,-3.380079984664917
1725891387176856000,15.23185595703125,0.13127756118774414,2.0196399688720703,-0.11590003967285156
1725891387195705000,15.250705078125,4.484779357910156,-0.5064163208007812,1.8443834781646729
1725891387214554000,15.26955419921875,1.459486484527588,-1.9584155082702637,-0.15235960483551025
1725891387264018700,15.319018798828125,-1.7202339172363281,-6.346444129943848,1.6397473812103271
1725891387282867700,15.33786767578125,-1.9169578552246094,-4.606991767883301,1.2458254098892212
1725891387301716700,15.356716796875,-3.2853970527648926,-2.534945487976074,0.4451669454574585
1725891387320565500,15.3755654296875,-1.880826473236084,-1.1402578353881836,1.8495252132415771
1725891387339414500,15.39441455078125,-1.7402234077453613,-0.8850507736206055,0.7522830963134766
1725891387358263600,15.413263671875,-1.3913397789001465,-0.8817834854125977,0.6322755217552185
1725891387377112600,15.432112548828124,-0.5160088539123535,-3.9947147369384766,1.7942161560058594
1725891387395961600,15.450961669921876,-0.8685088157653809,-4.446680068969727,-0.4941564202308655
1725891387414810600,15.469810546875,-0.6841244697570801,-1.4961185455322266,-0.6655299067497253
1725891387433659400,15.488659423828125,-1.1595020294189453,-0.7872686386108398,-0.25838613510131836
1725891387452508400,15.50750830078125,-0.8963813781738281,-1.6712026596069336,1.711238980293274
1725891387471357400,15.526357421875,-2.2637252807617188,-2.6013078689575195,1.4226605892181396
1725891387490206500,15.54520654296875,-2.211543083190918,-1.8689470291137695,0.7959226369857788
1725891387509055500,15.564055419921875,-0.19389820098876953,-1.012679100036621,1.0448943376541138
1725891387527904500,15.582904541015624,1.2780365943908691,-0.7168869972229004,-0.32162439823150635
1725891387546753300,15.601753173828126,2.0851590633392334,0.2902059555053711,-2.109311103820801
1725891387565602300,15.620602294921875,1.4726381301879883,1.1953539848327637,-1.1220273971557617
1725891387584451300,15.639451416015625,-0.7671413421630859,0.6912093162536621,0.45855414867401123
1725891387603300400,15.65830029296875,-3.120985507965088,-1.4344191551208496,2.0048108100891113
1725891387622149400,15.6771494140625,-1.8896756172180176,-4.105569839477539,3.2928080558776855
1725891387640998100,15.695998046875,-0.5166587829589844,-3.9792656898498535,2.3810839653015137
1725891387659847200,15.71484716796875,0.6211357116699219,-2.825680732727051,1.9268338680267334
1725891387678696200,15.7336962890625,-0.20247936248779297,-1.7213373184204102,1.7267553806304932
1725891387697545200,15.752545166015626,0.15817642211914062,-0.8428349494934082,0.5014214515686035
1725891387716394200,15.771394287109375,1.3068723678588867,-0.4129514694213867,-0.6013542413711548
1725891387735243300,15.7902431640625,1.746981143951416,0.6149978637695312,-1.3332202434539795
1725891387754092000,15.809092041015624,2.4943113327026367,-0.32645416259765625,-1.5367176532745361
1725891387772941000,15.827941162109376,1.702061653137207,-0.09191703796386719,-1.4009052515029907
1725891387791790000,15.8467900390625,3.1223011016845703,0.0240480899810791,0.2715226411819458
1725891387810639000,15.86563916015625,3.5476551055908203,0.9406247138977051,-0.46330809593200684
1725891387829488000,15.884488037109374,2.2402305603027344,2.6113369464874268,-2.0167150497436523
1725891387848337000,15.9033369140625,4.77894401550293,0.8482654094696045,-1.4924896955490112
1725891387867186000,15.92218603515625,5.574471950531006,1.0934484004974365,-0.8438526391983032
1725891387886035000,15.941034912109375,4.160003662109375,2.4103386402130127,-2.32651686668396
1725891387904884000,15.959884033203124,3.023658275604248,3.39335298538208,-3.5730533599853516
1725891387923733000,15.97873291015625,2.727590560913086,3.594768524169922,-2.0184991359710693
1725891387942581800,15.997581787109375,2.6541848182678223,2.4545440673828125,-0.43730050325393677
1725891387961430800,16.0164306640625,0.4642620086669922,2.650282621383667,-0.7414592504501343
1725891387980279800,16.03527978515625,3.104574203491211,1.1304981708526611,1.894734263420105
1725891387999128800,16.05412890625,4.62882137298584,0.9973258972167969,-0.3570709228515625
1725891388017977900,16.072977783203125,-0.6369028091430664,2.7242541313171387,-2.1823136806488037
1725891388036827000,16.091826904296877,0.10281038284301758,2.2033941745758057,-0.8415113687515259
1725891388055675600,16.110675537109376,2.659687042236328,0.8940057754516602,0.24550867080688477
1725891388074524700,16.129524658203124,2.5962986946105957,-0.920684814453125,0.6102170944213867
1725891388093373700,16.148373779296875,1.6664409637451172,-3.161714553833008,0.006669282913208008
1725891388112222700,16.16722265625,0.22220945358276367,-4.181523323059082,0.25165820121765137
1725891388131071700,16.18607177734375,-0.7471656799316406,-4.5738301277160645,0.805565595626831
1725891388149920500,16.20492041015625,-2.284381866455078,-4.317461013793945,1.1396030187606812
1725891388168769500,16.22376953125,-3.615333080291748,-4.53518533706665,1.0699183940887451
1725891388187618600,16.24261865234375,-4.0196380615234375,-4.548973083496094,0.9786827564239502
1725891388206467600,16.261467529296876,-3.210977077484131,-3.441422462463379,0.4632359743118286
1725891388225316600,16.280316650390624,-2.1201720237731934,-3.5008649826049805,1.0892291069030762
1725891388244165400,16.299165283203124,-1.2560162544250488,-3.680539131164551,1.712780237197876
1725891388263014400,16.318014404296875,-1.4491925239562988,-2.540414810180664,0.07150423526763916
1725891388281863400,16.336863525390626,-1.4225788116455078,-1.0220746994018555,0.1062706708908081
1725891388300712400,16.35571240234375,-0.9650530815124512,-0.22306346893310547,0.6383821964263916
1725891388319561500,16.3745615234375,-1.8126802444458008,-0.10578250885009766,-0.3299219608306885
1725891388338410200,16.39341015625,-1.2901134490966797,-0.6270132064819336,1.1874648332595825
1725891388357259300,16.41225927734375,-0.3754148483276367,-1.3361663818359375,1.1919220685958862
1725891388376108300,16.4311083984375,0.30124473571777344,-1.2699861526489258,0.559134840965271
1725891388394957300,16.449957275390624,1.1509466171264648,-0.2862086296081543,0.11251413822174072
1725891388413806300,16.468806396484375,0.34339284896850586,0.08812952041625977,-0.2807133197784424
1725891388432655400,16.4876552734375,-0.6746478080749512,-0.602968692779541,-0.044840216636657715
1725891388451504000,16.506504150390626,-2.6419129371643066,-2.44083833694458,0.14991331100463867
1725891388470353200,16.525353271484374,-2.832645893096924,-3.4901862144470215,1.9031363725662231
1725891388489202200,16.5442021484375,-0.7091221809387207,-4.577733516693115,3.440399646759033
1725891388508051200,16.56305126953125,0.9285392761230469,-3.2651820182800293,1.2239694595336914
1725891388526900000,16.58189990234375,0.42882823944091797,-1.0590643882751465,0.49627768993377686
1725891388545749000,16.6007490234375,-0.6939411163330078,-1.0299477577209473,1.1281359195709229
1725891388564598000,16.619597900390627,0.2622051239013672,-1.2788987159729004,1.0209921598434448
1725891388583447000,16.638447021484374,2.214456558227539,-0.6932277679443359,0.09694421291351318
1725891388602296000,16.657296142578126,3.3186917304992676,0.35678672790527344,-0.8251275420188904
1725891388621144800,16.676144775390625,3.758131504058838,0.6799321174621582,-0.9775161743164062
1725891388639993900,16.694993896484377,3.0127148628234863,1.978500485420227,-1.3521217107772827
1725891388658843000,16.7138427734375,0.7764968872070312,3.022177219390869,-1.1726146936416626
1725891388677692000,16.73269189453125,2.7364015579223633,-0.23541593551635742,-0.22217750549316406
1725891388696541000,16.751541015625,5.689517974853516,-0.9651579856872559,-0.715588390827179
1725891388715390000,16.770389892578127,3.25980281829834,2.950467348098755,-2.200439929962158
1725891388734238700,16.78923876953125,2.7515058517456055,1.3509109020233154,-1.8678685426712036
1725891388753087700,16.808087646484374,3.166959285736084,1.0081117153167725,-1.5125114917755127
1725891388771936800,16.826936767578125,2.9752612113952637,0.8545103073120117,-0.3522745966911316
1725891388790785800,16.845785888671877,3.9327406883239746,2.4891886711120605,-1.1634163856506348
1725891388809634600,16.864634521484376,2.7115635871887207,3.2614619731903076,-1.31424081325531
1725891388828483600,16.883483642578124,4.019402027130127,2.9638330936431885,-0.703029453754425
1725891388847332600,16.90233251953125,2.8019094467163086,3.3755240440368652,-1.3699536323547363
1725891388866181600,16.921181640625,3.0694241523742676,3.333132743835449,-0.6112611293792725
1725891388885030700,16.94003076171875,2.3256888389587402,2.6604981422424316,-0.8065706491470337
1725891388903879400,16.95887939453125,2.130286693572998,1.3056693077087402,-0.6313245296478271
1725891388922728400,16.977728515625,2.698516368865967,-0.8073372840881348,0.16011261940002441
1725891388941577500,16.996577392578125,1.4469871520996094,-4.246264457702637,0.29129672050476074
1725891388960426500,17.015426513671876,-0.6083588600158691,-5.956989765167236,1.0795860290527344
1725891388979275500,17.034275634765624,-1.7551031112670898,-6.159574508666992,2.1569976806640625
1725891388998124300,17.053124267578124,-2.6432342529296875,-4.261858940124512,0.921100378036499
1725891389016973300,17.071973388671875,-2.9090633392333984,-1.8819866180419922,0.407795786857605
1725891389035822300,17.090822265625,-2.5059823989868164,-2.2110910415649414,-0.11347687244415283
1725891389054671400,17.10967138671875,-1.6074342727661133,-3.1198225021362305,0.24823319911956787
1725891389073520400,17.128520263671874,-1.1574668884277344,-3.371725082397461,0.46672070026397705
1725891389092369200,17.147369140625,-1.1656036376953125,-2.4086456298828125,0.0988239049911499
1725891389111218200,17.16621826171875,-0.7159571647644043,-1.8752918243408203,0.667148232460022
1725891389130067200,17.185067138671876,-1.2799320220947266,-2.210906982421875,0.5999581813812256
1725891389148916200,17.203916259765624,-1.9762578010559082,-2.1639490127563477,1.0404223203659058
1725891389167765200,17.22276513671875,-2.1083545684814453,-1.800532341003418,1.1464085578918457
1725891389186614300,17.2416142578125,-2.0426268577575684,-0.61126708984375,0.10316693782806396
1725891389205463000,17.260463134765626,-1.0123281478881836,-0.18206501007080078,1.06742525100708
1725891389224312000,17.27931201171875,-0.6021342277526855,-0.35803699493408203,1.0196022987365723
1725891389243161000,17.2981611328125,-0.9566984176635742,-0.8677706718444824,0.7441980838775635
1725891389262010000,17.317010009765625,-0.7117362022399902,-1.8127808570861816,1.4229427576065063
1725891389280859000,17.33585888671875,-1.1663060188293457,-2.218174457550049,0.24819540977478027
1725891389299708000,17.3547080078125,-1.0884137153625488,-1.5534467697143555,0.4597747325897217
1725891389318557000,17.373556884765627,-0.5766901969909668,-1.720167636871338,0.6442832946777344
1725891389337406000,17.392406005859375,-0.3624882698059082,-2.3965325355529785,0.34914588928222656
1725891389356255000,17.4112548828125,0.017900466918945312,-2.0685276985168457,0.3761770725250244
1725891389375103700,17.430103759765625,0.23180198669433594,-1.798037052154541,0.9274115562438965
1725891389393952800,17.448952880859373,0.4252610206604004,-1.8032784461975098,0.9580442905426025
1725891389412801800,17.4678017578125,0.8826947212219238,-0.8951907157897949,1.404813528060913
1725891389431650800,17.48665087890625,1.666703701019287,-0.7994570732116699,1.145647406578064
1725891389450499800,17.505499755859375,1.4567193984985352,-0.8639440536499023,0.6616812944412231
1725891389469348600,17.5243486328125,1.3862829208374023,-0.6752786636352539,0.6861180067062378
1725891389488197600,17.54319775390625,2.330613613128662,-1.4222097396850586,0.16120374202728271
1725891389507046700,17.562046630859374,2.3605785369873047,-0.3134183883666992,-0.4937310218811035
1725891389525895700,17.580895751953125,2.095184803009033,1.3221025466918945,-0.7846623659133911
1725891389544744700,17.59974462890625,3.2154383659362793,2.0843846797943115,-2.0378661155700684
1725891389563593500,17.618593505859376,4.4237260818481445,2.3285107612609863,-3.096039295196533
1725891389582442500,17.6374423828125,3.534632682800293,2.101409912109375,-3.441481828689575
1725891389601291500,17.65629150390625,3.2386107444763184,0.33128833770751953,-1.416693925857544
1725891389620140500,17.675140625,4.749532222747803,1.488539218902588,-1.6370999813079834
1725891389638989600,17.693989501953126,3.561520576477051,3.666830062866211,-1.9661251306533813
1725891389657838600,17.712838623046874,2.731994152069092,3.506282329559326,-1.234999656677246
1725891389676687400,17.731687255859374,2.44645357131958,3.049396276473999,-1.2032341957092285
1725891389695536400,17.750536376953125,2.1935415267944336,3.3949694633483887,-0.10315430164337158
1725891389714385400,17.769385498046876,2.66715145111084,3.356198787689209,-0.08599519729614258
1725891389733234400,17.788234375,3.372537136077881,3.025660514831543,-0.7298582792282104
1725891389752083200,17.807083251953124,2.9666075706481934,1.8118205070495605,-0.363958477973938
1725891389770932200,17.82593212890625,2.3818650245666504,-0.19518661499023438,-0.19198870658874512
1725891389789781200,17.84478125,1.664647102355957,-2.8706374168395996,0.08251810073852539
1725891389808630300,17.86363037109375,1.0048999786376953,-5.341026782989502,0.612018346786499
1725891389827479300,17.882479248046874,-0.5657172203063965,-5.720646858215332,0.5120515823364258
1725891389846328300,17.901328369140625,-1.5107712745666504,-4.615964412689209,0.4751861095428467
1725891389865177000,17.920177001953125,-2.2611465454101562,-2.257892608642578,0.17648088932037354
1725891389884026000,17.939026123046876,-2.6862969398498535,-0.9382305145263672,0.1557399034500122
1725891389902875100,17.957875244140624,-2.792062759399414,-2.2767152786254883,0.7872331142425537
1725891389921724200,17.97672412109375,-2.208134174346924,-3.9150304794311523,1.5475091934204102
1725891389940573000,17.995572998046875,-1.9247403144836426,-3.629124641418457,0.9437105655670166
1725891389959422000,18.014421875,-1.827061653137207,-2.6976852416992188,0.1610088348388672
1725891389978271000,18.03327099609375,-1.585092544555664,-2.6262292861938477,0.6260221004486084
1725891389997120000,18.0521201171875,-1.7438125610351562,-2.652233123779297,0.5443925857543945
1725891390015969000,18.070968994140625,-1.2584543228149414,-1.3911828994750977,0.0026358366012573242
1725891390034818000,18.089818115234376,-0.7099208831787109,0.007963180541992188,1.005141258239746
1725891390053667000,18.1086669921875,-0.9465270042419434,0.010027885437011719,0.6878917217254639
1725891390072515800,18.127515869140623,-0.7030415534973145,-0.3619060516357422,0.0076656341552734375
1725891390091364900,18.14636474609375,0.15507125854492188,-0.7088203430175781,0.19411742687225342
1725891390110214000,18.1652138671875,-0.3083820343017578,-0.7593498229980469,-0.2955973148345947
1725891390129063000,18.18406298828125,0.17591238021850586,-0.7465286254882812,-0.3593027591705322
1725891390147911700,18.20291162109375,-0.25238561630249023,-1.2717218399047852,-0.2872127294540405
1725891390166760700,18.2217607421875,-0.8189935684204102,-1.6218886375427246,-0.07161295413970947
1725891390185609700,18.240609619140624,-1.6988105773925781,-1.8256230354309082,-0.2273646593093872
1725891390204458800,18.259458740234376,-1.2352757453918457,-2.2896084785461426,0.5196225643157959
1725891390223307800,18.278307861328123,-0.624579906463623,-3.0953502655029297,1.278045415878296
1725891390242156800,18.29715673828125,0.12009763717651367,-2.710028648376465,1.0910933017730713
1725891390261005800,18.316005859375,-0.055504798889160156,-1.525953769683838,1.2734317779541016
1725891390279854600,18.3348544921875,-0.03068065643310547,-0.9252071380615234,0.9834555387496948
1725891390298703600,18.35370361328125,0.6820950508117676,-0.6071557998657227,0.8511171340942383
1725891390317552600,18.372552734375,1.2677240371704102,-0.39214468002319336,0.811219334602356
1725891390336401700,18.391401611328124,1.8965373039245605,0.26005983352661133,0.8175888061523438
1725891390355250700,18.410250732421876,2.658665180206299,-0.13009262084960938,-0.2570936679840088
1725891390374099500,18.429099365234375,1.8797607421875,1.5817253589630127,-1.3179327249526978
1725891390392948500,18.447948486328126,1.1836214065551758,1.2412853240966797,-1.379911184310913
1725891390411797500,18.466797607421874,1.6906733512878418,-0.1712019443511963,-1.4925004243850708
1725891390430646500,18.485646484375,3.368471145629883,0.04948997497558594,-1.872359037399292
1725891390449495600,18.50449560546875,4.387629985809326,1.2939987182617188,-1.996537446975708
1725891390468344600,18.523344482421876,4.406090259552002,2.302130699157715,-2.1709976196289062
1725891390487193300,18.542193359375,3.692326545715332,1.8391094207763672,-2.0196142196655273
1725891390506042400,18.56104248046875,3.5631837844848633,2.384934425354004,-1.853302001953125
1725891390524891400,18.579891357421875,3.9830002784729004,3.1737492084503174,-1.6411794424057007
1725891390543740400,18.598740478515627,4.1717424392700195,3.496159553527832,-1.793031930923462
1725891390562589400,18.61758935546875,2.774848461151123,4.0786662101745605,-1.6173558235168457
1725891390581438200,18.636438232421874,1.5252342224121094,4.067328929901123,-1.229539155960083
1725891390600287200,18.655287353515625,2.2231836318969727,3.5940968990325928,-0.3734387159347534
1725891390619136300,18.67413623046875,2.9960641860961914,2.032768964767456,-0.34300148487091064
1725891390637985300,18.6929853515625,2.152198314666748,-0.030225753784179688,-0.2196885347366333
1725891390656834300,18.711834228515624,2.0634942054748535,-3.408926010131836,0.19973278045654297
1725891390675683300,18.730683349609375,0.10003185272216797,-5.838865280151367,-0.20626676082611084
1725891390694532000,18.749531982421875,-1.3026857376098633,-5.823118209838867,0.17164146900177002
1725891390713381000,18.768381103515626,-1.6291942596435547,-4.543108940124512,0.820794939994812
1725891390732230100,18.787230224609374,-1.8843989372253418,-2.232564926147461,0.34098732471466064
1725891390751079200,18.8060791015625,-2.149433135986328,-0.6850686073303223,-0.31807076930999756
1725891390769928200,18.82492822265625,-2.177511692047119,-1.1903390884399414,-0.5065765380859375
1725891390788777200,18.843777099609376,-2.1785874366760254,-2.8486499786376953,0.8277034759521484
1725891390807626200,18.862626220703124,-2.164384365081787,-4.344484329223633,1.8960965871810913
1725891390826475000,18.88147509765625,-2.1418466567993164,-4.544879913330078,1.7437690496444702
1725891390845324000,18.900323974609375,-1.8721890449523926,-3.109856605529785,1.0313827991485596
1725891390864173000,18.919173095703126,-1.7186851501464844,-1.087672233581543,0.30474770069122314
1725891390883022000,18.93802197265625,-1.694662094116211,-0.741450309753418,0.7639794945716858
1725891390901871000,18.95687109375,-1.432497501373291,-0.9260377883911133,1.2197215557098389
1725891390920720100,18.97572021484375,-1.001502513885498,-0.7067165374755859,0.8376442193984985
1725891390939569000,18.99456884765625,-0.26190900802612305,-0.36506080627441406,0.5963371992111206
1725891390958418000,19.01341796875,0.2915191650390625,-0.6114835739135742,0.377020001411438
1725891390977267000,19.032266845703123,0.2815079689025879,-0.7467422485351562,0.5076020956039429
1725891390996116000,19.051115966796875,-0.4247274398803711,-0.9974379539489746,-0.0870591402053833
1725891391014965000,19.069965087890626,-1.1080317497253418,-1.2292633056640625,0.9107745885848999
1725891391033814000,19.08881396484375,-1.5411629676818848,-1.94486665725708,1.6592782735824585
1725891391052662800,19.107662841796873,-0.9940180778503418,-2.4014973640441895,1.4322659969329834
1725891391071511800,19.12651171875,0.31397056579589844,-2.39005708694458,0.9992252588272095
1725891391090360800,19.14536083984375,0.5484457015991211,-2.2859272956848145,0.7069603204727173
1725891391109209900,19.1642099609375,0.36146020889282227,-2.184994697570801,0.9519741535186768
1725891391128059000,19.183058837890623,-0.13428974151611328,-1.9155464172363281,1.0090913772583008
1725891391146908000,19.201907958984375,0.19678068161010742,-1.3152532577514648,1.0278550386428833
1725891391165757000,19.2207568359375,1.252767562866211,-1.0074853897094727,0.8831336498260498
1725891391184605700,19.239605712890626,2.063046455383301,-0.21254396438598633,0.45559781789779663
1725891391203454700,19.258454833984374,1.7173686027526855,0.7804429531097412,0.7228057384490967
1725891391222303700,19.2773037109375,1.9758639335632324,-0.6464319229125977,-0.08669957518577576
1725891391241152800,19.29615283203125,1.643618106842041,-0.5502994060516357,-0.5022953748703003
1725891391260001800,19.315001708984376,2.1335325241088867,-0.542020320892334,0.03174552321434021
1725891391278850800,19.333850830078124,2.70430326461792,0.47655630111694336,-0.3804170489311218
1725891391297699800,19.352699951171875,3.1572623252868652,1.906644582748413,-1.6040397882461548
1725891391316548600,19.371548583984374,4.9134907722473145,2.2350592613220215,-1.7291557788848877
1725891391335397600,19.390397705078126,4.647454738616943,2.3360328674316406,-1.2331573963165283
1725891391354246700,19.40924658203125,3.3841190338134766,2.541576385498047,-1.7023845911026
1725891391373095700,19.428095703125,2.843893527984619,2.580263137817383,-1.055140733718872
1725891391391944700,19.44694482421875,3.8203024864196777,2.1087803840637207,-0.27605101466178894
1725891391410793700,19.465793701171876,3.259547233581543,2.5685133934020996,-0.8677420616149902
1725891391429642800,19.484642822265624,1.3929038047790527,3.252857208251953,-0.727540910243988
1725891391448491500,19.503491455078127,2.2816739082336426,2.761563777923584,0.048986077308654785
1725891391467340500,19.522340576171874,2.4691929817199707,2.269498109817505,-0.5811214447021484
1725891391486189600,19.541189453125,2.5310983657836914,1.6071972846984863,-0.39301884174346924
1725891391505038600,19.56003857421875,2.43772554397583,0.6174020767211914,-0.44172847270965576
1725891391523887600,19.5788876953125,2.128542423248291,-0.4009056091308594,-0.017447829246520996
1725891391542736600,19.597736572265624,1.8290009498596191,-1.8087682723999023,0.41306352615356445
1725891391561585400,19.61658544921875,0.6824054718017578,-3.548037528991699,1.014374017715454
1725891391580434400,19.635434326171875,-0.16951608657836914,-4.867471694946289,1.5675145387649536
1725891391599283500,19.654283447265627,-0.9557466506958008,-4.557960033416748,1.0421621799468994
1725891391618132500,19.673132568359375,-2.09149169921875,-2.828803062438965,-0.043061137199401855
1725891391636981500,19.6919814453125,-2.6265721321105957,-2.5738186836242676,0.039139628410339355
1725891391655830500,19.71083056640625,-2.1710309982299805,-3.555727005004883,0.25914764404296875
1725891391674679600,19.729679443359377,-1.9857254028320312,-3.7568864822387695,0.37504005432128906
1725891391693528300,19.7485283203125,-2.0839920043945312,-3.170809745788574,0.5769733190536499
1725891391712377300,19.76737744140625,-1.9674372673034668,-3.096019744873047,0.8289648294448853
1725891391731226400,19.786226318359375,-2.2111172676086426,-2.5442276000976562,0.2783740758895874
1725891391750075400,19.805075439453127,-1.916175365447998,-1.9546642303466797,0.21383368968963623
1725891391768924400,19.82392431640625,-1.318448543548584,-2.23966121673584,1.0326493978500366
1725891391787773400,19.8427734375,-1.2858085632324219,-2.501936912536621,1.18658447265625
1725891391806622500,19.86162255859375,-0.7161965370178223,-2.487900733947754,1.0435415506362915
1725891391825471500,19.880471435546873,0.4712533950805664,-1.6018915176391602,0.17949652671813965
1725891391844320300,19.8993203125,0.7396106719970703,-0.3186464309692383,-0.4662068486213684
1725891391863169300,19.918169189453124,1.1083202362060547,-0.07683515548706055,-0.7737184762954712
1725891391882018300,19.937018310546875,0.19011974334716797,-0.06308555603027344,-0.7783048748970032
1725891391900867300,19.955867431640623,-0.8348970413208008,-0.4146404266357422,1.0817424058914185
1725891391919716400,19.97471630859375,-1.7342524528503418,-0.7502083778381348,2.2979884147644043
1725891391938565400,19.9935654296875,-1.9215970039367676,-0.19700288772583008,2.663238048553467
1725891391957414400,20.012414306640625,-1.3807263374328613,0.06311893463134766,3.142216444015503
1725891391976263200,20.03126318359375,-0.30944156646728516,0.17782974243164062,2.9543559551239014
1725891391995112200,20.0501123046875,0.5409326553344727,0.1812300682067871,2.5882840156555176
1725891392013961200,20.068961181640624,0.33011960983276367,0.45990562438964844,1.7247052192687988
1725891392032810200,20.087810302734376,0.5976333618164062,0.9647035598754883,0.9934678077697754
1725891392051659300,20.1066591796875,1.5873527526855469,0.9718325138092041,-0.2849680781364441
1725891392070508300,20.12550830078125,2.26332950592041,0.9969668388366699,-1.2382891178131104
1725891392089357300,20.144357421875,1.3719005584716797,0.1497814655303955,-1.236602783203125
1725891392108206300,20.163206298828126,1.8850078582763672,-0.34258151054382324,-0.7134575843811035
1725891392127055000,20.18205517578125,1.541114330291748,0.08770298957824707,-0.21068143844604492
1725891392145904000,20.200904052734376,1.8525023460388184,0.7287652492523193,-0.7598865032196045
1725891392164753200,20.219753173828124,2.8892130851745605,0.4053463935852051,-0.6676498651504517
1725891392183602200,20.238602294921876,2.310882568359375,0.08874058723449707,-0.3208409547805786
1725891392202451200,20.257451171875,0.7315864562988281,-0.1311321258544922,-0.5488903522491455
1725891392221300200,20.27630029296875,1.2152118682861328,-0.20062780380249023,-0.07808929681777954
1725891392240149200,20.295149169921874,3.139615058898926,0.7481961250305176,-0.4761812686920166
1725891392258998300,20.313998291015626,3.539055347442627,2.2625510692596436,-1.5074528455734253
1725891392277847000,20.332846923828125,2.7501144409179688,3.040011167526245,-2.2804880142211914
1725891392296696000,20.351696044921876,2.7339420318603516,3.3412389755249023,-2.4813244342803955
1725891392315545000,20.370545166015624,3.823814868927002,3.2692437171936035,-2.6289901733398438
1725891392334394000,20.38939404296875,3.1474952697753906,3.2121996879577637,-3.213470458984375
1725891392353243100,20.4082431640625,2.8083977699279785,3.3805854320526123,-2.393491506576538
1725891392372092200,20.427092041015626,3.057154655456543,2.3111701011657715,-1.6588904857635498
1725891392390941200,20.445941162109374,2.816044807434082,1.2004647254943848,-1.5748684406280518
1725891392409790200,20.464790283203126,2.098581314086914,-0.8568911552429199,-0.8866342306137085
1725891392428639000,20.483638916015625,1.592954158782959,-3.5872268676757812,0.34804344177246094
1725891392447488000,20.502488037109377,-0.1817326545715332,-5.42692232131958,1.9679317474365234
1725891392466337000,20.5213369140625,-1.808497428894043,-6.161822319030762,2.6321537494659424
1725891392485186000,20.54018603515625,-2.6837902069091797,-5.274217128753662,2.051024913787842
1725891392504035000,20.55903515625,-3.2958035469055176,-3.553896903991699,0.7591394186019897
1725891392522884000,20.577884033203127,-4.039361000061035,-2.0758018493652344,-0.09896624088287354
1725891392541733000,20.596733154296874,-3.790766716003418,-2.962587356567383,0.7672321796417236
1725891392560582000,20.615581787109374,-2.4734349250793457,-4.991787910461426,1.8149217367172241
1725891392579431000,20.634430908203125,-1.437082290649414,-3.7043066024780273,1.0190119743347168
1725891392598280000,20.653280029296877,-0.9052386283874512,-1.0793704986572266,0.2186865210533142
1725891392617129000,20.67212890625,-0.2703866958618164,-0.24286270141601562,0.7139020562171936
1725891392635978000,20.69097802734375,-0.8466353416442871,-0.8162117004394531,0.9161116480827332
1725891392654827000,20.709826904296875,-1.283780574798584,-0.9335727691650391,0.04309499263763428
1725891392673676000,20.728676025390627,-0.8698749542236328,-0.6504449844360352,0.7249783277511597
1725891392692525000,20.747525146484374,-0.7886114120483398,-0.44301891326904297,0.9136801958084106
1725891392711373800,20.766373779296874,-1.296504020690918,-0.3321208953857422,0.28381943702697754
1725891392730222800,20.785222900390625,-0.36693239212036133,-0.6031346321105957,0.9405360221862793
1725891392749072000,20.80407177734375,0.2294769287109375,-1.2975740432739258,1.0701130628585815
1725891392767921000,20.8229208984375,-0.3570270538330078,-1.242387294769287,1.0268882513046265
1725891392786770000,20.84177001953125,-0.8014430999755859,-1.428903579711914,0.8965848684310913
1725891392805619000,20.860618896484375,-1.3591246604919434,-2.1436057090759277,1.2858799695968628
1725891392824468000,20.879468017578127,-0.5480136871337891,-2.7489147186279297,1.5367083549499512
1725891392843316700,20.898316650390626,0.2865180969238281,-1.6801390647888184,1.0755085945129395
1725891392862165800,20.917165771484374,-0.08938455581665039,-1.2545547485351562,1.6452409029006958
1725891392881014800,20.936014892578125,0.007207393646240234,-2.5208587646484375,1.2699309587478638
1725891392899863800,20.95486376953125,0.8947019577026367,-2.2195773124694824,0.6257890462875366
1725891392918712800,20.973712890625,1.8630480766296387,-1.1985058784484863,0.4014294147491455
1725891392937561900,20.992561767578124,2.3573431968688965,0.10148954391479492,-0.06406021118164062
1725891392956411000,21.011410888671875,1.9530000686645508,1.0577316284179688,-0.9410591125488281
1725891392975260000,21.030260009765627,1.9107365608215332,0.7565596103668213,-1.152270793914795
1725891392994109000,21.04910888671875,2.008284568786621,0.8730747699737549,-1.346884846687317
1725891393012957700,21.067957763671874,2.4341816902160645,0.9705777168273926,-1.1810098886489868
1725891393031806700,21.086806640625,3.084747314453125,0.7323167324066162,-1.4258460998535156
1725891393050655700,21.10565576171875,3.372539520263672,1.2033920288085938,-1.5702476501464844
1725891393069504800,21.1245048828125,3.3395586013793945,1.5232386589050293,-1.3149631023406982
1725891393088353800,21.143353759765624,3.562530040740967,1.9200247526168823,-0.8503612875938416
1725891393107202800,21.162202880859375,3.2868919372558594,2.423696517944336,-1.1242055892944336
1725891393126051800,21.1810517578125,2.941460132598877,2.6670918464660645,-0.9567731022834778
1725891393144900900,21.19990087890625,2.7501955032348633,3.0319037437438965,-1.229490041732788
1725891393163749600,21.21874951171875,2.46726131439209,2.9473676681518555,-1.0332179069519043
1725891393182598700,21.2375986328125,2.161841869354248,2.7206945419311523,-0.8723580241203308
1725891393201447700,21.25644775390625,2.3193740844726562,3.226085901260376,-1.1533864736557007
1725891393220296700,21.275296630859376,2.4974417686462402,3.3734958171844482,-0.02699112892150879
1725891393239145700,21.294145751953124,2.2379708290100098,2.500868797302246,-0.8029340505599976
1725891393257994800,21.312994873046875,2.008988380432129,1.8314597606658936,-0.573702335357666
1725891393276843800,21.33184375,2.454658031463623,-0.47304868698120117,0.4265561103820801
1725891393295692800,21.35069287109375,1.6859588623046875,-3.7047667503356934,0.5300008058547974
1725891393314541800,21.369541748046874,-0.12387943267822266,-6.169250011444092,0.0873795747756958
1725891393333390600,21.388390625,-0.4878835678100586,-7.736173629760742,1.1220115423202515
1725891393352239600,21.407239501953125,-0.9754881858825684,-5.596848011016846,1.1030112504959106
1725891393371088600,21.426088623046876,-2.6431922912597656,-1.4989676475524902,0.11989212036132812
1725891393389937700,21.444937744140624,-3.3927102088928223,-0.5059776306152344,0.1830199956893921
1725891393408786700,21.46378662109375,-2.4928550720214844,-3.7315216064453125,2.203711986541748
1725891393427635700,21.4826357421875,-2.261443614959717,-4.852939605712891,2.365997076034546
1725891393446484700,21.501484619140626,-1.9567790031433105,-2.947927474975586,1.607975959777832
1725891393465333500,21.52033349609375,-1.2778143882751465,-1.5779285430908203,0.8993439078330994
1725891393484182500,21.5391826171875,-1.2082295417785645,-0.8065299987792969,-0.17771583795547485
1725891393503031600,21.558031494140625,-1.585555076599121,-0.5190286636352539,0.8406921029090881
1725891393521880600,21.576880615234376,-1.6186585426330566,-0.9001045227050781,1.5329276323318481
1725891393540729600,21.5957294921875,-1.62849760055542,-1.3147344589233398,0.8586560487747192
1725891393559578600,21.61457861328125,-0.30236291885375977,-0.9176406860351562,0.864933967590332
1725891393578427600,21.633427734375,0.5518407821655273,-0.11676406860351562,0.1122751235961914
1725891393597276700,21.652276611328126,-0.16055774688720703,-0.032527923583984375,0.3839559555053711
1725891393616125400,21.67112548828125,0.026566028594970703,-1.0663180351257324,0.17728090286254883
1725891393634974500,21.689974365234374,-0.40911102294921875,-1.2988395690917969,-1.0716185569763184
1725891393653823500,21.708823486328125,-0.11217689514160156,-1.0799298286437988,-0.6582314968109131
1725891393672672500,21.727672607421876,-0.5227870941162109,-1.162217617034912,-0.008360505104064941
1725891393691521500,21.746521484375,-1.4562411308288574,-1.5184907913208008,1.4981766939163208
1725891393710370600,21.76537060546875,-0.8251733779907227,-3.3825902938842773,2.042858123779297
1725891393729219600,21.784219482421875,-0.07143211364746094,-3.0212926864624023,0.9037742614746094
1725891393748068400,21.803068359375,1.164748191833496,-1.8709139823913574,1.7128468751907349
1725891393766917400,21.82191748046875,0.6355676651000977,-1.3443145751953125,1.0393744707107544
1725891393785766400,21.840766357421874,0.29398202896118164,-0.3831806182861328,1.027671217918396
1725891393804615400,21.859615478515625,2.2535548210144043,-1.186429500579834,0.13239824771881104
1725891393823464400,21.87846435546875,1.8073339462280273,0.48117733001708984,-1.0536837577819824
1725891393842313500,21.8973134765625,2.1717653274536133,1.173931360244751,-1.259680151939392
1725891393861162500,21.91616259765625,2.1162328720092773,1.471334457397461,-1.5442330837249756
1725891393880011500,21.935011474609375,2.048579216003418,1.5089125633239746,-1.5388730764389038
1725891393898860500,21.953860595703127,2.1402978897094727,0.5355286598205566,-0.6811113357543945
1725891393917709300,21.972709228515626,2.4283103942871094,0.3790555000305176,-0.5038297176361084
1725891393936558300,21.991558349609374,2.515218734741211,1.074737310409546,-1.3568167686462402
1725891393955407400,22.010407470703125,3.6467394828796387,1.6311482191085815,-1.5367355346679688
1725891393974256400,22.02925634765625,4.408442974090576,2.1101136207580566,-1.6405962705612183
1725891393993105400,22.04810546875,3.1142916679382324,2.8178839683532715,-2.5082473754882812
1725891394011954400,22.066954345703124,2.752175807952881,2.802554130554199,-0.7154306173324585
1725891394030803500,22.085803466796875,3.368133068084717,3.3920540809631348,-1.3520573377609253
1725891394049652200,22.10465234375,2.3659448623657227,3.510136127471924,-0.7633590698242188
1725891394068501200,22.123501220703126,2.3918814659118652,2.673326015472412,-1.0037333965301514
1725891394087350300,22.142350341796874,1.155930995941162,3.087435483932495,-1.2615082263946533
1725891394106199300,22.16119921875,2.1226110458374023,2.6232287883758545,-0.13259100914001465
1725891394125048300,22.18004833984375,1.8631672859191895,1.493560552597046,-0.5932106971740723
1725891394143897300,22.1988974609375,1.1978354454040527,0.04336214065551758,-0.16256451606750488
1725891394162746400,22.217746337890624,2.398681163787842,-2.6368398666381836,0.5785722732543945
1725891394181595400,22.236595458984375,1.4243707656860352,-4.872853755950928,0.1073601245880127
1725891394200444200,22.255444091796875,-0.19207048416137695,-4.658236026763916,0.07254683971405029
1725891394219293200,22.274293212890626,-1.286313533782959,-4.316445827484131,0.9567950963973999
1725891394238142200,22.29314208984375,-1.9645905494689941,-3.120028495788574,0.7802757024765015
1725891394256991200,22.3119912109375,-2.05519962310791,-1.6795787811279297,0.3950936794281006
1725891394275840300,22.33084033203125,-2.52182674407959,-1.8331851959228516,-0.5130241513252258
1725891394294689300,22.349689208984376,-2.1585793495178223,-3.635504722595215,0.7909151315689087
1725891394313538300,22.368538330078124,-2.828984260559082,-4.86502742767334,1.5676257610321045
1725891394332387300,22.38738720703125,-2.256084442138672,-2.9108705520629883,3.0668277740478516
1725891394351236000,22.406236083984375,-1.4767451286315918,-1.4716377258300781,2.420982837677002
1725891394370085000,22.425085205078126,-1.3128437995910645,-1.1407499313354492,0.7212790250778198
1725891394388934100,22.44393408203125,-1.7796626091003418,-1.8330812454223633,0.9383927583694458
1725891394407783200,22.462783203125,-2.266110420227051,-1.8498344421386719,0.8123470544815063
1725891394426632200,22.481632080078125,-1.9390273094177246,-1.5212602615356445,-0.25308287143707275
1725891394445481200,22.500481201171876,-0.17166805267333984,-0.8933334350585938,0.5552880764007568
1725891394464330200,22.519330322265624,0.42197179794311523,-0.25376319885253906,0.3656677007675171
1725891394483179300,22.53817919921875,0.28571367263793945,0.16176176071166992,0.1055992841720581
1725891394502028000,22.557028076171875,0.19214105606079102,-0.3745431900024414,-0.2663172483444214
1725891394520877000,22.575876953125,-0.46658802032470703,-1.15507173538208,-0.3358856439590454
1725891394539726000,22.59472607421875,-0.1408076286315918,-1.8800373077392578,-0.23515033721923828
1725891394558575000,22.6135751953125,-0.1469717025756836,-1.2681994438171387,-0.3990626335144043
1725891394577424100,22.632424072265625,-0.5488705635070801,-1.2225699424743652,0.7166779041290283
1725891394596273200,22.651273193359376,-0.4480929374694824,-2.494600772857666,1.3616492748260498
1725891394615122200,22.6701220703125,0.32862377166748047,-2.1600966453552246,1.0565800666809082
1725891394633971200,22.68897119140625,-0.10206794738769531,-1.6777997016906738,1.2602932453155518
1725891394652820000,22.707820068359375,-0.3637809753417969,-2.166985034942627,1.6688933372497559
1725891394671669000,22.7266689453125,0.20187616348266602,-1.5792346000671387,1.526507019996643
1725891394690518000,22.74551806640625,1.9638938903808594,-1.3929548263549805,0.8430227041244507
1725891394709367000,22.764366943359374,2.052271842956543,-0.20899724960327148,-0.06357371807098389
1725891394728216000,22.783216064453125,2.5974717140197754,0.9372994899749756,-0.8819059133529663
1725891394747065000,22.802065185546876,2.6786603927612305,1.7054834365844727,-1.7744560241699219
1725891394765914000,22.8209140625,2.8798742294311523,2.214069366455078,-1.6701555252075195
1725891394784763000,22.839762939453124,2.3567323684692383,1.055558204650879,-1.259812593460083
1725891394803612000,22.85861181640625,3.173354148864746,0.5830326080322266,-0.9071650505065918
1725891394822461000,22.8774609375,3.8226780891418457,2.0963072776794434,-1.6575238704681396
1725891394841310000,22.89631005859375,3.4093751907348633,2.7458930015563965,-1.3238219022750854
1725891394860159000,22.915158935546874,3.3207530975341797,1.7747864723205566,-0.8660992383956909
1725891394879008000,22.934008056640625,3.474447727203369,2.2653613090515137,-0.8690861463546753
1725891394897857000,22.95285693359375,3.512120246887207,3.198998212814331,-1.4660433530807495
1725891394916705800,22.971705810546876,2.556097984313965,2.991595983505249,-1.6647872924804688
1725891394935554800,22.990554931640624,2.3003149032592773,2.9858431816101074,-1.4959068298339844
1725891394954403800,23.00940380859375,2.0811901092529297,2.8427932262420654,-1.094130039215088
1725891394973252900,23.0282529296875,2.3651247024536133,2.466369390487671,-1.4937528371810913
1725891394992102000,23.047101806640626,2.436337471008301,2.0962886810302734,-1.2002617120742798
1725891395010951000,23.065950927734374,2.574362277984619,0.8851070404052734,-0.6756569147109985
1725891395029800000,23.084800048828125,1.2706122398376465,-0.6866965293884277,-1.1796644926071167
1725891395048648700,23.103648681640625,0.682441234588623,-2.800262928009033,-0.15956878662109375
1725891395067497700,23.122497802734376,0.29572153091430664,-4.976977348327637,0.6376235485076904
1725891395086346800,23.1413466796875,-1.0276284217834473,-5.213104248046875,0.955378532409668
1725891395105195800,23.16019580078125,-1.5310287475585938,-4.245834827423096,0.5261281728744507
1725891395124044800,23.179044921875,-2.065737247467041,-2.660511016845703,0.3943202495574951
1725891395142893800,23.197893798828126,-2.751946449279785,-2.077347755432129,0.1333773136138916
1725891395161742800,23.216742919921874,-3.4997811317443848,-2.9206161499023438,0.22250902652740479
1725891395180591600,23.235591552734373,-3.0258612632751465,-3.794978141784668,1.1679656505584717
1725891395199440600,23.254440673828125,-2.2506327629089355,-3.7448883056640625,0.8028132915496826
1725891395218289700,23.27328955078125,-1.6054606437683105,-2.4640283584594727,0.3177988529205322
1725891395237138700,23.292138671875,-1.2797365188598633,-1.5968093872070312,1.4093068838119507
1725891395255987700,23.31098779296875,-1.3082313537597656,-1.0983343124389648,0.8439866304397583
1725891395274836700,23.329836669921875,-1.5970025062561035,-0.6193571090698242,0.8459022045135498
1725891395293685800,23.348685791015626,-1.366072654724121,-0.36902427673339844,1.100777506828308
1725891395312534500,23.367534423828126,-0.8090901374816895,-0.05703449249267578,1.1683180332183838
1725891395331383600,23.386383544921873,-0.6924643516540527,-0.00334930419921875,0.647934079170227
1725891395350232600,23.405232666015625,-0.8737082481384277,-0.5637178421020508,0.09114623069763184
1725891395369081600,23.42408154296875,-1.2455930709838867,-1.4750642776489258,0.3034515380859375
1725891395387930600,23.4429306640625,-1.707566261291504,-1.938218116760254,0.14787113666534424
1725891395406779600,23.461779541015623,-0.8764309883117676,-1.5772552490234375,0.11944746971130371
1725891395425628700,23.480628662109375,1.3558320999145508,-0.8642663955688477,-0.04259037971496582
1725891395444477400,23.4994775390625,0.9518017768859863,-0.3981032371520996,0.24404394626617432
1725891395463326500,23.518326416015626,-0.28086280822753906,-0.7188720703125,0.8717741966247559
1725891395482175500,23.537175537109373,-1.03245210647583,-1.9686808586120605,0.694534420967102
1725891395501024500,23.5560244140625,-1.1813507080078125,-2.848423480987549,0.69500732421875
1725891395519873500,23.57487353515625,0.08234977722167969,-3.0056729316711426,0.9680650234222412
1725891395538722600,23.59372265625,0.6548833847045898,-1.6193456649780273,0.5789766311645508
1725891395557571300,23.6125712890625,0.588747501373291,-0.6855096817016602,0.4712604284286499
1725891395576420400,23.63142041015625,1.2002663612365723,-0.34171009063720703,-0.0987478494644165
