time,seconds_elapsed,z,y,x
1725891372003439600,0.058439697265625,-0.47586366534233093,0.07406735420227051,-0.2525162398815155
1725891372022288600,0.07728857421875,-0.48502662777900696,-1.2136355638504028,-0.1865428388118744
1725891372041137400,0.096137451171875,-0.583375871181488,-1.7621921300888062,-0.040546149015426636
1725891372059986400,0.114986328125,-0.7528908252716064,-1.929263710975647,0.19585852324962616
1725891372078835200,0.133835205078125,-0.9764673709869385,-1.7020219564437866,0.2917642891407013
1725891372097684000,0.15268408203125,-1.0054833889007568,-0.5526798963546753,-0.015195261687040329
1725891372116533000,0.171532958984375,-0.8756746649742126,0.577725350856781,-0.520991325378418
1725891372135381800,0.1903818359375,-0.7082977294921875,0.7597630620002747,-1.0408371686935425
1725891372154230800,0.209230712890625,-0.6023126840591431,-0.006566796451807022,-1.4134647846221924
1725891372173079600,0.22807958984375,-0.6212494969367981,-0.5581777095794678,-1.2482258081436157
1725891372191928300,0.24692822265625,-0.7000510096549988,-0.790000855922699,-0.964784562587738
1725891372210777300,0.26577734375,-0.5262600183486938,-0.5016726851463318,-0.8279508352279663
1725891372229626400,0.28462646484375,-0.20830489695072174,-0.8498656153678894,-0.8759037256240845
1725891372248475100,0.30347509765625,0.18173226714134216,-1.6885830163955688,-0.7897717952728271
1725891372267324000,0.322323974609375,0.5115992426872253,-2.243859052658081,-0.5222130417823792
1725891372286173000,0.3411728515625,0.5360338687896729,-2.0993895530700684,-0.06711876392364502
1725891372305021700,0.360021728515625,0.4303542375564575,-2.137263059616089,0.5031235218048096
1725891372323870700,0.37887060546875,0.43371400237083435,-2.8095197677612305,1.318933367729187
1725891372342719500,0.397719482421875,0.2678641974925995,-3.207192897796631,1.716911792755127
1725891372361568500,0.416568603515625,0.014966187067329884,-3.7184865474700928,1.655519962310791
1725891372380417300,0.435417236328125,0.020769402384757996,-4.117992401123047,1.4362194538116455
1725891372399266000,0.45426611328125,0.7156280875205994,-4.1925177574157715,1.1362848281860352
1725891372418115000,0.473114990234375,1.6914845705032349,-3.7963719367980957,0.9652426838874817
1725891372436963800,0.4919638671875,2.744004487991333,-3.059974431991577,0.978681743144989
1725891372455812900,0.510812744140625,3.3789985179901123,-3.4154977798461914,1.0926079750061035
1725891372474661600,0.52966162109375,3.624566078186035,-2.987281560897827,1.4169771671295166
1725891372493510400,0.548510498046875,3.434587240219116,-2.6338961124420166,1.461264967918396
1725891372512359400,0.567359375,3.009425401687622,-2.2789838314056396,1.2804489135742188
1725891372531208400,0.58620849609375,2.4129159450531006,-2.346484422683716,1.134146809577942
1725891372550057200,0.60505712890625,1.916893720626831,-1.6000075340270996,1.2160027027130127
1725891372568906000,0.623906005859375,1.6927063465118408,-0.6638572812080383,1.3042726516723633
1725891372587755000,0.642755126953125,1.7834197282791138,0.39507678151130676,1.234939455986023
1725891372606603800,0.661603759765625,2.3484697341918945,0.7148644924163818,1.063286542892456
1725891372625452800,0.680452880859375,2.489884853363037,0.4072940945625305,0.8983530402183533
1725891372644301600,0.699301513671875,1.9083415269851685,-1.4332414865493774,0.474718302488327
1725891372663150300,0.718150390625,0.7919861674308777,-2.349843978881836,-0.07933606207370758
1725891372681999400,0.736999267578125,-0.7024945020675659,-2.1919355392456055,-0.8197041749954224
1725891372700848000,0.75584814453125,-2.0781619548797607,-1.0367902517318726,-1.7466914653778076
1725891372719697200,0.774697265625,-3.170999050140381,0.3211621642112732,-2.6626832485198975
1725891372738546000,0.7935458984375,-3.243691921234131,0.8623883724212646,-2.65565824508667
1725891372757394700,0.812394775390625,-0.47952884435653687,-1.9286528825759888,-1.2638028860092163
1725891372776243700,0.83124365234375,3.5717263221740723,-1.7655519247055054,0.16928590834140778
1725891372795092500,0.850092529296875,4.852709770202637,0.5242747068405151,1.349782109260559
1725891372813941500,0.86894140625,4.009410858154297,0.5755873322486877,2.4533092975616455
1725891372832790300,0.887790283203125,2.5079052448272705,0.3199404180049896,3.2834744453430176
1725891372851639300,0.906639404296875,2.017380952835083,0.12324196845293045,3.6551856994628906
1725891372870488000,0.925488037109375,2.299294948577881,0.06551524996757507,3.229107618331909
1725891372889337000,0.944337158203125,2.2815799713134766,0.9873101711273193,2.443535566329956
1725891372908185900,0.963185791015625,1.9749258756637573,1.5224277973175049,1.6778165102005005
1725891372927034600,0.98203466796875,1.3124430179595947,1.9405646324157715,1.0642027854919434
1725891372945883600,1.000883544921875,0.22968515753746033,0.5172497630119324,-0.24976733326911926
1725891372964732400,1.019732421875,0.027488915249705315,0.8797979950904846,-1.0038799047470093
1725891372983581400,1.03858154296875,0.2981020212173462,1.0291544198989868,-0.9418771266937256
1725891373002430200,1.05743017578125,0.25870123505592346,1.0648900270462036,-0.4027889668941498
1725891373021279000,1.076279052734375,0.27580544352531433,0.40485063195228577,0.1329394429922104
1725891373040128000,1.0951279296875,0.3546070158481598,0.26679518818855286,0.3577376902103424
1725891373058976800,1.113976806640625,0.1233946830034256,0.2380845546722412,0.19982914626598358
1725891373077825800,1.13282568359375,0.12705987691879272,-0.34987279772758484,0.05871937796473503
1725891373096674600,1.151674560546875,0.32528549432754517,-0.4396699368953705,0.16959133744239807
1725891373115523600,1.170523681640625,0.15088360011577606,-0.2124282270669937,0.4160752594470978
1725891373134372400,1.189372314453125,-0.035735588520765305,-0.49861836433410645,0.8036689758300781
1725891373153221400,1.208221435546875,0.1496618688106537,-0.7539598345756531,1.1188751459121704
1725891373172070100,1.227070068359375,0.7266236543655396,-0.7331904768943787,1.7108031511306763
1725891373190919200,1.245919189453125,0.6771436333656311,-0.25610506534576416,2.2581379413604736
1725891373209768000,1.264767822265625,0.33139413595199585,-0.38072147965431213,2.169867992401123
1725891373228616700,1.28361669921875,0.5400044918060303,-0.9308052062988281,1.2248601913452148
1725891373247465700,1.3024658203125,0.676227331161499,-1.3645192384719849,0.8507055640220642
1725891373266314500,1.321314453125,0.6154462695121765,-0.30314165353775024,0.9789871573448181
1725891373285163500,1.34016357421875,0.3744601011276245,-1.1015418767929077,0.8146645426750183
1725891373304012300,1.35901220703125,0.12736530601978302,-0.490066260099411,1.0131956338882446
1725891373322861000,1.377861083984375,-0.05589412897825241,0.21456626057624817,0.6252964735031128
1725891373341710000,1.3967099609375,0.5152644515037537,0.28328853845596313,0.17234022915363312
1725891373360558800,1.415558837890625,0.9401208758354187,0.9879210591316223,-0.16241367161273956
1725891373379408000,1.434407958984375,0.8265000581741333,0.9909753799438477,0.18608468770980835
1725891373398256600,1.453256591796875,0.7015781998634338,0.4088212549686432,0.6335431337356567
1725891373417105700,1.472105712890625,0.7043271064758301,0.4454731345176697,0.581008791923523
1725891373435954400,1.490954345703125,0.7596103549003601,0.45097091794013977,0.08987347781658173
1725891373454803500,1.509803466796875,0.869566023349762,0.14859285950660706,-0.4290561378002167
1725891373473652200,1.52865234375,0.9746347665786743,-0.7942769527435303,-1.0206786394119263
1725891373492501200,1.547501220703125,1.265711784362793,-2.4601051807403564,-1.281212568283081
1725891373511350000,1.56635009765625,1.5656464099884033,-3.425882339477539,-1.3908627033233643
1725891373530198800,1.58519873046875,1.8060216903686523,-3.1830637454986572,-1.158123254776001
1725891373549047800,1.6040478515625,2.22690749168396,-2.799746036529541,-0.9742529392242432
1725891373567896600,1.622896484375,3.769646644592285,-2.908174514770508,-0.23083053529262543
1725891373586745600,1.64174560546875,2.7620251178741455,-3.3229517936706543,-0.17432554066181183
1725891373605594400,1.660594482421875,0.6969966888427734,-3.6778640747070312,0.12102758139371872
1725891373624443100,1.679443115234375,0.09498947113752365,-2.039219379425049,-0.31268641352653503
1725891373643292200,1.698292236328125,0.7797688841819763,0.22220206260681152,-0.6801216006278992
1725891373662141000,1.717140869140625,0.8023709058761597,0.9347758293151855,-0.8435279130935669
1725891373680990000,1.735989990234375,0.776714563369751,0.7206677198410034,-0.6453022956848145
1725891373699839000,1.7548388671875,0.49541133642196655,-1.0902409553527832,-0.6303361058235168
1725891373718687700,1.773687744140625,-0.2107483446598053,-1.567326307296753,-0.7271581888198853
1725891373737536500,1.79253662109375,-0.462424635887146,-0.9039271473884583,-1.3920844793319702
1725891373756385500,1.811385498046875,-0.10018182545900345,-0.32849252223968506,-1.630321741104126
1725891373775234300,1.830234375,0.6411026120185852,-0.33276858925819397,-0.6581304669380188
1725891373794083300,1.849083251953125,0.7984002828598022,-0.17974695563316345,0.04955640435218811
1725891373812932000,1.86793212890625,1.627649188041687,0.08720094710588455,-0.03107774630188942
1725891373831781000,1.886781005859375,1.905898094177246,0.7765618562698364,-0.28580835461616516
1725891373850630000,1.9056298828125,1.4398082494735718,1.0600031614303589,-0.575663685798645
1725891373869479000,1.92447900390625,1.3429862260818481,0.614682674407959,-0.7268527150154114
1725891373888327700,1.94332763671875,1.91414475440979,0.5477929711341858,-1.01304292678833
1725891373907176400,1.962176513671875,1.266017198562622,0.586888313293457,-1.2787690162658691
1725891373926025500,1.981025390625,0.10048725455999374,-0.13729186356067657,-1.0832923650741577
1725891373944874500,1.99987451171875,-0.3488037884235382,-0.7557924389839172,-0.25984659790992737
1725891373963723300,2.01872314453125,-0.4068359434604645,-1.5529710054397583,0.5171734094619751
1725891373982572300,2.037572265625,-0.18570289015769958,-3.004080295562744,1.5293763875961304
1725891374001421000,2.056421142578125,-0.3170388340950012,-2.302196741104126,2.0082943439483643
1725891374020269800,2.075269775390625,-0.7660244107246399,-1.389870047569275,1.0235803127288818
1725891374039118800,2.094118896484375,-0.5500837564468384,-1.0282381772994995,-1.2372303009033203
1725891374057967600,2.112967529296875,0.8170316219329834,0.2328922003507614,-2.2665374279022217
1725891374076816600,2.131816650390625,0.189673513174057,0.5948295593261719,-1.4418699741363525
1725891374095665400,2.15066552734375,0.2565632164478302,-0.40485063195228577,0.0193185992538929
1725891374114514400,2.169514404296875,0.2877173125743866,-0.19379685819149017,1.2260819673538208
1725891374133363500,2.188363525390625,0.2684750556945801,-0.7145590782165527,2.03822660446167
1725891374152212200,2.207212158203125,0.05803215503692627,-0.5988001823425293,2.245615243911743
1725891374171061200,2.226061279296875,-0.3194822669029236,0.5667297840118408,2.410243272781372
1725891374189910000,2.244909912109375,0.2202167510986328,-1.4940224885940552,3.0119452476501465
1725891374208758800,2.2637587890625,0.3026835024356842,-0.4381427764892578,2.633819818496704
1725891374227607800,2.28260791015625,0.6169734001159668,0.31444263458251953,1.5993202924728394
1725891374246456600,2.30145654296875,1.1047489643096924,0.6647735834121704,0.588949978351593
1725891374265305600,2.3203056640625,1.91414475440979,0.8779653906822205,-0.5356520414352417
1725891374284154400,2.339154296875,3.031111001968384,0.8431460857391357,-1.1339941024780273
1725891374303003400,2.35800341796875,4.041175842285156,0.34315329790115356,-0.4021781086921692
1725891374321852400,2.376852294921875,4.462672710418701,-0.25091269612312317,0.7596867084503174
1725891374340701200,2.395701171875,4.918683052062988,0.3672824501991272,1.4044544696807861
1725891374359550200,2.41455029296875,4.356076717376709,1.4698933362960815,1.0675625801086426
1725891374378399000,2.43339892578125,1.85092031955719,-0.753654420375824,0.6756927967071533
1725891374397248000,2.452248046875,-0.35246896743774414,-0.7041743993759155,-0.06192641705274582
1725891374416096800,2.4710966796875,-1.76570463180542,0.6278162598609924,0.5174788236618042
1725891374434945800,2.48994580078125,-2.2812745571136475,1.5587742328643799,2.7636287212371826
1725891374453794600,2.508794677734375,-1.1184934377670288,0.45127636194229126,0.6906589865684509
1725891374472643600,2.5276435546875,0.5870410799980164,-0.47326749563217163,-0.5646681189537048
1725891374491492400,2.546492431640625,-0.01649334840476513,0.09239330142736435,0.3574322462081909
1725891374510341400,2.56534130859375,-0.29046618938446045,0.5807796716690063,0.6662244200706482
1725891374529190100,2.584190185546875,-0.5033525824546814,0.40118545293807983,0.4295142889022827
1725891374548039200,2.6030390625,-0.5580250024795532,0.45738500356674194,0.17539454996585846
1725891374566888000,2.621887939453125,-0.46547895669937134,0.69012451171875,0.026648975908756256
1725891374585737000,2.640737060546875,-0.28527384996414185,0.7979421019554138,-0.023747367784380913
1725891374604586000,2.6595859375,-0.17195843160152435,0.7557924389839172,-0.024663666263222694
1725891374623434800,2.678434814453125,-0.04367683082818985,0.6229293346405029,-0.045738499611616135
1725891374642283800,2.69728369140625,-0.03848448023200035,0.551152765750885,-0.022220205515623093
1725891374661132500,2.716132568359375,-0.10079269111156464,0.46288278698921204,0.0709366723895073
1725891374679981600,2.734981689453125,-0.1081230640411377,0.28176137804985046,0.1634826809167862
1725891374698830300,2.753830322265625,-0.01588248461484909,0.12782345712184906,0.16684244573116302
1725891374717679400,2.772679443359375,0.03940077871084213,0.07345648854970932,0.10819942504167557
1725891374736528400,2.7915283203125,0.06719512492418289,0.11102467030286789,0.07612902671098709
1725891374755377200,2.810377197265625,0.13927717506885529,0.1721111536026001,0.02909243479371071
1725891374774226200,2.82922607421875,0.2159406989812851,0.16264274716377258,-0.0017562361899763346
1725891374793075000,2.848074951171875,0.2605338394641876,0.1156061589717865,0.06207913160324097
1725891374811924000,2.866924072265625,0.2977965772151947,0.12446369975805283,0.14851650595664978
1725891374830772700,2.885772705078125,0.30451610684394836,0.07345648854970932,0.3281107544898987
1725891374849621800,2.904621826171875,0.25381430983543396,0.01359174121171236,0.4344012141227722
1725891374868470800,2.923470703125,0.2809978127479553,0.005650499369949102,0.4563923478126526
1725891374887319600,2.942319580078125,0.3222311735153198,-0.2124282270669937,0.47441285848617554
1725891374906168600,2.96116845703125,0.2816086709499359,-0.3355174660682678,0.5749000906944275
1725891374925017600,2.980017578125,0.2055560052394867,-0.11285726726055145,0.7346412539482117
1725891374943866400,2.998866455078125,0.15057817101478577,-0.0007635809597559273,0.7441096305847168
1725891374962715400,3.01771533203125,0.21258094906806946,0.12873975932598114,0.7172316312789917
1725891374981564200,3.036564208984375,0.23457208275794983,0.011148282326757908,0.5590176582336426
1725891375000413200,3.0554130859375,0.29962918162345886,-0.12324196845293045,0.4817432463169098
1725891375019262200,3.07426220703125,0.31184646487236023,-0.12018764764070511,0.43715012073516846
1725891375038111000,3.093111083984375,0.2263254076242447,-0.0386371985077858,0.4820486605167389
1725891375056960000,3.1119599609375,0.19303326308727264,-0.004123337101191282,0.5474112033843994
1725891375075808800,3.130808837890625,0.2419024556875229,-0.17302745580673218,0.5394699573516846
1725891375094657800,3.14965771484375,0.3066541254520416,-0.29184064269065857,0.525420069694519
1725891375113506600,3.168506591796875,0.3283398151397705,-0.2994764447212219,0.5263363718986511
1725891375132355600,3.18735546875,0.32039856910705566,-0.33307403326034546,0.5816196203231812
1725891375151204600,3.20620458984375,0.2938259541988373,-0.49250972270965576,0.7132610082626343
1725891375170053400,3.225053466796875,0.3555232882499695,-0.41095927357673645,0.7627410292625427
1725891375188902400,3.24390234375,0.4312705397605896,-0.21517711877822876,0.664391815662384
1725891375207751400,3.26275146484375,0.5287034511566162,-0.1614210158586502,0.5452731847763062
1725891375226600200,3.28160009765625,0.5192350745201111,-0.08353576064109802,0.409050315618515
1725891375245449200,3.30044921875,0.5250383019447327,-0.2026543915271759,0.4289034307003021
1725891375264298200,3.31929833984375,0.36132651567459106,-0.27717989683151245,0.33421939611434937
1725891375283147000,3.33814697265625,0.34697118401527405,-0.16478078067302704,0.46433359384536743
1725891375301996000,3.35699609375,0.4150826036930084,-0.09147699922323227,0.6607266068458557
1725891375320844800,3.3758447265625,0.5051851868629456,-0.13484840095043182,0.6860775351524353
1725891375339693800,3.39469384765625,0.5125155448913574,-0.3779725730419159,0.29451319575309753
1725891375358542800,3.41354296875,0.33169957995414734,-0.17394374310970306,-0.3704131245613098
1725891375377391600,3.4323916015625,-0.053756099194288254,0.2179260104894638,-0.9525672793388367
1725891375396240600,3.45124072265625,-0.4379900395870209,0.35017824172973633,-1.4589741230010986
1725891375415089700,3.470089599609375,-0.7706059217453003,0.17516547441482544,-1.8224387168884277
1725891375433938400,3.4889384765625,-1.18446683883667,-0.34895649552345276,-2.1767401695251465
1725891375452787500,3.507787353515625,-1.700036644935608,-0.9143118858337402,-2.385045289993286
1725891375471636500,3.526636474609375,-1.9260566234588623,-1.4906628131866455,-2.3016622066497803
1725891375490485200,3.5454853515625,-1.9092578887939453,-1.9698861837387085,-2.1119885444641113
1725891375509334300,3.564334228515625,-1.8768820762634277,-2.4292564392089844,-1.798309564590454
1725891375528183300,3.583183349609375,-1.563202977180481,-2.3840525150299072,-1.8642829656600952
1725891375547032000,3.602031982421875,-0.9462295174598694,-2.249662160873413,-2.5117995738983154
1725891375565881000,3.620881103515625,-0.637742817401886,-2.2499678134918213,-3.127856731414795
1725891375584730000,3.639730224609375,-0.850934624671936,-1.6632320880889893,-3.6962664127349854
1725891375603579000,3.658578857421875,-1.2614357471466064,-0.7298306822776794,-4.02002477645874
1725891375622428000,3.677427978515625,-1.4254529476165771,0.12873975932598114,-4.094550132751465
1725891375641277000,3.69627685546875,-0.8631519079208374,-0.4549415409564972,-3.9122071266174316
1725891375660125700,3.715125732421875,-0.36651885509490967,-1.9708025455474854,-3.589059591293335
1725891375678974700,3.733974609375,-0.18600831925868988,-2.3599233627319336,-3.5313329696655273
1725891375697823700,3.75282373046875,-0.12003492563962936,-2.489121198654175,-3.4791040420532227
1725891375716672500,3.771672607421875,0.06566796451807022,-2.6143486499786377,-3.2222354412078857
1725891375735521500,3.790521484375,0.20799945294857025,-2.3128867149353027,-3.075322389602661
1725891375754370600,3.80937060546875,0.3430005609989166,-1.9601123332977295,-2.9064183235168457
1725891375773219300,3.82821923828125,0.4923570156097412,-1.8868086338043213,-2.630918264389038
1725891375792068400,3.847068359375,0.562911868095398,-1.5697697401046753,-2.452240228652954
1725891375810917400,3.86591748046875,0.4276053309440613,-1.3471095561981201,-2.069533586502075
1725891375829766100,3.88476611328125,0.27916520833969116,-1.46714448928833,-1.712788462638855
1725891375848615200,3.903615234375,0.14569124579429626,-1.6980513334274292,-1.3700933456420898
1725891375867464200,3.922464111328125,0.2516762912273407,-1.8577924966812134,-1.0817651748657227
1725891375886313200,3.941313232421875,0.5396990180015564,-1.7948734760284424,-0.8187878727912903
1725891375905162000,3.960161865234375,0.7834340929985046,-1.3962842226028442,-0.557337760925293
1725891375924011000,3.979010986328125,0.9187406301498413,-0.9631810188293457,-0.24121522903442383
1725891375942859800,3.99785986328125,0.9107993841171265,-0.4604393243789673,-0.08697187155485153
1725891375961708800,4.016708740234375,0.8469640016555786,-0.25091269612312317,0.019624030217528343
1725891375980557800,4.035557861328125,0.7757982611656189,-0.24052800238132477,0.09262236952781677
1725891375999406800,4.05440673828125,0.6243038177490234,-0.25793763995170593,0.1222493126988411
1725891376018255600,4.073255615234375,0.4175260663032532,-0.19135339558124542,0.2511417865753174
1725891376037104600,4.092104736328125,0.22296564280986786,-0.29825472831726074,0.25786128640174866
1725891376055953700,4.11095361328125,0.04825831577181816,-0.40485063195228577,0.27343833446502686
1725891376074802700,4.129802734375,-0.1646280586719513,-0.42592546343803406,0.3986656367778778
1725891376093651500,4.1486513671875,-0.31612253189086914,-0.6082686185836792,0.44784024357795715
1725891376112500500,4.16750048828125,-0.4557051360607147,-0.9198096394538879,0.5003746151924133
1725891376131349500,4.186349609375,-0.6545416116714478,-1.2771655321121216,0.5739838480949402
1725891376150198300,4.2051982421875,-0.8851430416107178,-1.4271328449249268,0.5544361472129822
1725891376169047300,4.22404736328125,-0.9010255336761475,-1.1751511096954346,0.27771440148353577
1725891376187896300,4.242896240234375,-0.711962878704071,-0.6669116020202637,-0.12759438157081604
1725891376206745000,4.2617451171875,-0.4013381600379944,0.11285726726055145,-0.49197521805763245
1725891376225594000,4.280593994140625,-0.11728604137897491,0.9170607328414917,-0.4843394160270691
1725891376244443100,4.299443115234375,0.14630211889743805,1.4213296175003052,-0.3197113573551178
1725891376263292200,4.318292236328125,0.40897396206855774,1.6229150295257568,-0.2421315312385559
1725891376282141000,4.337140869140625,0.6142245531082153,1.1815651655197144,-0.3142135739326477
1725891376300990000,4.355989990234375,0.6737838387489319,0.42195484042167664,-0.2903898358345032
1725891376319839000,4.3748388671875,0.6722567081451416,-0.310166597366333,-0.08177952468395233
1725891376338688000,4.39368798828125,0.6856957077980042,-0.838259220123291,0.05261072888970375
1725891376357536800,4.412536865234375,0.6826413869857788,-0.9341649413108826,0.17081306874752045
1725891376376385800,4.4313857421875,0.5030471682548523,-0.21029019355773926,0.2612210512161255
1725891376395234800,4.45023486328125,0.6010909676551819,0.7646499872207642,0.004046979360282421
1725891376414083600,4.46908349609375,0.2605338394641876,0.1773035079240799,-0.0322994738817215
1725891376432932600,4.4879326171875,-0.5039634704589844,0.16355904936790466,0.24136795103549957
1725891376451781600,4.50678173828125,-1.0665699243545532,-0.021227551624178886,0.20746494829654694
1725891376470630400,4.52563037109375,-1.4001020193099976,0.26282456517219543,0.005268708802759647
1725891376489479400,4.5444794921875,-1.4911209344863892,0.34406960010528564,-0.17218750715255737
1725891376508328400,4.563328369140625,-1.53510320186615,0.2328922003507614,-0.3203222155570984
1725891376527177500,4.582177490234375,-1.5048654079437256,0.3352120518684387,-0.3200167715549469
1725891376546026200,4.601026123046875,-1.4578287601470947,0.30894485116004944,-0.24701844155788422
1725891376564875300,4.619875244140625,-1.424842119216919,0.3104720115661621,-0.19906556606292725
1725891376583724300,4.638724365234375,-1.2895355224609375,0.5823068618774414,-0.1712712198495865
1725891376602573800,4.65757373046875,-1.1322379112243652,0.9283617734909058,-0.10224349051713943
1725891376621422000,4.676422119140625,-1.1951569318771362,1.356272578239441,0.15157082676887512
1725891376640271000,4.69527099609375,-1.0192278623580933,1.440266489982605,0.3836994469165802
1725891376659120000,4.7141201171875,-0.7980948090553284,1.3043490648269653,0.609108567237854
1725891376677969200,4.73296923828125,-0.47922343015670776,1.213940978050232,0.9441678524017334
1725891376696818000,4.75181787109375,-0.025961752980947495,0.929888904094696,1.377271056175232
1725891376715667200,4.770667236328125,-0.01588248461484909,0.893542468547821,0.8937715291976929
1725891376734516000,4.789515869140625,-0.15118902921676636,-0.05177079141139984,-0.18684826791286469
1725891376753365000,4.808364990234375,0.010995565913617611,-0.6696605086326599,0.10514509677886963
1725891376772214000,4.827214111328125,-0.10354158282279968,-0.5563451051712036,0.18547381460666656
1725891376791063000,4.84606298828125,-0.25503605604171753,-0.22495095431804657,0.03672824427485466
1725891376809911800,4.864911865234375,-0.35643959045410156,0.15989385545253754,-0.14836378395557404
1725891376828760800,4.8837607421875,-0.3283398151397705,0.21029019355773926,-0.320933073759079
1725891376847609900,4.90260986328125,-0.1740964651107788,0.32849252223968506,-0.5356520414352417
1725891376866459000,4.921458984375,0.20799945294857025,0.6766854524612427,-0.6388881802558899
1725891376885307600,4.9403076171875,0.3533852696418762,0.5364919900894165,-0.41897687315940857
1725891376904156700,4.95915673828125,0.3292561173439026,0.2292270064353943,-0.24701844155788422
1725891376923005700,4.978005615234375,0.2984074354171753,-0.11163553595542908,-0.2213621288537979
1725891376941854500,4.9968544921875,0.3182605504989624,-0.004123337101191282,-0.23907721042633057
1725891376960703500,5.015703369140625,0.43371400237083435,-0.08109229803085327,-0.26503896713256836
1725891376979552500,5.034552490234375,0.5253437161445618,-0.4329504072666168,-0.2848920524120331
1725891376998401500,5.053401611328125,0.72173672914505,-0.35811948776245117,-0.3401753306388855
1725891377017250600,5.07225048828125,1.415373682975769,1.354134440422058,-0.2641226649284363
1725891377036099600,5.091099609375,1.8921536207199097,1.9130758047103882,-0.1395062506198883
1725891377054948400,5.1099482421875,1.5723659992218018,1.3083196878433228,0.48907360434532166
1725891377073797400,5.12879736328125,1.3906337022781372,-0.34376415610313416,0.051389001309871674
1725891377092646400,5.147646484375,1.028390884399414,0.4045451879501343,-0.4015672206878662
1725891377111495400,5.166495361328125,0.5244274139404297,0.5572614073753357,-0.20364704728126526
1725891377130344200,5.18534423828125,0.13958260416984558,-0.6549997329711914,-0.27053675055503845
1725891377149193200,5.204193115234375,-0.291687935590744,-0.838259220123291,-0.42447465658187866
1725891377168042200,5.223042236328125,-0.42882707715034485,-0.9686788320541382,-0.29130613803863525
1725891377186891300,5.241891357421875,-0.3992001414299011,-1.1192569732666016,-0.15386156737804413
1725891377205740300,5.260740234375,-0.40775224566459656,-1.1372774839401245,-0.23357942700386047
1725891377224589000,5.279589111328125,-0.45020735263824463,-1.1265873908996582,-0.43424850702285767
1725891377243438000,5.29843798828125,-0.5235111117362976,-0.9054543375968933,-0.8294780254364014
1725891377262287000,5.317287109375,-0.6365211009979248,-0.7594576478004456,-1.1813361644744873
1725891377281136000,5.33613623046875,-0.777325451374054,-0.3113883137702942,-1.1688133478164673
1725891377299985200,5.354985107421875,-0.8573487401008606,0.12843431532382965,-1.1825578212738037
1725891377318834200,5.373834228515625,-0.9578359723091125,0.3620901107788086,-1.1352158784866333
1725891377337683000,5.392682861328125,-1.0393863916397095,0.44577857851982117,-1.0105993747711182
1725891377356532000,5.411531982421875,-1.0760383605957031,0.6082686185836792,-0.7268527150154114
1725891377375381000,5.430381103515625,-0.9798271059989929,0.7148644924163818,-0.40492698550224304
1725891377394230000,5.44922998046875,-0.8936951756477356,0.6207913160324097,0.0193185992538929
1725891377413078800,5.468078857421875,-0.7626646757125854,0.5768090486526489,0.24869832396507263
1725891377431927800,5.486927734375,-0.6038398146629333,0.342542439699173,0.27863070368766785
1725891377450776800,5.50577685546875,-0.49144071340560913,0.07223475724458694,0.2505309283733368
1725891377469625900,5.5246259765625,-0.4816668927669525,-0.10063996911048889,0.24320054054260254
1725891377488475000,5.543474853515625,-0.5204567909240723,-0.08017600327730179,0.235564723610878
1725891377507323600,5.56232373046875,-0.527481734752655,0.1769980639219284,0.28932082653045654
1725891377526172700,5.581172607421875,-0.5525271892547607,0.5120574235916138,0.3888917863368988
1725891377545021700,5.600021728515625,-0.6191114783287048,0.8251255750656128,0.58039790391922
1725891377563870700,5.61887060546875,-0.6805033683776855,1.089935541152954,0.7856484651565552
1725891377582719700,5.6377197265625,-0.6783653497695923,1.2805253267288208,0.968297004699707
1725891377601568800,5.65656884765625,-0.6594285368919373,1.3938406705856323,1.1747692823410034
1725891377620417500,5.67541748046875,-0.6792816519737244,1.3691006898880005,1.329928994178772
1725891377639266600,5.6942666015625,-0.6722567081451416,1.182176113128662,1.450269341468811
1725891377658115600,5.713115478515625,-0.5754346251487732,1.0236566066741943,1.4753148555755615
1725891377676964600,5.731964599609375,-0.40836310386657715,0.9592103958129883,1.5211296081542969
1725891377695813600,5.750813720703125,-0.1844811588525772,0.9833396077156067,1.5134938955307007
1725891377714662400,5.769662353515625,0.07635809481143951,1.1027636528015137,1.451796531677246
1725891377733511400,5.788511474609375,0.2629773020744324,0.9326378107070923,1.4240021705627441
1725891377752360400,5.8073603515625,0.45967575907707214,1.0337358713150024,1.3476440906524658
1725891377771209500,5.82620947265625,0.6078104376792908,1.095433235168457,1.3045780658721924
1725891377790058500,5.84505859375,0.7199041247367859,1.2313506603240967,1.3424516916275024
1725891377808907500,5.863907470703125,0.8170316219329834,1.1800380945205688,1.3555853366851807
1725891377827756500,5.882756591796875,0.851545512676239,1.2063052654266357,1.4294999837875366
1725891377846605300,5.901605224609375,0.8491020202636719,1.1711804866790771,1.4117848873138428
1725891377865454300,5.920454345703125,0.8353576064109802,1.0465641021728516,1.4316380023956299
1725891377884303400,5.939303466796875,0.8032872080802917,0.7918334603309631,1.4313325881958008
1725891377903152400,5.95815234375,0.7638863921165466,0.7029526233673096,1.4533237218856812
1725891377922001400,5.97700146484375,0.7611374855041504,0.5007563829421997,1.3485603332519531
1725891377940850400,5.995850341796875,0.7742711305618286,0.3510945439338684,1.208366870880127
1725891377959699200,6.01469921875,0.7751874327659607,0.301003634929657,1.0272455215454102
1725891377978548200,6.03354833984375,0.7360920310020447,0.3061959743499756,0.8097776174545288
1725891377997397200,6.052397216796875,0.6908880472183228,0.3572031855583191,0.6414843797683716
1725891378016246300,6.071246337890625,0.6487383842468262,0.4124864339828491,0.5446622967720032
1725891378035095300,6.09009521484375,0.6447677612304688,0.3119991719722748,0.4652498960494995
1725891378053944300,6.1089443359375,0.6731730103492737,0.21212279796600342,0.446007639169693
1725891378072793300,6.12779345703125,0.7308996915817261,0.04474584385752678,0.44386962056159973
1725891378091642000,6.14664208984375,0.7202095985412598,0.039248060435056686,0.4194350242614746
1725891378110491100,6.1654912109375,0.609948456287384,0.1776089370250702,0.43165233731269836
1725891378129340200,6.184340087890625,0.4825831651687622,0.3016144931316376,0.44264790415763855
1725891378148189200,6.203189208984375,0.38331764936447144,0.4747946560382843,0.43806639313697815
1725891378167038200,6.2220380859375,0.3433060050010681,0.443945974111557,0.35498878359794617
1725891378185887000,6.240886962890625,0.33505934476852417,0.2683223485946655,0.14973822236061096
1725891378204736300,6.259736328125,0.3396408259868622,0.17974695563316345,-0.06986765563488007
1725891378223585000,6.2785849609375,0.2718348205089569,0.10644318908452988,-0.2519053518772125
1725891378242434000,6.29743408203125,0.20127993822097778,0.2484692484140396,-0.41408994793891907
1725891378261283000,6.316282958984375,0.164322629570961,0.31871870160102844,-0.5417606830596924
1725891378280132000,6.335132080078125,0.15210533142089844,0.31383177638053894,-0.6492729187011719
1725891378298981000,6.353981201171875,0.1701258420944214,0.28267768025398254,-0.6990583539009094
1725891378317830000,6.372829833984375,0.19822561740875244,0.28787001967430115,-0.6737074851989746
1725891378336679000,6.391678955078125,0.2412915825843811,0.29214608669281006,-0.6220894455909729
1725891378355528000,6.41052783203125,0.3124573230743408,0.2328922003507614,-0.6055960655212402
1725891378374377000,6.429376953125,0.3894262909889221,0.16905683279037476,-0.648967444896698
1725891378393226000,6.44822607421875,0.4972439408302307,0.08414662629365921,-0.7051670551300049
1725891378412075000,6.467074951171875,0.5732966065406799,0.064598947763443,-0.7494547367095947
1725891378430924000,6.485924072265625,0.5806269645690918,0.09392046183347702,-0.7809142470359802
1725891378449772800,6.504772705078125,0.5537489056587219,0.09789107739925385,-0.8197041749954224
1725891378468622000,6.5236220703125,0.4981602132320404,0.07651081681251526,-0.9070578217506409
1725891378487470800,6.542470947265625,0.448069304227829,0.030085090547800064,-1.0063233375549316
1725891378506320000,6.56131982421875,0.33689191937446594,0.025503603741526604,-1.039310097694397
1725891378525169000,6.5801689453125,0.1905898153781891,0.018173227086663246,-0.9824996590614319
1725891378544018000,6.599017822265625,0.01282816007733345,0.031612250953912735,-0.8386409878730774
1725891378562867000,6.617866943359375,-0.19242240488529205,0.20906847715377808,-0.6553815603256226
1725891378581715700,6.6367158203125,-0.3539961278438568,0.19562944769859314,-0.5857429504394531
1725891378600565000,6.65556494140625,-0.43310311436653137,0.08048143237829208,-0.6004037261009216
1725891378619413800,6.674413818359375,-0.4248564541339874,-0.028557928279042244,-0.6627119183540344
1725891378638262800,6.6932626953125,-0.39767298102378845,-0.09544762223958969,-0.7231875658035278
1725891378657111800,6.71211181640625,-0.43951719999313354,-0.031612250953912735,-0.751592755317688
1725891378675960800,6.7309609375,-0.47036588191986084,-0.039248060435056686,-0.7497601509094238
1725891378694809900,6.749809814453125,-0.4984656572341919,-0.16355904936790466,-0.7806088328361511
1725891378713659000,6.768658935546875,-0.56382817029953,-0.42012226581573486,-0.7592285871505737
1725891378732508000,6.7875078125,-0.49052441120147705,-0.443945974111557,-0.7033344507217407
1725891378751356700,6.806356689453125,-0.45326167345046997,-0.5346593856811523,-0.7091376781463623
1725891378770205700,6.825205810546875,-0.4535670876502991,-0.5273290276527405,-0.7955750226974487
1725891378789054700,6.8440546875,-0.37751442193984985,-0.5080868005752563,-0.8490256667137146
1725891378807903700,6.86290380859375,-0.2101374864578247,-0.4903717041015625,-0.8923971056938171
1725891378826752800,6.881752685546875,-0.01588248461484909,-0.5581777095794678,-0.9412662386894226
1725891378845601800,6.900601806640625,0.057726722210645676,-0.6513345837593079,-0.9534835815429688
1725891378864450800,6.919450927734375,0.06352993845939636,-0.5487092733383179,-1.0078505277633667
1725891378883299600,6.938299560546875,0.07391463965177536,-0.5716167092323303,-1.0875684022903442
1725891378902148900,6.95714892578125,0.08368847519159317,-0.8275690674781799,-1.1999675035476685
1725891378920997600,6.97599755859375,0.13500112295150757,-0.8584177494049072,-1.3313034772872925
1725891378939846700,6.9948466796875,0.25320345163345337,-0.9488257169723511,-1.4287363290786743
1725891378958695700,7.01369580078125,0.29565855860710144,-0.9002619981765747,-1.4705805778503418
1725891378977544700,7.032544677734375,0.2660316228866577,-0.856279730796814,-1.5044835805892944
1725891378996393700,7.051393798828125,0.258395791053772,-0.7295252680778503,-1.510286808013916
1725891379015242800,7.07024267578125,0.09468404203653336,-0.44180795550346375,-1.3978877067565918
1725891379034091800,7.089091796875,-0.13103049993515015,-0.14370593428611755,-1.3597086668014526
1725891379052940500,7.1079404296875,-0.360410213470459,0.0001527161948615685,-1.401247501373291
1725891379071789600,7.12678955078125,-0.4880809485912323,0.09056070446968079,-1.074129343032837
1725891379090638600,7.145638671875,-0.49480047821998596,0.2533561587333679,-0.7604503035545349
1725891379109487600,7.164487548828125,-0.4361574649810791,0.21700970828533173,-0.6740128993988037
1725891379128336600,7.183336669921875,-0.3854556679725647,0.33429574966430664,-0.39881834387779236
1725891379147185700,7.202185546875,-0.3341430425643921,0.4790706932544708,-0.10743584483861923
1725891379166034700,7.22103466796875,-0.28496840596199036,0.4692968726158142,0.20318889617919922
1725891379184883700,7.2398837890625,-0.27091851830482483,0.5615374445915222,0.46799877285957336
1725891379203732500,7.258732421875,-0.24831652641296387,0.6843212842941284,0.6927970051765442
1725891379222581500,7.27758154296875,-0.2718348205089569,0.755181610584259,0.8788053393363953
1725891379241430500,7.296430419921875,-0.30604326725006104,0.8675807118415833,1.1127665042877197
1725891379260279600,7.315279541015625,-0.29626941680908203,1.0633628368377686,1.4096468687057495
1725891379279128600,7.334128662109375,-0.2935205399990082,1.1895064115524292,1.7230204343795776
1725891379297977600,7.3529775390625,-0.19944734871387482,1.3193151950836182,1.9710315465927124
1725891379316826600,7.37182666015625,-0.025350889191031456,1.5450297594070435,2.088928461074829
1725891379335675600,7.390675537109375,0.12492185086011887,1.641546368598938,2.1567344665527344
1725891379354524700,7.409524658203125,0.323452889919281,1.5108213424682617,2.186055898666382
1725891379373373400,7.42837353515625,0.6133082509040833,1.3984222412109375,2.055636405944824
1725891379392222500,7.447222412109375,0.7904590368270874,1.1980586051940918,1.9719479084014893
1725891379411071500,7.466071533203125,0.9309579133987427,0.9185879230499268,1.838473916053772
1725891379429920500,7.48492041015625,1.0656535625457764,0.7689260244369507,1.7065271139144897
1725891379448769500,7.50376953125,1.1655299663543701,0.5670352578163147,1.6213114261627197
1725891379467618600,7.52261865234375,1.1859939098358154,0.46135562658309937,1.5907682180404663
1725891379486467600,7.541467529296875,1.2046253681182861,0.34437501430511475,1.5464805364608765
1725891379505316400,7.56031640625,1.1985167264938354,0.1879936307668686,1.5614467859268188
1725891379524165600,7.57916552734375,1.2021819353103638,0.011453714221715927,1.505858063697815
1725891379543014400,7.598014404296875,1.135903000831604,-0.08078686892986298,1.3983458280563354
1725891379561863400,7.616863525390625,1.0470222234725952,-0.064598947763443,1.328707218170166
1725891379580712400,7.63571240234375,0.9963204264640808,-0.1766926348209381,1.2401318550109863
1725891379599561500,7.6545615234375,0.9028581380844116,-0.0539088174700737,1.1701878309249878
1725891379618410500,7.673410400390625,0.758083164691925,0.06643154472112656,1.0223585367202759
1725891379637259500,7.692259521484375,0.5836812853813171,0.1101083755493164,0.8769727349281311
1725891379656108500,7.711108642578125,0.4615083336830139,0.08659008145332336,0.7450259327888489
1725891379674957600,7.72995751953125,0.29443681240081787,0.11102467030286789,0.45272716879844666
1725891379693806300,7.748806396484375,0.07391463965177536,0.13973531126976013,0.019013166427612305
1725891379712655400,7.7676552734375,-0.14477495849132538,0.064598947763443,-0.4330267608165741
1725891379731504400,7.78650439453125,-0.24862197041511536,-0.0013744457392022014,-0.8838449716567993
1725891379750353400,7.805353515625,-0.26908594369888306,0.003512472379952669,-1.31633722782135
1725891379769202400,7.824202392578125,-0.34574946761131287,0.1669187992811203,-1.5557962656021118
1725891379788051000,7.843051025390625,-0.43860089778900146,0.5581777095794678,-1.630627155303955
1725891379806900000,7.86189990234375,-0.5244274139404297,1.0560325384140015,-1.4684425592422485
1725891379825749000,7.8807490234375,-0.47036588191986084,1.2961024045944214,-1.1492657661437988
1725891379844598000,7.899597900390625,-0.3970620930194855,1.0456477403640747,-0.7772490978240967
1725891379863446800,7.91844677734375,-0.31459537148475647,0.47296205163002014,-0.385990172624588
1725891379882296000,7.937296142578125,-0.17287473380565643,-0.310166597366333,-0.3459785282611847
1725891379901144800,7.956144775390625,-0.0772743970155716,-0.6696605086326599,-0.50144362449646
1725891379919994000,7.974994140625,-0.2617555558681488,-0.5209149122238159,-0.5872701406478882
1725891379938843000,7.9938427734375,-0.4459312856197357,-0.028557928279042244,-0.5817723274230957
1725891379957692000,8.01269189453125,-0.4520399272441864,0.11255183815956116,-0.6187296509742737
1725891379976541000,8.031541015625,-0.33597561717033386,-0.17883066833019257,-0.677067220211029
1725891379995390000,8.050389892578124,-0.21807873249053955,-0.4088212549686432,-0.7085267901420593
1725891380014239000,8.069239013671876,-0.23854269087314606,-0.6785180568695068,-0.7799979448318481
1725891380033088000,8.088087890625,-0.25534147024154663,-0.697760283946991,-0.8239802122116089
1725891380051937000,8.10693701171875,-0.2461785078048706,-0.8272636532783508,-1.001436471939087
1725891380070786000,8.1257861328125,-0.18906265497207642,-0.7912226319313049,-1.250363826751709
1725891380089634800,8.144634765625,-0.06627883017063141,-0.7377719283103943,-1.4198788404464722
1725891380108483800,8.16348388671875,0.05803215503692627,-0.884379506111145,-1.4757729768753052
1725891380127332900,8.182332763671875,0.06627883017063141,-0.9827287197113037,-1.489211916923523
1725891380146182000,8.201181884765624,0.09315688163042068,-1.0166317224502563,-1.5667917728424072
1725891380165031000,8.220031005859376,0.03756818547844887,-1.093906044960022,-1.6688061952590942
1725891380183880000,8.2388798828125,-0.05222893878817558,-1.057865023612976,-1.7341687679290771
1725891380202729000,8.25772900390625,-0.07880155742168427,-1.0596976280212402,-1.7912845611572266
1725891380221578000,8.276577880859374,-0.044898562133312225,-1.042288064956665,-1.79953134059906
1725891380240427000,8.295427001953126,0.010384701192378998,-1.190117359161377,-1.8206061124801636
1725891380259275800,8.31427587890625,-0.07513637095689774,-0.9714277386665344,-1.6920191049575806
1725891380278125000,8.333125,-0.18784092366695404,-0.5187768936157227,-1.4718023538589478
1725891380296973800,8.351973876953124,-0.3179551064968109,-0.15073087811470032,-1.342604398727417
1725891380315822800,8.37082275390625,-0.3759872615337372,0.1049160286784172,-1.3025927543640137
1725891380334672000,8.389671875,-0.44868019223213196,0.44241881370544434,-1.1010074615478516
1725891380353521000,8.40852099609375,-0.36193737387657166,0.5138899683952332,-0.6266708970069885
1725891380372370000,8.427369873046874,-0.3130682110786438,0.49312058091163635,-0.38263043761253357
1725891380391219000,8.446218994140626,-0.26908594369888306,0.5001455545425415,-0.11262819170951843
1725891380410068000,8.46506787109375,-0.2419024556875229,0.48181959986686707,0.1369100660085678
1725891380428917000,8.4839169921875,-0.19333870708942413,0.36453354358673096,0.36567893624305725
1725891380447765800,8.502765869140624,-0.12492185086011887,0.35506516695022583,0.5800924897193909
1725891380466614800,8.52161474609375,-0.01893680728971958,0.5850557684898376,0.8797216415405273
1725891380485463800,8.5404638671875,0.1594357043504715,0.9094249606132507,1.1866811513900757
1725891380504312800,8.559312744140625,0.28405213356018066,1.0450369119644165,1.4701224565505981
1725891380523161900,8.578161865234375,0.33231043815612793,1.0994038581848145,1.7425681352615356
1725891380542011000,8.597010986328126,0.5015199780464172,1.2854121923446655,1.8607704639434814
1725891380560860000,8.61585986328125,0.6472112536430359,1.4854704141616821,1.9261330366134644
1725891380579709000,8.634708984375,0.7040216326713562,1.4802781343460083,2.077932834625244
1725891380598558000,8.653557861328125,0.8604030609130859,1.2967132329940796,2.047084331512451
1725891380617406700,8.67240673828125,0.9190460443496704,1.1391100883483887,2.063883066177368
1725891380636255700,8.691255859375,0.988990068435669,0.8486438989639282,1.9921064376831055
1725891380655104800,8.710104736328125,1.0589340925216675,0.4433351159095764,1.9032255411148071
1725891380673953800,8.728953857421875,1.109330415725708,0.11377356201410294,1.855272650718689
1725891380692802800,8.747802734375,1.2107340097427368,-0.08139773458242416,1.7337106466293335
1725891380711651800,8.76665185546875,1.2082905769348145,-0.2991710305213928,1.679038166999817
1725891380730500900,8.7855009765625,1.082452416419983,-0.3455967605113983,1.73798668384552
1725891380749350000,8.804349853515625,0.9828814268112183,-0.281455934047699,1.802127480506897
1725891380768198700,8.82319873046875,0.9993748068809509,-0.20693044364452362,1.637499451637268
1725891380787048400,8.84204833984375,0.9040798544883728,-0.12476912885904312,1.3803253173828125
1725891380805896700,8.860896728515625,0.6884446144104004,0.05543597787618637,1.2578469514846802
1725891380824746000,8.87974609375,0.5403099060058594,0.01359174121171236,1.0501528978347778
1725891380843594800,8.8985947265625,0.3964512348175049,-0.2124282270669937,0.673249363899231
1725891380862443800,8.91744384765625,0.13194678723812103,-0.27687445282936096,0.2795470058917999
1725891380881292800,8.936292724609375,-0.12767073512077332,0.042913250625133514,-0.017944153398275375
1725891380900141800,8.955141845703125,-0.3029889166355133,0.29764387011528015,-0.3264308571815491
1725891380918990800,8.973990966796874,-0.4156934916973114,0.4127918779850006,-0.6144536137580872
1725891380937839900,8.99283984375,-0.4508182108402252,0.494647741317749,-0.8432224988937378
1725891380956689000,9.01168896484375,-0.45967575907707214,0.45127636194229126,-1.0371720790863037
1725891380975538000,9.030537841796875,-0.39186975359916687,0.2802342176437378,-1.1654536724090576
1725891380994386700,9.04938671875,-0.21227550506591797,0.09758564829826355,-1.1752275228500366
1725891381013236000,9.068236083984376,-0.0027488914784044027,-0.06643154472112656,-1.1477385759353638
1725891381032084700,9.087084716796875,0.04428769648075104,0.0206166859716177,-1.1526254415512085
1725891381050933800,9.105933837890625,-0.013133592903614044,0.08384118974208832,-1.1452951431274414
1725891381069782800,9.12478271484375,-0.08155044913291931,0.07773254066705704,-1.1590396165847778
1725891381088631800,9.1436318359375,-0.1640172004699707,0.013897174037992954,-1.2204314470291138
1725891381107480800,9.162480712890625,-0.281914085149765,0.02916879393160343,-1.1798089742660522
1725891381126329900,9.181329833984375,-0.4410443603992462,-0.12476912885904312,-1.1850013732910156
1725891381145179000,9.200178955078124,-0.5079340934753418,-0.45707955956459045,-1.2851831912994385
1725891381164028000,9.21902783203125,-0.4932733178138733,-0.47326749563217163,-1.342909812927246
1725891381182877000,9.237876953125,-0.3946186602115631,-0.7053961157798767,-1.3850594758987427
1725891381201725700,9.2567255859375,-0.3640754222869873,-0.9323323965072632,-1.3792563676834106
1725891381220574700,9.27557470703125,-0.36835145950317383,-0.966846227645874,-1.4302635192871094
1725891381239423700,9.294423828125,-0.32681265473365784,-1.087186574935913,-1.4714969396591187
1725891381258272800,9.313272705078125,-0.268169641494751,-1.1281145811080933,-1.5234204530715942
1725891381277121800,9.332121826171875,-0.2309068888425827,-1.1748456954956055,-1.6422336101531982
1725891381295970800,9.350970703125,-0.24312418699264526,-1.3993384838104248,-1.7650173902511597
1725891381314819800,9.36981982421875,-0.24923282861709595,-1.4329360723495483,-1.8777220249176025
1725891381333668900,9.3886689453125,-0.3084867000579834,-1.4283546209335327,-1.9772928953170776
1725891381352518000,9.407517822265625,-0.44409868121147156,-1.2102758884429932,-1.8856632709503174
1725891381371367000,9.426366943359374,-0.5360338687896729,-1.0102176666259766,-1.7152318954467773
1725891381390215700,9.445215576171876,-0.5769617557525635,-0.6097957491874695,-1.5221986770629883
1725891381409064700,9.464064697265625,-0.6466003656387329,-0.16600249707698822,-1.3502402305603027
1725891381427913700,9.482913818359375,-0.750141978263855,0.2649625837802887,-1.2134065628051758
1725891381446762800,9.5017626953125,-0.7712168097496033,0.5016726851463318,-1.0054070949554443
1725891381465611800,9.52061181640625,-0.7565560340881348,0.6039925217628479,-0.4369973838329315
1725891381484460800,9.539460693359375,-0.6890554428100586,0.634230375289917,-0.030772313475608826
1725891381503309800,9.558309814453125,-0.5207622051239014,0.6684387922286987,0.2618319094181061
1725891381522158800,9.577158935546874,-0.3500255048274994,0.7389936447143555,0.6310997009277344
1725891381541007600,9.596007568359376,-0.1380554437637329,0.8312342762947083,0.9288962483406067
1725891381559857000,9.61485693359375,-0.06352993845939636,0.9500474333763123,1.228219985961914
1725891381578705700,9.63370556640625,0.032070402055978775,1.0444260835647583,1.5382338762283325
1725891381597554700,9.6525546875,0.1334739476442337,1.1669044494628906,1.7495931386947632
1725891381616403700,9.67140380859375,0.2675587832927704,1.205694317817688,1.9279656410217285
1725891381635252700,9.690252685546875,0.41813695430755615,1.3330596685409546,2.007072687149048
1725891381654101800,9.709101806640625,0.5519163012504578,1.3217586278915405,2.1017565727233887
1725891381672950800,9.72795068359375,0.6914989352226257,1.2261583805084229,2.1576507091522217
1725891381691799800,9.7467998046875,0.8622356653213501,1.134528636932373,2.1402411460876465
1725891381710648800,9.76564892578125,0.9575305581092834,0.9271399974822998,2.2068252563476562
1725891381729497900,9.784497802734375,1.0152572393417358,0.4644099473953247,2.1396303176879883
1725891381748346600,9.8033466796875,1.0378592014312744,-0.04321868345141411,2.047084331512451
1725891381767195600,9.822195556640626,0.9767727851867676,-0.18646647036075592,2.125580310821533
1725891381786044700,9.841044677734375,0.9556979537010193,-0.21090106666088104,2.225762128829956
1725891381804893700,9.859893798828125,0.9798271059989929,-0.3052796721458435,2.256610870361328
1725891381823742700,9.87874267578125,0.9043853282928467,-0.4350884258747101,2.1313836574554443
1725891381842591700,9.897591796875,0.8017600178718567,-0.49189886450767517,1.967366337776184
1725891381861440800,9.916440673828125,0.6863065958023071,-0.4433351159095764,1.6863685846328735
1725891381880289800,9.935289794921875,0.4780016839504242,-0.3633118271827698,1.2535709142684937
1725891381899138600,9.954138671875,0.2663370370864868,-0.2704603672027588,0.774042010307312
1725891381917987800,9.97298779296875,0.05711585655808449,0.058795735239982605,0.4105774760246277
1725891381936836600,9.991836669921875,-0.14294235408306122,0.29214608669281006,0.13874267041683197
1725891381955686000,10.010685791015625,-0.2156352698802948,0.366060733795166,-0.11690424382686615
1725891381974534700,10.02953466796875,-0.314289927482605,3.5049893856048584,-0.5225184559822083
1725891381993383700,10.0483837890625,-0.09437860548496246,-0.8092431426048279,-0.6233111619949341
1725891382012232700,10.067232666015625,-0.09712749719619751,0.8584177494049072,-0.8206204771995544
1725891382031081700,10.086081787109375,-0.0030543238390237093,0.45127636194229126,-1.0695478916168213
1725891382049930800,10.1049306640625,0.07330377399921417,0.25793763995170593,-1.2115739583969116
1725891382068779800,10.12377978515625,0.09590577334165573,0.15867212414741516,-1.1364375352859497
1725891382087628800,10.14262890625,0.04153880476951599,-0.19532401859760284,-1.0585522651672363
1725891382106477800,10.161477783203125,-0.13561198115348816,-0.10705405473709106,-1.0683261156082153
1725891382125326600,10.18032666015625,-0.41844236850738525,0.3452913165092468,-1.1895828247070312
1725891382144175900,10.19917578125,-0.6441569328308105,0.4384481906890869,-1.2198206186294556
1725891382163024600,10.218024658203126,-0.6701186895370483,0.2444986253976822,-1.1718677282333374
1725891382181873700,10.236873779296875,-0.6569850444793701,-0.11743875592947006,-1.250363826751709
1725891382200722700,10.25572265625,-0.5809323787689209,-0.5639809370040894,-1.3765074014663696
1725891382219571700,10.27457177734375,-0.5870410799980164,-0.7835868000984192,-1.4198788404464722
1725891382238420700,10.293420654296876,-0.4770853817462921,-0.7533490061759949,-1.5276964902877808
1725891382257269800,10.312269775390625,-0.3656025826931,-0.808937668800354,-1.6923245191574097
1725891382276118800,10.331118896484375,-0.3087921440601349,-0.9265291690826416,-1.8856632709503174
1725891382294967800,10.3499677734375,-0.34605491161346436,-0.9976949095726013,-2.0670900344848633
1725891382313816600,10.368816650390626,-0.3750709891319275,-1.0288490056991577,-2.102214813232422
1725891382332665600,10.38766552734375,-0.38728827238082886,-1.2973240613937378,-2.1174864768981934
1725891382351514600,10.4065146484375,-0.3909534513950348,-1.5471677780151367,-2.197815179824829
1725891382370363600,10.42536376953125,-0.3695732057094574,-1.5709915161132812,-2.0643410682678223
1725891382389212700,10.444212646484376,-0.4004218578338623,-1.251509189605713,-1.8740568161010742
1725891382408061700,10.463061767578125,-0.499381959438324,-0.7466294765472412,-1.684688687324524
1725891382426910700,10.48191064453125,-0.5195404887199402,-0.4766272306442261,-1.461112141609192
1725891382445759700,10.500759765625,-0.5338957905769348,-0.23625195026397705,-1.156901478767395
1725891382464608800,10.51960888671875,-0.6169734001159668,0.18860450387001038,-0.5405389666557312
1725891382483457500,10.53845751953125,-0.4572322964668274,0.4592176079750061,-0.18959715962409973
1725891382502306800,10.557306884765625,-0.31123560667037964,0.5554288029670715,0.05352702736854553
1725891382521155600,10.576155517578124,-0.23915356397628784,0.7490729093551636,0.5144245028495789
1725891382540004600,10.595004638671876,-0.08979712426662445,0.9515746235847473,0.8601739406585693
1725891382558853600,10.613853515625,-0.04245510324835777,1.0267109870910645,1.1921789646148682
1725891382577702700,10.63270263671875,0.026572618633508682,1.1757619380950928,1.5791617631912231
1725891382596551700,10.6515517578125,0.1698204129934311,1.4454587697982788,1.7902156114578247
1725891382615400700,10.670400634765626,0.34574946761131287,1.5914554595947266,2.0092105865478516
1725891382634249700,10.689249755859375,0.5161807537078857,1.5767947435379028,2.2095742225646973
1725891382653098800,10.7080986328125,0.6637045741081238,1.5239548683166504,2.3644285202026367
1725891382671947500,10.726947509765624,0.851545512676239,1.2200497388839722,2.463388681411743
1725891382690796500,10.745796630859376,1.044884204864502,0.9137009978294373,2.4426190853118896
1725891382709645600,10.7646455078125,1.2583814859390259,0.6232348084449768,2.3558764457702637
1725891382728494600,10.78349462890625,1.433699607849121,0.25243985652923584,2.2162938117980957
1725891382747343600,10.802343505859374,1.515860915184021,-0.29275694489479065,2.0614395141601562
1725891382766192600,10.821192626953126,1.5668681859970093,-0.5306887626647949,2.007683515548706
1725891382785041700,10.840041748046875,1.5033382177352905,-0.5517635941505432,2.138713836669922
1725891382803890700,10.858890625,1.3271037340164185,-0.48731738328933716,2.180558204650879
1725891382822739700,10.87773974609375,1.1239912509918213,-0.4787652790546417,2.015319347381592
1725891382841588500,10.89658837890625,0.9404263496398926,-0.37400195002555847,1.6597959995269775
1725891382860437800,10.915437744140625,0.6420188546180725,-0.17088942229747772,1.1875975131988525
1725891382879286500,10.93428662109375,0.23854269087314606,-0.1406516134738922,0.7670170664787292
1725891382898135600,10.953135498046874,-0.08552107214927673,-0.049632761627435684,0.34521496295928955
1725891382916984600,10.971984619140626,-0.23243404924869537,0.05696314200758934,0.02328922040760517
1725891382935833600,10.99083349609375,-0.3393353819847107,0.16569706797599792,-0.2723693251609802
1725891382954682600,11.0096826171875,-0.4728093445301056,0.5068650245666504,-0.6303361058235168
1725891382973531600,11.02853173828125,-0.416304349899292,0.48853909969329834,-0.8383355736732483
1725891382992380700,11.047380615234376,-0.32620179653167725,0.4650208055973053,-0.8853721618652344
1725891383011229700,11.066229736328125,-0.2367101013660431,0.393244206905365,-0.7693078517913818
1725891383030078500,11.085078369140625,-0.12492185086011887,0.2026543915271759,-0.936073899269104
1725891383048927500,11.103927490234375,-0.20677772164344788,0.02916879393160343,-1.110475778579712
1725891383067776500,11.122776611328124,-0.29504770040512085,0.27259841561317444,-1.1532363891601562
1725891383086625500,11.14162548828125,-0.39339691400527954,0.577725350856781,-1.1184170246124268
1725891383105474600,11.160474609375,-0.4618137776851654,0.5740602016448975,-1.084208607673645
1725891383124323600,11.179323486328125,-0.5262600183486938,0.33368489146232605,-1.1535418033599854
1725891383143172600,11.198172607421874,-0.5907062292098999,-0.12446369975805283,-1.2842668294906616
1725891383162021600,11.217021728515626,-0.5849030017852783,-0.41004297137260437,-1.5029563903808594
1725891383180870700,11.23587060546875,-0.4932733178138733,-0.5080868005752563,-1.7036255598068237
1725891383199719400,11.254719482421875,-0.3243691921234131,-0.5838339924812317,-1.9110140800476074
1725891383218568400,11.273568359375,-0.17104214429855347,-0.5694786906242371,-2.133063554763794
1725891383237417500,11.29241748046875,-0.05436696484684944,-0.7619010806083679,-2.3673300743103027
1725891383256266500,11.3112666015625,-0.09407317638397217,-0.9622647166252136,-2.4412448406219482
1725891383275115500,11.330115478515625,-0.1692095398902893,-1.0074687004089355,-2.4785075187683105
1725891383293964500,11.348964599609374,-0.1951712965965271,-1.1537708044052124,-2.5200462341308594
1725891383312813600,11.3678134765625,-0.29016077518463135,-1.105207085609436,-2.359388828277588
1725891383331662600,11.38666259765625,-0.3796524703502655,-0.9561560750007629,-2.149556875228882
1725891383350511600,11.40551171875,-0.5146535634994507,-0.8761327862739563,-1.9956188201904297
1725891383369360600,11.424360595703124,-0.7012727856636047,-0.5242747068405151,-1.6941571235656738
1725891383388209400,11.44320947265625,-0.6884446144104004,-0.22525638341903687,-1.242117166519165
1725891383407058400,11.462058349609375,-0.5729911923408508,-0.026419902220368385,-0.7234929800033569
1725891383425907500,11.480907470703125,-0.4770853817462921,0.19837833940982819,-0.3749946057796478
1725891383444756500,11.499756591796874,-0.37843072414398193,0.4329504072666168,0.05169443041086197
1725891383463605500,11.51860546875,-0.2974911332130432,0.6769908666610718,0.5373319387435913
1725891383482454500,11.53745458984375,-0.20922118425369263,0.9030108451843262,1.0379356145858765
1725891383501303600,11.556303466796875,-0.19272783398628235,1.1672098636627197,1.4957787990570068
1725891383520152300,11.57515234375,-0.09621120244264603,1.5322015285491943,1.8418337106704712
1725891383539001600,11.594001708984376,0.0565049909055233,1.8593196868896484,2.0223441123962402
1725891383557850400,11.612850341796875,0.12125665694475174,1.7093523740768433,2.3610687255859375
1725891383576699400,11.631699462890625,0.19333870708942413,1.504712700843811,2.522336959838867
1725891383595548400,11.65054833984375,0.467006117105484,1.6110031604766846,2.4050509929656982
1725891383614397400,11.6693974609375,0.7703005075454712,1.4362958669662476,2.3919174671173096
1725891383633246500,11.68824658203125,0.9669989347457886,0.9799798130989075,2.614272117614746
1725891383652095500,11.707095458984375,1.1921026706695557,0.38102689385414124,2.487823247909546
1725891383670944500,11.725944580078124,1.3234385251998901,-0.08353576064109802,2.1790311336517334
1725891383689793300,11.744793212890626,1.3045017719268799,-0.4039343297481537,2.245309829711914
1725891383708642300,11.763642333984375,1.1853830814361572,-0.6204859018325806,2.387336015701294
1725891383727491300,11.7824912109375,1.018311619758606,-0.5862774848937988,2.5788419246673584
1725891383746340400,11.80134033203125,0.85918128490448,-0.5422952175140381,2.4084107875823975
1725891383765189400,11.820189453125,0.5115992426872253,-0.3611738085746765,1.8170936107635498
1725891383784038400,11.839038330078125,0.14477495849132538,0.012980876490473747,1.303661823272705
1725891383802887400,11.857887451171875,0.22785256803035736,-0.2231183648109436,1.0287725925445557
1725891383821736400,11.876736328125,0.3955349326133728,-0.27290382981300354,0.5807033181190491
1725891383840585500,11.89558544921875,0.210442915558815,-0.001679878099821508,0.1625663936138153
1725891383859434200,11.914434326171875,-0.12095122784376144,0.10308343172073364,-0.13553562760353088
1725891383878283300,11.933283203125,-0.17867794632911682,0.20173808932304382,-0.3746891915798187
1725891383897132300,11.95213232421875,-0.18906265497207642,0.4021017551422119,-0.7057778835296631
1725891383915981300,11.970981201171876,-0.23182319104671478,0.5899426341056824,-0.9657008647918701
1725891383934830300,11.989830322265625,-0.23457208275794983,0.5636754631996155,-1.1278854608535767
1725891383953679400,12.008679443359375,-0.22510367631912231,0.6000219583511353,-1.2060761451721191
1725891383972528400,12.0275283203125,-0.24373504519462585,0.7008146047592163,-1.2552508115768433
1725891383991377400,12.04637744140625,-0.2009745091199875,0.5789470672607422,-1.2552508115768433
1725891384010226200,12.06522607421875,-0.15057817101478577,0.17944152653217316,-1.3923898935317993
1725891384029075500,12.084075439453125,-0.22479823231697083,0.0899498388171196,-1.5918372869491577
1725891384047924200,12.10292431640625,-0.31642794609069824,0.40546149015426636,-1.7094286680221558
1725891384066773200,12.121773193359376,-0.4007273018360138,0.4399753510951996,-1.8251875638961792
1725891384085622300,12.140622314453125,-0.6337721943855286,0.43142324686050415,-2.125122308731079
1725891384104471300,12.15947119140625,-0.9645555019378662,1.2276854515075684,-2.3859615325927734
1725891384123320300,12.1783203125,-0.6960803866386414,0.9463822841644287,-2.4980552196502686
1725891384142169300,12.19716943359375,-0.28557929396629333,0.3040579557418823,-2.5038583278656006
1725891384161018400,12.216018310546875,-0.2910770773887634,-0.471129447221756,-2.4983606338500977
1725891384179867100,12.2348671875,-0.4202749729156494,-1.3477203845977783,-2.429943799972534
1725891384198716200,12.253716064453124,-0.33719736337661743,-1.550527572631836,-2.451934814453125
1725891384217565200,12.272565185546876,-0.3139844834804535,-1.5612176656723022,-2.4366631507873535
1725891384236414200,12.291414306640625,-0.3503309488296509,-1.457370638847351,-2.224998712539673
1725891384255263200,12.31026318359375,-0.2971857190132141,-1.3574942350387573,-1.951636552810669
1725891384274112300,12.3291123046875,-0.14630211889743805,-1.2014182806015015,-1.5765656232833862
1725891384292961300,12.347961181640626,-0.07941242307424545,-0.8083268404006958,-1.1904990673065186
1725891384311810300,12.366810302734375,-0.03787361457943916,-0.4124864339828491,-0.8493311405181885
1725891384330659300,12.385659423828125,-0.017104214057326317,0.07620538026094437,-0.3951531648635864
1725891384349508000,12.404508056640625,0.037262752652168274,0.5358811020851135,0.02390008419752121
1725891384368357000,12.423357177734376,0.14019346237182617,0.8623883724212646,0.46250098943710327
1725891384387206100,12.4422060546875,0.1285870373249054,1.0841323137283325,1.0186933279037476
1725891384406055200,12.46105517578125,0.21838416159152985,1.2634210586547852,1.4841723442077637
1725891384424904200,12.479904296875,0.31642794609069824,1.4136937856674194,1.7508147954940796
1725891384443753200,12.498753173828124,0.34697118401527405,1.5532764196395874,2.0205116271972656
1725891384462602200,12.517602294921875,0.46883872151374817,1.5560252666473389,2.2150721549987793
1725891384481451000,12.536450927734375,0.674700140953064,1.435990333557129,2.321057081222534
1725891384500300000,12.555300048828125,0.9013310074806213,1.274111270904541,2.3610687255859375
1725891384519149000,12.574149169921874,1.074511170387268,1.0529781579971313,2.3925282955169678
1725891384537998000,12.592998046875,1.1609485149383545,0.6363683938980103,2.4896557331085205
1725891384556847000,12.61184716796875,1.2800670862197876,0.0844520553946495,2.4023020267486572
1725891384575696100,12.630696044921875,1.4059052467346191,-0.4179842174053192,2.3244168758392334
1725891384594545200,12.649545166015624,1.3191624879837036,-0.5771145224571228,2.3470189571380615
1725891384613394200,12.668394287109376,1.0760383605957031,-0.6262891292572021,2.4560582637786865
1725891384632243000,12.687242919921875,0.8759800791740417,-0.6754637360572815,2.314948558807373
1725891384651092000,12.706092041015625,0.656679630279541,-0.5746710300445557,1.929187297821045
1725891384669941000,12.72494091796875,0.537255585193634,-0.24052800238132477,1.5208241939544678
1725891384688790000,12.7437900390625,0.4822777509689331,-0.10063996911048889,1.053207278251648
1725891384707639000,12.76263916015625,0.28466299176216125,-0.06734783947467804,0.5379427671432495
1725891384726488000,12.781488037109375,0.017715077847242355,0.05757400393486023,0.1882227063179016
1725891384745337000,12.800337158203124,-0.15149445831775665,0.1003345400094986,-0.03810269013047218
1725891384764185900,12.819185791015625,-0.2162461280822754,0.08323032408952713,-0.31146466732025146
1725891384783035000,12.838034912109375,-0.25870123505592346,0.16752967238426208,-0.5985711216926575
1725891384801884000,12.8568837890625,-0.27519458532333374,0.27809619903564453,-0.8200095891952515
1725891384820733000,12.87573291015625,-0.2974911332130432,0.2292270064353943,-0.9864702820777893
1725891384839582000,12.89458203125,-0.3081812858581543,0.2787070572376251,-1.0835977792739868
1725891384858431000,12.913430908203125,-0.28069236874580383,0.310166597366333,-1.1184170246124268
1725891384877280000,12.932280029296875,-0.2889390289783478,0.24724751710891724,-1.1730895042419434
1725891384896128800,12.951128662109374,-0.33322674036026,0.22586725652217865,-1.2552508115768433
1725891384914978000,12.96997802734375,-0.3814850449562073,0.24113887548446655,-1.3685661554336548
1725891384933826800,12.988826904296875,-0.4508182108402252,0.15409064292907715,-1.5475496053695679
1725891384952675800,13.00767578125,-0.4978547990322113,0.09422589093446732,-1.7204242944717407
1725891384971524900,13.02652490234375,-0.4871646761894226,-0.09880737960338593,-1.851149320602417
1725891384990374000,13.045373779296876,-0.4569268524646759,-0.28664830327033997,-1.980958104133606
1725891385009223000,13.064222900390625,-0.36163195967674255,-0.42653632164001465,-2.1074070930480957
1725891385028071700,13.08307177734375,-0.3017672002315521,-0.37522369623184204,-2.205451011657715
1725891385046921000,13.1019208984375,-0.35582873225212097,-0.3889681398868561,-2.245157241821289
1725891385065769700,13.120769775390626,-0.4196641147136688,-0.6207913160324097,-2.3939027786254883
1725891385084618800,13.13961865234375,-0.37354379892349243,-0.9937242865562439,-2.510577917098999
1725891385103467800,13.1584677734375,-0.2562577724456787,-1.1375828981399536,-2.3520584106445312
1725891385122316800,13.17731689453125,-0.23548837006092072,-1.207221508026123,-2.1987314224243164
1725891385141165800,13.196165771484376,-0.4453204274177551,-0.8709404468536377,-2.0475423336029053
1725891385160014800,13.215014892578125,-0.4969384968280792,-0.6192641854286194,-1.759214162826538
1725891385178863900,13.23386376953125,-0.4868592321872711,-0.35903576016426086,-1.399720311164856
1725891385197712600,13.252712646484374,-0.4917461574077606,0.051159925758838654,-0.9837213754653931
1725891385216561700,13.271561767578126,-0.3652971386909485,0.36392268538475037,-0.548480212688446
1725891385235410700,13.29041064453125,-0.2864955961704254,0.6638572812080383,-0.09124792367219925
1725891385254259700,13.309259765625,-0.2370155304670334,0.9277508854866028,0.42279478907585144
1725891385273108700,13.328108642578124,-0.18753549456596375,1.0593922138214111,0.8739184141159058
1725891385291957800,13.346957763671876,-0.0256563201546669,1.2680025100708008,1.257541537284851
1725891385310806800,13.365806884765625,0.1646280586719513,1.538004755973816,1.549229383468628
1725891385329655600,13.384655517578125,0.3243691921234131,1.8022037744522095,1.7951024770736694
1725891385348504600,13.403504638671874,0.44868019223213196,1.8968878984451294,2.0504438877105713
1725891385367353600,13.422353515625,0.554665207862854,1.8464914560317993,2.2401175498962402
1725891385386202600,13.44120263671875,0.6643154621124268,1.7652465105056763,2.368093729019165
1725891385405051600,13.4600517578125,0.8097012639045715,1.4295762777328491,2.476522207260132
1725891385423900700,13.478900634765624,0.9966259002685547,0.9030108451843262,2.5085926055908203
1725891385442749700,13.497749755859376,1.1591159105300903,0.41004297137260437,2.4307072162628174
1725891385461598500,13.516598388671875,1.2260055541992188,0.10277800261974335,2.522031545639038
1725891385480447500,13.535447509765625,1.2651009559631348,-0.015729768201708794,2.490571975708008
1725891385499296500,13.554296630859374,1.1884374618530273,-0.1461493968963623,2.4304018020629883
1725891385518145500,13.5731455078125,1.1340705156326294,-0.2942841053009033,2.217820882797241
1725891385536994600,13.59199462890625,1.1560616493225098,-0.3883572816848755,1.9545382261276245
1725891385555843600,13.610843505859375,1.138346552848816,-0.2759581506252289,1.6381102800369263
1725891385574692600,13.629692626953124,0.9388991594314575,0.1156061589717865,1.208672285079956
1725891385593541400,13.648541259765626,0.6551524996757507,0.15225805342197418,0.7847321629524231
1725891385612390700,13.667390625,0.34147340059280396,0.09208786487579346,0.34552037715911865
1725891385631239400,13.686239501953125,0.12095122784376144,0.3733910918235779,-0.07719803601503372
1725891385650088400,13.70508837890625,0.04825831577181816,0.523969292640686,-0.44432777166366577
1725891385668937500,13.7239375,0,0.5988001823425293,-0.6724857687950134
1725891385687786500,13.742786376953125,0.03695731982588768,0.6604975461959839,-0.8050433993339539
1725891385706635500,13.761635498046875,0.11911863088607788,0.6919570565223694,-0.9498183727264404
1725891385725484300,13.780484375,0.23396120965480804,0.6546943187713623,-1.1208604574203491
1725891385744333600,13.79933349609375,0.3194822669029236,0.35017824172973633,-1.307785153388977
1725891385763182300,13.818182373046875,0.33567020297050476,0.05757400393486023,-1.454087257385254
1725891385782031400,13.83703125,0.2837466895580292,0.027336198836565018,-1.5799254179000854
1725891385800880400,13.85588037109375,0.1288924664258957,0.32757624983787537,-1.5838960409164429
1725891385819729400,13.8747294921875,-0.07147117704153061,0.4751000702381134,-1.5814526081085205
1725891385838578400,13.893578369140625,-0.2724456787109375,0.13362666964530945,-1.7836488485336304
1725891385857427200,13.91242724609375,-0.23945899307727814,-0.2026543915271759,-1.9702680110931396
1725891385876276200,13.931276123046874,-0.1127045527100563,-0.7203623056411743,-2.152611017227173
1725891385895125200,13.950125244140626,-0.09682206809520721,-1.029765248298645,-2.256763458251953
1725891385913974300,13.968974365234375,-0.05528326332569122,-0.9851721525192261,-2.2906665802001953
1725891385932823300,13.9878232421875,0.04428769648075104,-1.1275036334991455,-2.460792303085327
1725891385951672300,14.00667236328125,0.01740964688360691,-1.3391683101654053,-2.469038963317871
1725891385970521300,14.025521240234376,-0.033597562462091446,-1.3474149703979492,-2.4333035945892334
1725891385989370400,14.044370361328125,-0.06475166976451874,-1.4283546209335327,-2.423835039138794
1725891386008219100,14.06321923828125,-0.16035200655460358,-1.3113739490509033,-2.2433245182037354
1725891386027068200,14.082068115234375,-0.35582873225212097,-1.0517563819885254,-2.0173046588897705
1725891386045917200,14.100917236328126,-0.5018253922462463,-0.43233954906463623,-1.8199952840805054
1725891386064766200,14.11976611328125,-0.5033525824546814,-0.14278964698314667,-1.4714969396591187
1725891386083615200,14.138615234375,-0.5558869242668152,0.0847574844956398,-0.8829286694526672
1725891386102464300,14.15746435546875,-0.45387253165245056,0.1101083755493164,-0.46112653613090515
1725891386121313300,14.176313232421874,-0.34636032581329346,0.28328853845596313,-0.14744748175144196
1725891386140162000,14.195162109375,-0.27000224590301514,0.6134609580039978,0.4405098557472229
1725891386159011000,14.214010986328125,-0.15760311484336853,0.8220712542533875,0.9704350829124451
1725891386177860000,14.232860107421875,-0.06200277432799339,0.9430224895477295,1.376354694366455
1725891386196709000,14.251709228515624,-0.01435532234609127,1.1204787492752075,1.802432894706726
1725891386215558100,14.27055810546875,0.060781046748161316,1.2041672468185425,2.0589962005615234
1725891386234407000,14.289406982421875,0.23518294095993042,1.2356266975402832,2.267301082611084
1725891386253256200,14.308256103515625,0.4581485986709595,1.354134440422058,2.387946844100952
1725891386272105000,14.32710498046875,0.6575959324836731,1.346804141998291,2.4866013526916504
1725891386290954000,14.3459541015625,0.8646790981292725,1.0474803447723389,2.607858180999756
1725891386309803000,14.364802978515625,1.0180062055587769,0.5090031027793884,2.5589888095855713
1725891386328652000,14.383652099609375,1.1013891696929932,-0.07864884287118912,2.5116469860076904
1725891386347501000,14.4025009765625,1.0946696996688843,-0.32421648502349854,2.558683395385742
1725891386366349800,14.421349853515625,1.092226266860962,-0.4805978536605835,2.569679021835327
1725891386385199000,14.44019921875,1.065959095954895,-0.5636754631996155,2.513479471206665
1725891386404048000,14.4590478515625,1.000291109085083,-0.49831295013427734,2.3366341590881348
1725891386422897000,14.47789697265625,0.9767727851867676,-0.4433351159095764,1.9823325872421265
1725891386441746000,14.496745849609376,0.971580445766449,-0.42103853821754456,1.5089123249053955
1725891386460595000,14.515594970703125,0.8998038172721863,-0.41065385937690735,1.0498474836349487
1725891386479444000,14.53444384765625,0.6835576891899109,-0.43020153045654297,0.6543125510215759
1725891386498292700,14.553292724609374,0.34116798639297485,-0.3165806829929352,0.31406086683273315
1725891386517141800,14.572141845703126,0.07910698652267456,-0.02825249545276165,0.0550541877746582
1725891386535990800,14.59099072265625,-0.02718348242342472,-0.08842267841100693,-0.2274707704782486
1725891386554839800,14.60983984375,-0.1646280586719513,0.0032070400193333626,-0.5374846458435059
1725891386573688800,14.628688720703124,-0.33689191937446594,0.04657844081521034,-0.7436515092849731
1725891386592537900,14.647537841796876,-0.43860089778900146,0.11804962158203125,-0.9311869740486145
1725891386611386600,14.66638671875,-0.48930269479751587,0.10338886082172394,-1.0533599853515625
1725891386630235600,14.685235595703125,-0.5051851868629456,0.01695149764418602,-1.1538472175598145
1725891386649084700,14.704084716796874,-0.45509424805641174,-0.0795651376247406,-1.3212242126464844
1725891386667933700,14.72293359375,-0.3903425931930542,-0.33307403326034546,-1.5310561656951904
1725891386686782700,14.74178271484375,-0.34116798639297485,-0.6501128673553467,-1.655367136001587
1725891386705631700,14.7606318359375,-0.22510367631912231,-0.8153517842292786,-1.7754020690917969
1725891386724480800,14.779480712890624,-0.15546508133411407,-0.7435751557350159,-1.9931753873825073
1725891386743329500,14.79832958984375,-0.15057817101478577,-0.5865828990936279,-2.2326343059539795
1725891386762178600,14.817178466796875,-0.05589412897825241,-0.6189587116241455,-2.3807690143585205
1725891386781027600,14.836027587890625,0.08032871782779694,-0.7777835726737976,-2.4610979557037354
1725891386799876600,14.854876708984374,0.05192350596189499,-0.8468112945556641,-2.449186086654663
1725891386818725600,14.8737255859375,-0.04276053607463837,-0.8996511101722717,-2.4412448406219482
1725891386837574400,14.892574462890625,-0.15118902921676636,-0.9903645515441895,-2.509967088699341
1725891386856423700,14.911423583984375,-0.22907429933547974,-1.1158971786499023,-2.440633773803711
1725891386875272400,14.9302724609375,-0.3298669755458832,-1.179121732711792,-2.3083815574645996
1725891386894121500,14.94912158203125,-0.6365211009979248,-0.6998983025550842,-1.9882885217666626
1725891386912970500,14.967970458984375,-0.7736602425575256,-0.29397866129875183,-1.677663803100586
1725891386931819500,14.986819580078125,-0.6963858604431152,0.012980876490473747,-1.362152099609375
1725891386950668500,15.00566845703125,-0.6239983439445496,0.4552469849586487,-0.9513455629348755
1725891386969517300,15.024517333984376,-0.41294458508491516,0.5820014476776123,-0.7216603755950928
1725891386988366300,15.043366455078125,-0.4584540128707886,0.5661189556121826,-0.3746891915798187
1725891387007215400,15.06221533203125,-0.48594292998313904,0.7399099469184875,0.21143557131290436
1725891387026064400,15.081064453125,-0.26419901847839355,0.7435751557350159,0.4038579761981964
1725891387044913400,15.099913330078126,-0.18417572975158691,0.6360629796981812,0.8100830316543579
1725891387063762400,15.118762451171875,-0.07452550530433655,0.7942769527435303,1.4441606998443604
1725891387082611200,15.137611083984375,0.1637117564678192,1.179121732711792,1.7553962469100952
1725891387101460200,15.156460205078124,0.36224281787872314,1.417969822883606,2.069380760192871
1725891387120309200,15.175309326171876,0.337808221578598,1.4249948263168335,2.3781728744506836
1725891387139158300,15.194158203125,0.29626941680908203,1.3422226905822754,2.5702898502349854
1725891387158007300,15.21300732421875,0.7290670871734619,1.4882192611694336,2.5150065422058105
1725891387176856000,15.23185595703125,0.9834923148155212,1.1110103130340576,2.469191789627075
1725891387195705000,15.250705078125,0.9040798544883728,0.588110089302063,2.7947826385498047
1725891387214554000,15.26955419921875,1.0216712951660156,-0.2955058515071869,2.745302677154541
1725891387264018700,15.319018798828125,0.7971785664558411,-0.35995206236839294,2.8809146881103516
1725891387282867700,15.33786767578125,0.646905779838562,-0.7026472091674805,2.7043747901916504
1725891387301716700,15.356716796875,0.5577195286750793,-0.5212203860282898,2.3940553665161133
1725891387320565500,15.3755654296875,0.6340776681900024,-0.6348412036895752,1.7807471752166748
1725891387339414500,15.39441455078125,0.5778780579566956,-0.49189886450767517,1.2303580045700073
1725891387358263600,15.413263671875,0.5277871489524841,-0.17486004531383514,0.9414190053939819
1725891387377112600,15.432112548828124,0.4318813979625702,-0.28176137804985046,0.5168679356575012
1725891387395961600,15.450961669921876,0.021380268037319183,0.07192932814359665,0.10697769373655319
1725891387414810600,15.469810546875,-0.23884813487529755,0.19532401859760284,-0.18318307399749756
1725891387433659400,15.488659423828125,-0.277332603931427,0.5013672709465027,-0.4800633490085602
1725891387452508400,15.50750830078125,-0.2461785078048706,0.3065013885498047,-0.7940478324890137
1725891387471357400,15.526357421875,-0.39889469742774963,0.22647811472415924,-1.026787281036377
1725891387490206500,15.54520654296875,-0.5968148708343506,0.5991056561470032,-1.258915901184082
1725891387509055500,15.564055419921875,-0.6884446144104004,0.7750346660614014,-1.4769946336746216
1725891387527904500,15.582904541015624,-0.7153226733207703,0.7353284955024719,-1.5527418851852417
1725891387546753300,15.601753173828126,-0.5436696410179138,0.5642863512039185,-1.3768128156661987
1725891387565602300,15.620602294921875,-0.24923282861709595,0.07376192510128021,-1.3951387405395508
1725891387584451300,15.639451416015625,-0.07269290834665298,-0.3672824501991272,-1.5893938541412354
1725891387603300400,15.65830029296875,-0.10690133273601532,-0.3092502951622009,-1.888717532157898
1725891387622149400,15.6771494140625,-0.328645259141922,-0.24816381931304932,-2.178267478942871
1725891387640998100,15.695998046875,-0.38728827238082886,-0.3202458620071411,-2.2301909923553467
1725891387659847200,15.71484716796875,-0.4043924808502197,-0.6354520916938782,-2.1959824562072754
1725891387678696200,15.7336962890625,-0.4056142270565033,-0.8297070860862732,-2.2430191040039062
1725891387697545200,15.752545166015626,-0.3860665261745453,-1.0398445129394531,-2.2992186546325684
1725891387716394200,15.771394287109375,-0.30054548382759094,-1.3794853687286377,-2.379241943359375
1725891387735243300,15.7902431640625,-0.22418737411499023,-1.4784455299377441,-2.307159900665283
1725891387754092000,15.809092041015624,-0.2162461280822754,-1.3770419359207153,-2.114126682281494
1725891387772941000,15.827941162109376,-0.2724456787109375,-1.0545053482055664,-1.9418628215789795
1725891387791790000,15.8467900390625,-0.4379900395870209,-1.0826051235198975,-1.8343505859375
1725891387810639000,15.86563916015625,-0.647516667842865,-0.6189587116241455,-1.528307318687439
1725891387829488000,15.884488037109374,-0.618806004524231,0.12385283410549164,-1.2497529983520508
1725891387848337000,15.9033369140625,-0.4783071279525757,0.08720094710588455,-1.0011310577392578
1725891387867186000,15.92218603515625,-0.5632173418998718,0.3364337682723999,-0.40431612730026245
1725891387886035000,15.941034912109375,-0.5076286196708679,0.5673406720161438,0.15706861019134521
1725891387904884000,15.959884033203124,-0.1539379209280014,0.883768618106842,0.5345830321311951
1725891387923733000,15.97873291015625,0.07147117704153061,1.2857176065444946,1.0397682189941406
1725891387942581800,15.997581787109375,0.06719512492418289,1.4842487573623657,1.6109267473220825
1725891387961430800,16.0164306640625,0.19181154668331146,1.6106977462768555,1.9688935279846191
1725891387980279800,16.03527978515625,0.22663083672523499,1.3125957250595093,2.097175121307373
1725891387999128800,16.05412890625,0.11362084746360779,1.0248783826828003,2.4417028427124023
1725891388017977900,16.072977783203125,0.48930269479751587,1.1305580139160156,2.3897793292999268
1725891388036827000,16.091826904296877,0.7959567904472351,1.3327542543411255,2.3274712562561035
1725891388055675600,16.110675537109376,0.9651663303375244,0.9308052062988281,2.5907537937164307
1725891388074524700,16.129524658203124,1.158199667930603,0.34987279772758484,2.6707770824432373
1725891388093373700,16.148373779296875,1.2675443887710571,-0.20540328323841095,2.583423614501953
1725891388112222700,16.16722265625,1.2889246940612793,-0.5584831237792969,2.5907537937164307
1725891388131071700,16.18607177734375,1.1630865335464478,-0.6012436747550964,2.591975688934326
1725891388149920500,16.20492041015625,0.9016364216804504,-0.439364492893219,2.726365804672241
1725891388168769500,16.22376953125,0.7415898442268372,-0.3043633699417114,2.5449390411376953
1725891388187618600,16.24261865234375,0.5424479246139526,-0.10399972647428513,2.062966823577881
1725891388206467600,16.261467529296876,0.4263836145401001,-0.020922118797898293,1.5235731601715088
1725891388225316600,16.280316650390624,0.38728827238082886,-0.026419902220368385,0.8711695075035095
1725891388244165400,16.299165283203124,0.16065743565559387,-0.20906847715377808,0.30428701639175415
1725891388263014400,16.318014404296875,-0.16737695038318634,-0.10399972647428513,-0.04085158184170723
1725891388281863400,16.336863525390626,-0.3591884970664978,0.25091269612312317,-0.30107998847961426
1725891388300712400,16.35571240234375,-0.43004879355430603,0.2435823380947113,-0.6498837471008301
1725891388319561500,16.3745615234375,-0.49113526940345764,0.37552911043167114,-0.8856775760650635
1725891388338410200,16.39341015625,-0.5112938284873962,0.5771145224571228,-0.9944115281105042
1725891388357259300,16.41225927734375,-0.6084213256835938,0.588110089302063,-1.156901478767395
1725891388376108300,16.4311083984375,-0.647516667842865,0.7078395485877991,-1.2851831912994385
1725891388394957300,16.449957275390624,-0.6261364221572876,0.32910341024398804,-1.4201842546463013
1725891388413806300,16.468806396484375,-0.45020735263824463,0.0010690133785828948,-1.4983749389648438
1725891388432655400,16.4876552734375,-0.1747073233127594,-0.28298309445381165,-1.59428071975708
1725891388451504000,16.506504150390626,-0.011606430634856224,-0.39416050910949707,-1.8520656824111938
1725891388470353200,16.525353271484374,-0.008552107028663158,-0.4283689260482788,-2.1605522632598877
1725891388489202200,16.5442021484375,-0.1899789422750473,-0.6702713966369629,-2.261955976486206
1725891388508051200,16.56305126953125,-0.24312418699264526,-0.7246383428573608,-2.228358268737793
1725891388526900000,16.58189990234375,-0.20280711352825165,-0.7496837973594666,-2.2381322383880615
1725891388545749000,16.6007490234375,-0.2156352698802948,-0.9689842462539673,-2.4024548530578613
1725891388564598000,16.619597900390627,-0.31642794609069824,-1.0532835721969604,-2.53256893157959
1725891388583447000,16.638447021484374,-0.3836230933666229,-1.4167481660842896,-2.5991532802581787
1725891388602296000,16.657296142578126,-0.34697118401527405,-1.7759366035461426,-2.563112258911133
1725891388621144800,16.676144775390625,-0.3176496922969818,-1.6293290853500366,-2.3633594512939453
1725891388639993900,16.694993896484377,-0.3750709891319275,-1.0300707817077637,-2.029827356338501
1725891388658843000,16.7138427734375,-0.37140578031539917,-0.3966039717197418,-1.7298927307128906
1725891388677692000,16.73269189453125,-0.4404335021972656,-0.11621702462434769,-1.640095591545105
1725891388696541000,16.751541015625,-0.5540543794631958,-0.008093958720564842,-1.1617884635925293
1725891388715390000,16.770389892578127,-0.46608981490135193,0.27107125520706177,-0.42080947756767273
1725891388734238700,16.78923876953125,-0.3066541254520416,0.4805978536605835,-0.11354449391365051
1725891388753087700,16.808087646484374,-0.20280711352825165,0.7005091905593872,0.3800342381000519
1725891388771936800,16.826936767578125,-0.24495677649974823,0.8727730512619019,0.8204677700996399
1725891388790785800,16.845785888671877,-0.21685700118541718,1.0517563819885254,1.3097704648971558
1725891388809634600,16.864634521484376,-0.024434590712189674,1.2270746231079102,1.6982804536819458
1725891388828483600,16.883483642578124,0.06719512492418289,1.2967132329940796,2.061134099960327
1725891388847332600,16.90233251953125,0.18570289015769958,1.4793617725372314,2.3476297855377197
1725891388866181600,16.921181640625,0.3695732057094574,1.5618284940719604,2.474689483642578
1725891388885030700,16.94003076171875,0.5845975875854492,1.437822937965393,2.552269458770752
1725891388903879400,16.95887939453125,0.8497129082679749,1.2887719869613647,2.6121342182159424
1725891388922728400,16.977728515625,1.0384701490402222,0.7163916826248169,2.6909356117248535
1725891388941577500,16.996577392578125,1.1154390573501587,0.06215549260377884,2.624962329864502
1725891388960426500,17.015426513671876,1.0409135818481445,-0.2597702443599701,2.7605743408203125
1725891388979275500,17.034275634765624,0.9230166673660278,-0.4222602844238281,2.8027238845825195
1725891388998124300,17.053124267578124,0.6792816519737244,-0.2811505198478699,2.854647397994995
1725891389016973300,17.071973388671875,0.7257073521614075,-0.4760163724422455,2.733696222305298
1725891389035822300,17.090822265625,0.8185588121414185,-0.44669488072395325,2.2077417373657227
1725891389054671400,17.10967138671875,0.6878337264060974,-0.27320927381515503,1.6848413944244385
1725891389073520400,17.128520263671874,0.5345066785812378,-0.16508620977401733,1.1142936944961548
1725891389092369200,17.147369140625,0.35185810923576355,0.06337722390890121,0.6133846044540405
1725891389111218200,17.16621826171875,0.13988803327083588,0.12324196845293045,0.3079521954059601
1725891389130067200,17.185067138671876,-0.053145237267017365,0.13545925915241241,0.04528035223484039
1725891389148916200,17.203916259765624,-0.1484401375055313,0.15500694513320923,-0.33223408460617065
1725891389167765200,17.22276513671875,-0.2406807243824005,0.27717989683151245,-0.7299070358276367
1725891389186614300,17.2416142578125,-0.3396408259868622,0.5367974042892456,-1.018235206604004
1725891389205463000,17.260463134765626,-0.38667741417884827,0.5862774848937988,-1.1727839708328247
1725891389224312000,17.27931201171875,-0.45326167345046997,0.5062541961669922,-1.2790744304656982
1725891389243161000,17.2981611328125,-0.4874700903892517,0.5111411213874817,-1.1740057468414307
1725891389262010000,17.317010009765625,-0.4935787320137024,0.2808450758457184,-1.2314270734786987
1725891389280859000,17.33585888671875,-0.555276095867157,0.10919208079576492,-1.4415645599365234
1725891389299708000,17.3547080078125,-0.5259546041488647,-0.09239330142736435,-1.5906155109405518
1725891389318557000,17.373556884765627,-0.45509424805641174,-0.24327689409255981,-1.693240761756897
1725891389337406000,17.392406005859375,-0.45875945687294006,-0.40026915073394775,-1.8209115266799927
1725891389356255000,17.4112548828125,-0.37262752652168274,-0.6885973215103149,-2.0121121406555176
1725891389375103700,17.430103759765625,-0.22663083672523499,-0.9695951342582703,-2.2069780826568604
1725891389393952800,17.448952880859373,-0.13011419773101807,-0.9763146042823792,-2.3474769592285156
1725891389412801800,17.4678017578125,-0.0513126403093338,-1.1168135404586792,-2.445826292037964
1725891389431650800,17.48665087890625,0.013439024798572063,-1.2304344177246094,-2.5429537296295166
1725891389450499800,17.505499755859375,0.031154103577136993,-1.262810230255127,-2.6046509742736816
1725891389469348600,17.5243486328125,0.07391463965177536,-1.493717074394226,-2.68100905418396
1725891389488197600,17.54319775390625,0.006108647678047419,-1.705687165260315,-2.648022413253784
1725891389507046700,17.562046630859374,-0.18264856934547424,-1.4301871061325073,-2.2821145057678223
1725891389525895700,17.580895751953125,-0.3707949221134186,-1.0288490056991577,-1.9577453136444092
1725891389544744700,17.59974462890625,-0.5467239618301392,-0.4045451879501343,-1.5741221904754639
1725891389563593500,17.618593505859376,-0.49480047821998596,-0.02153298258781433,-0.9657008647918701
1725891389582442500,17.6374423828125,-0.3836230933666229,0.46288278698921204,-0.37927067279815674
1725891389601291500,17.65629150390625,-0.3133736252784729,0.6546943187713623,-0.029245151206851006
1725891389620140500,17.675140625,-0.3426951467990875,0.8196278214454651,0.43256860971450806
1725891389638989600,17.693989501953126,-0.1795942485332489,1.114675521850586,0.9670752882957458
1725891389657838600,17.712838623046874,-0.07635809481143951,1.547778606414795,1.4521019458770752
1725891389676687400,17.731687255859374,0.10751219838857651,1.6803362369537354,1.9279656410217285
1725891389695536400,17.750536376953125,0.23518294095993042,1.5483895540237427,2.3134212493896484
1725891389714385400,17.769385498046876,0.2632827162742615,1.4469859600067139,2.4917938709259033
1725891389733234400,17.788234375,0.4001164436340332,1.2918262481689453,2.577314853668213
1725891389752083200,17.807083251953124,0.6517927050590515,1.0810779333114624,2.6377904415130615
1725891389770932200,17.82593212890625,0.8564324378967285,0.8678861260414124,2.684216260910034
1725891389789781200,17.84478125,1.0445787906646729,0.2393062710762024,2.6237406730651855
1725891389808630300,17.86363037109375,1.074511170387268,-0.24327689409255981,2.6206862926483154
1725891389827479300,17.882479248046874,0.9908226728439331,-0.3935496211051941,2.744691848754883
1725891389846328300,17.901328369140625,0.8442151546478271,-0.4027126133441925,2.8106651306152344
1725891389865177000,17.920177001953125,0.7067705392837524,-0.3092502951622009,2.7123160362243652
1725891389884026000,17.939026123046876,0.7892373204231262,-0.31291547417640686,2.406883478164673
1725891389902875100,17.957875244140624,0.8240565657615662,-0.22739441692829132,1.9078071117401123
1725891389921724200,17.97672412109375,0.6328558921813965,-0.20967933535575867,1.386128544807434
1725891389940573000,17.995572998046875,0.3707949221134186,-0.08384118974208832,0.9267582297325134
1725891389959422000,18.014421875,0.2052505612373352,0.10125083476305008,0.5852848291397095
1725891389978271000,18.03327099609375,0.001832594396546483,0.04016435891389847,0.28840452432632446
1725891389997120000,18.0521201171875,-0.18264856934547424,0.10674861818552017,0.03367391973733902
1725891390015969000,18.070968994140625,-0.3543015718460083,0.2680169343948364,-0.26076290011405945
1725891390034818000,18.089818115234376,-0.41355544328689575,0.1623373180627823,-0.6266708970069885
1725891390053667000,18.1086669921875,-0.44898560643196106,0.18555018305778503,-0.9015600681304932
1725891390072515800,18.127515869140623,-0.47036588191986084,0.3920224606990814,-1.0524436235427856
1725891390091364900,18.14636474609375,-0.4318813979625702,0.15073087811470032,-1.1654536724090576
1725891390110214000,18.1652138671875,-0.3854556679725647,0.07254019379615784,-1.3120611906051636
1725891390129063000,18.18406298828125,-0.27427828311920166,0.06215549260377884,-1.3847540616989136
1725891390147911700,18.20291162109375,-0.2009745091199875,-0.05329795181751251,-1.5234204530715942
1725891390166760700,18.2217607421875,-0.16554436087608337,-0.1724165827035904,-1.8551199436187744
1725891390185609700,18.240609619140624,-0.13439024984836578,-0.01908952370285988,-2.0316598415374756
1725891390204458800,18.259458740234376,-0.04214967042207718,0.040775224566459656,-2.0231077671051025
1725891390223307800,18.278307861328123,-0.02260199747979641,-0.17608177661895752,-2.1019093990325928
1725891390242156800,18.29715673828125,-0.12767073512077332,-0.3715584874153137,-2.166661024093628
1725891390261005800,18.316005859375,-0.22724169492721558,-0.4027126133441925,-2.1843760013580322
1725891390279854600,18.3348544921875,-0.2730565667152405,-0.49312058091163635,-2.301051378250122
1725891390298703600,18.35370361328125,-0.22357651591300964,-0.8394809365272522,-2.4232242107391357
1725891390317552600,18.372552734375,-0.16310089826583862,-1.1669044494628906,-2.496527910232544
1725891390336401700,18.391401611328124,-0.12767073512077332,-1.4546217918395996,-2.473926067352295
1725891390355250700,18.410250732421876,-0.18692462146282196,-1.588401198387146,-2.2998294830322266
1725891390374099500,18.429099365234375,-0.2370155304670334,-1.2707514762878418,-1.943084478378296
1725891390392948500,18.447948486328126,-0.26939135789871216,-0.8810197114944458,-1.6798018217086792
1725891390411797500,18.466797607421874,-0.4043924808502197,-0.36972591280937195,-1.4690533876419067
1725891390430646500,18.485646484375,-0.3805687427520752,-0.10583232343196869,-1.0793217420578003
1725891390449495600,18.50449560546875,-0.347582072019577,0.13790272176265717,-0.5075522661209106
1725891390468344600,18.523344482421876,-0.2981020212173462,0.45738500356674194,0.05199986323714256
1725891390487193300,18.542193359375,-0.20708316564559937,0.6809614896774292,0.4515054225921631
1725891390506042400,18.56104248046875,-0.164322629570961,0.9552397727966309,0.8253546953201294
1725891390524891400,18.579891357421875,-0.08002328872680664,1.1586577892303467,1.3433680534362793
1725891390543740400,18.598740478515627,0.0030543238390237093,1.3150391578674316,1.8711551427841187
1725891390562589400,18.61758935546875,0.1441640853881836,1.4518728256225586,2.298149585723877
1725891390581438200,18.636438232421874,0.27427828311920166,1.6412409543991089,2.4844634532928467
1725891390600287200,18.655287353515625,0.3695732057094574,1.6772819757461548,2.5760931968688965
1725891390619136300,18.67413623046875,0.5088503360748291,1.4830269813537598,2.6603925228118896
1725891390637985300,18.6929853515625,0.7721330523490906,1.024267554283142,2.6909356117248535
1725891390656834300,18.711834228515624,0.9541707634925842,0.3272708058357239,2.703152894973755
1725891390675683300,18.730683349609375,1.0317505598068237,-0.14004075527191162,2.7013204097747803
1725891390694532000,18.749531982421875,1.0653481483459473,-0.21212279796600342,2.7214789390563965
1725891390713381000,18.768381103515626,0.9498947262763977,-0.14920371770858765,2.846095323562622
1725891390732230100,18.787230224609374,0.8032872080802917,-0.2133445292711258,2.8027238845825195
1725891390751079200,18.8060791015625,0.8472694754600525,-0.2842048406600952,2.5253913402557373
1725891390769928200,18.82492822265625,0.9144645929336548,-0.16936226189136505,2.0739622116088867
1725891390788777200,18.843777099609376,0.8741474747657776,-0.14370593428611755,1.5418990850448608
1725891390807626200,18.862626220703124,0.7452550530433655,-0.14859285950660706,0.9762382507324219
1725891390826475000,18.88147509765625,0.5149590373039246,-0.12843431532382965,0.4508945643901825
1725891390845324000,18.900323974609375,0.20158538222312927,-0.15958842635154724,0.00679587060585618
1725891390864173000,18.919173095703126,0.010384701192378998,0.05849030241370201,-0.3181841969490051
1725891390883022000,18.93802197265625,-0.0769689604640007,0.17944152653217316,-0.5692496299743652
1725891390901871000,18.95687109375,-0.15149445831775665,0.22036947309970856,-0.8642973303794861
1725891390920720100,18.97572021484375,-0.2205221801996231,0.3400989770889282,-1.1306343078613281
1725891390939569000,18.99456884765625,-0.24556763470172882,0.4286743700504303,-1.2363139390945435
1725891390958418000,19.01341796875,-0.25350889563560486,0.3407098352909088,-1.2393683195114136
1725891390977267000,19.032266845703123,-0.2528980076313019,0.16478078067302704,-1.2491421699523926
1725891390996116000,19.051115966796875,-0.24006985127925873,0.14706569910049438,-1.2955678701400757
1725891391014965000,19.069965087890626,-0.21991132199764252,-0.009926552884280682,-1.3975822925567627
1725891391033814000,19.08881396484375,-0.26878049969673157,-0.20906847715377808,-1.6706387996673584
1725891391052662800,19.107662841796873,-0.379347026348114,-0.11682789027690887,-1.8404592275619507
1725891391071511800,19.12651171875,-0.4098902642726898,-0.2689332067966461,-1.954690933227539
1725891391090360800,19.14536083984375,-0.33719736337661743,-0.5578722357749939,-2.141004800796509
1725891391109209900,19.1642099609375,-0.28954991698265076,-0.7619010806083679,-2.230801820755005
1725891391128059000,19.183058837890623,-0.2761108875274658,-0.7619010806083679,-2.2747840881347656
1725891391146908000,19.201907958984375,-0.2516762912273407,-0.8718567490577698,-2.3884048461914062
1725891391165757000,19.2207568359375,-0.27977606654167175,-1.0764964818954468,-2.457432746887207
1725891391184605700,19.239605712890626,-0.29565855860710144,-1.2573124170303345,-2.4775912761688232
1725891391203454700,19.258454833984374,-0.30115634202957153,-1.427743673324585,-2.407341718673706
1725891391222303700,19.2773037109375,-0.33536475896835327,-1.4332414865493774,-2.3193771839141846
1725891391241152800,19.29615283203125,-0.4068359434604645,-1.1143701076507568,-2.083583354949951
1725891391260001800,19.315001708984376,-0.49480047821998596,-0.9921970963478088,-1.9394192695617676
1725891391278850800,19.333850830078124,-0.7031053900718689,-0.5981893539428711,-1.649869441986084
1725891391297699800,19.352699951171875,-0.7232639193534851,-0.10888664424419403,-1.1923316717147827
1725891391316548600,19.371548583984374,-0.6071996092796326,0.19410228729248047,-0.6602684855461121
1725891391335397600,19.390397705078126,-0.5516108870506287,0.5288561582565308,-0.07078395783901215
1725891391354246700,19.40924658203125,-0.44959646463394165,0.7518218159675598,0.4240165054798126
1725891391373095700,19.428095703125,-0.3274235129356384,0.9515746235847473,0.8375719785690308
1725891391391944700,19.44694482421875,-0.29016077518463135,1.0554215908050537,1.3342050313949585
1725891391410793700,19.465793701171876,-0.24251331388950348,1.2301290035247803,1.8363358974456787
1725891391429642800,19.484642822265624,-0.0769689604640007,1.3217586278915405,2.1594834327697754
1725891391448491500,19.503491455078127,0.008552107028663158,1.300378441810608,2.3916120529174805
1725891391467340500,19.522340576171874,0.12400554865598679,1.2875502109527588,2.5626540184020996
1725891391486189600,19.541189453125,0.3640754222869873,1.1018472909927368,2.6243515014648438
1725891391505038600,19.56003857421875,0.4923570156097412,0.9955568909645081,2.7324745655059814
1725891391523887600,19.5788876953125,0.6371319890022278,0.7060069441795349,2.764850378036499
1725891391542736600,19.597736572265624,0.7635809779167175,0.2234237939119339,2.6774966716766357
1725891391561585400,19.61658544921875,0.8124501705169678,-0.14309507608413696,2.6518404483795166
1725891391580434400,19.635434326171875,0.7880155444145203,-0.23655737936496735,2.734307050704956
1725891391599283500,19.654283447265627,0.5943714380264282,-0.2591593861579895,2.850982189178467
1725891391618132500,19.673132568359375,0.5051851868629456,-0.3410152494907379,2.770348072052002
1725891391636981500,19.6919814453125,0.5821541547775269,-0.3459021747112274,2.3867249488830566
1725891391655830500,19.71083056640625,0.5271763205528259,-0.22556181252002716,1.8155665397644043
1725891391674679600,19.729679443359377,0.3787361681461334,-0.16508620977401733,1.3207659721374512
1725891391693528300,19.7485283203125,0.2822195291519165,-0.039858926087617874,0.8644500374794006
1725891391712377300,19.76737744140625,0.10690133273601532,-0.06612611562013626,0.5119810700416565
1725891391731226400,19.786226318359375,-0.20341797173023224,-0.04718930274248123,0.28351762890815735
1725891391750075400,19.805075439453127,-0.3799578845500946,0.04810560122132301,-0.02802342176437378
1725891391768924400,19.82392431640625,-0.3634645342826843,0.05849030241370201,-0.4629591405391693
1725891391787773400,19.8427734375,-0.3481929302215576,0.08781181275844574,-0.8087086081504822
1725891391806622500,19.86162255859375,-0.347582072019577,0.12140937149524689,-1.0359503030776978
1725891391825471500,19.880471435546873,-0.3078758418560028,0.12324196845293045,-1.3206132650375366
1725891391844320300,19.8993203125,-0.14110976457595825,-0.012370011769235134,-1.5173118114471436
1725891391863169300,19.918169189453124,0.04214967042207718,-0.19624030590057373,-1.6510910987854004
1725891391882018300,19.937018310546875,0.205861434340477,-0.2945895493030548,-1.7201188802719116
1725891391900867300,19.955867431640623,0.31642794609069824,-0.5615374445915222,-1.750662088394165
1725891391919716400,19.97471630859375,0.25411975383758545,-0.662330150604248,-1.8068616390228271
1725891391938565400,19.9935654296875,0.19792018830776215,-0.5823068618774414,-1.9687408208847046
1725891391957414400,20.012414306640625,0.2003636509180069,-0.5517635941505432,-2.197815179824829
1725891391976263200,20.03126318359375,0.24251331388950348,-0.6262891292572021,-2.3047163486480713
1725891391995112200,20.0501123046875,0.18325942754745483,-0.9237802624702454,-2.353585720062256
1725891392013961200,20.068961181640624,0.13194678723812103,-0.9353867173194885,-2.4586544036865234
1725891392032810200,20.087810302734376,0.13194678723812103,-0.8107702732086182,-2.5704426765441895
1725891392051659300,20.1066591796875,0.04520399495959282,-0.8883501291275024,-2.705443859100342
1725891392070508300,20.12550830078125,-0.17531819641590118,-0.9653190970420837,-2.5924336910247803
1725891392089357300,20.144357421875,-0.44837474822998047,-0.6574432253837585,-2.2827253341674805
1725891392108206300,20.163206298828126,-0.8161153197288513,-0.33368489146232605,-1.898491382598877
1725891392127055000,20.18205517578125,-1.0861176252365112,0.03527744114398956,-1.563126564025879
1725891392145904000,20.200904052734376,-1.1691951751708984,0.40546149015426636,-1.2876266241073608
1725891392164753200,20.219753173828124,-1.0622938871383667,0.5074759125709534,-0.8416953086853027
1725891392183602200,20.238602294921876,-0.9963204264640808,0.6601921319961548,-0.345062255859375
1725891392202451200,20.257451171875,-0.9303470849990845,0.7921388745307922,0.041004300117492676
1725891392221300200,20.27630029296875,-0.8454368710517883,0.7890845537185669,0.37514734268188477
1725891392240149200,20.295149169921874,-0.8002328872680664,0.7237220406532288,0.7960331439971924
1725891392258998300,20.313998291015626,-0.6688969135284424,0.6840158104896545,1.2334123849868774
1725891392277847000,20.332846923828125,-0.4404335021972656,0.7994692921638489,1.5681662559509277
1725891392296696000,20.351696044921876,-0.20708316564559937,1.050534725189209,1.8534400463104248
1725891392315545000,20.370545166015624,-0.025045456364750862,1.3571888208389282,2.2376739978790283
1725891392334394000,20.38939404296875,0.23457208275794983,1.6785037517547607,2.49912428855896
1725891392353243100,20.4082431640625,0.545502245426178,1.8513784408569336,2.607858180999756
1725891392372092200,20.427092041015626,0.7977893948554993,1.7328706979751587,2.6518404483795166
1725891392390941200,20.445941162109374,1.0274745225906372,1.4579814672470093,2.728198528289795
1725891392409790200,20.464790283203126,1.341459035873413,0.9870047569274902,2.6377904415130615
1725891392428639000,20.483638916015625,1.518609881401062,0.3052796721458435,2.54677152633667
1725891392447488000,20.502488037109377,1.5833615064620972,-0.2909243404865265,2.5198936462402344
1725891392466337000,20.5213369140625,1.4960078001022339,-0.6036871075630188,2.5150065422058105
1725891392485186000,20.54018603515625,1.2290599346160889,-0.5401571989059448,2.5150065422058105
1725891392504035000,20.55903515625,1.0372483730316162,-0.5267181396484375,2.286543130874634
1725891392522884000,20.577884033203127,0.9486730098724365,-0.347123920917511,1.9371285438537598
1725891392541733000,20.596733154296874,0.8772017955780029,-0.2603811025619507,1.4020110368728638
1725891392560582000,20.615581787109374,0.6023126840591431,-0.12843431532382965,0.8009200692176819
1725891392579431000,20.634430908203125,0.23029601573944092,-0.11438442766666412,0.3476584255695343
1725891392598280000,20.653280029296877,0.027488915249705315,0.12324196845293045,0.041004300117492676
1725891392617129000,20.67212890625,-0.015271619893610477,0.05604684352874756,-0.19295690953731537
1725891392635978000,20.69097802734375,-0.0824667438864708,-0.04841103404760361,-0.4232529401779175
1725891392654827000,20.709826904296875,-0.1893680840730667,0.1464548259973526,-0.7097485065460205
1725891392673676000,20.728676025390627,-0.2577849328517914,0.20021092891693115,-1.0872629880905151
1725891392692525000,20.747525146484374,-0.33231043815612793,0.12996147572994232,-1.3994148969650269
1725891392711373800,20.766373779296874,-0.42088583111763,0.3046688139438629,-1.378645420074463
1725891392730222800,20.785222900390625,-0.40744680166244507,0.351705402135849,-1.343826174736023
1725891392749072000,20.80407177734375,-0.4453204274177551,0.20509785413742065,-1.4464514255523682
1725891392767921000,20.8229208984375,-0.4685332775115967,0.08353576064109802,-1.4592796564102173
1725891392786770000,20.84177001953125,-0.4276053309440613,-0.2964221239089966,-1.5869503021240234
1725891392805619000,20.860618896484375,-0.3909534513950348,-0.6036871075630188,-1.8838306665420532
1725891392824468000,20.879468017578127,-0.5174024701118469,-0.5804742574691772,-2.054872751235962
1725891392843316700,20.898316650390626,-0.48013970255851746,-0.512668251991272,-1.9974514245986938
1725891392862165800,20.917165771484374,-0.3481929302215576,-0.6684387922286987,-2.0432662963867188
1725891392881014800,20.936014892578125,-0.3274235129356384,-0.873078465461731,-2.1849870681762695
1725891392899863800,20.95486376953125,-0.37629270553588867,-1.0483967065811157,-2.244851589202881
1725891392918712800,20.973712890625,-0.35613417625427246,-1.2096649408340454,-2.3102142810821533
1725891392937561900,20.992561767578124,-0.33231043815612793,-1.419191598892212,-2.398178815841675
1725891392956411000,21.011410888671875,-0.2919933497905731,-1.3214532136917114,-2.2723405361175537
1725891392975260000,21.030260009765627,-0.21258094906806946,-1.2835795879364014,-2.082972526550293
1725891392994109000,21.04910888671875,-0.21502439677715302,-1.0593922138214111,-1.887495756149292
1725891393012957700,21.067957763671874,-0.3402516841888428,-0.6580541133880615,-1.575954794883728
1725891393031806700,21.086806640625,-0.43493571877479553,-0.3061959743499756,-1.2607485055923462
1725891393050655700,21.10565576171875,-0.4257727563381195,0.08048143237829208,-0.8386409878730774
1725891393069504800,21.1245048828125,-0.31581708788871765,0.37369653582572937,-0.39881834387779236
1725891393088353800,21.143353759765624,-0.1948658674955368,0.47815442085266113,0.06421715766191483
1725891393107202800,21.162202880859375,-0.14233149588108063,0.6638572812080383,0.5327504277229309
1725891393126051800,21.1810517578125,-0.06597339361906052,0.8507819175720215,0.9346994757652283
1725891393144900900,21.19990087890625,-0.050090912729501724,1.1299470663070679,1.3586395978927612
1725891393163749600,21.21874951171875,0.0409279391169548,1.4427099227905273,1.7764711380004883
1725891393182598700,21.2375986328125,0.14599667489528656,1.538004755973816,2.1466550827026367
1725891393201447700,21.25644775390625,0.3090975880622864,1.6168063879013062,2.3995532989501953
1725891393220296700,21.275296630859376,0.45509424805641174,1.3761255741119385,2.445978879928589
1725891393239145700,21.294145751953124,0.5900954008102417,1.1727076768875122,2.4386484622955322
1725891393257994800,21.312994873046875,0.8265000581741333,0.9527963399887085,2.487517833709717
1725891393276843800,21.33184375,0.9498947262763977,0.5270236134529114,2.5547127723693848
1725891393295692800,21.35069287109375,0.9578359723091125,0.012675444595515728,2.7306418418884277
1725891393314541800,21.369541748046874,1.0317505598068237,-0.2842048406600952,2.863199472427368
1725891393333390600,21.388390625,0.9841031432151794,-0.3868301212787628,2.896186351776123
1725891393352239600,21.407239501953125,0.5687150955200195,-0.46685341000556946,2.8228824138641357
1725891393371088600,21.426088623046876,0.47036588191986084,-0.5432115197181702,2.6774966716766357
1725891393389937700,21.444937744140624,0.8393282294273376,-0.4864010810852051,2.251113176345825
1725891393408786700,21.46378662109375,0.8820887207984924,-0.3324631452560425,1.451491117477417
1725891393427635700,21.4826357421875,0.45020735263824463,-0.17363831400871277,0.79358971118927
1725891393446484700,21.501484619140626,0.06719512492418289,-0.06368265300989151,0.39652758836746216
1725891393465333500,21.52033349609375,-0.12644900381565094,-0.0013744457392022014,0.1430187225341797
1725891393484182500,21.5391826171875,-0.27855435013771057,0.2393062710762024,-0.08972076326608658
1725891393503031600,21.558031494140625,-0.37323838472366333,0.1922696828842163,-0.42997244000434875
1725891393521880600,21.576880615234376,-0.4202749729156494,0.228921577334404,-0.723798394203186
1725891393540729600,21.5957294921875,-0.5296197533607483,0.3052796721458435,-0.8887318968772888
1725891393559578600,21.61457861328125,-0.6316341757774353,0.5258018374443054,-1.0047961473464966
1725891393578427600,21.633427734375,-0.6688969135284424,0.5209149122238159,-1.0915390253067017
1725891393597276700,21.652276611328126,-0.6444623470306396,0.46166107058525085,-1.1410191059112549
1725891393616125400,21.67112548828125,-0.6047561168670654,0.2075413018465042,-1.2442551851272583
1725891393634974500,21.689974365234374,-0.45326167345046997,-0.039858926087617874,-1.3316088914871216
1725891393653823500,21.708823486328125,-0.22296564280986786,-0.42653632164001465,-1.55640709400177
1725891393672672500,21.727672607421876,-0.15210533142089844,-0.38988444209098816,-1.7048472166061401
1725891393691521500,21.746521484375,-0.15760311484336853,-0.29764387011528015,-1.798309564590454
1725891393710370600,21.76537060546875,-0.26389357447624207,-0.4845684766769409,-2.0145556926727295
1725891393729219600,21.784219482421875,-0.32070401310920715,-0.4943423271179199,-2.089081287384033
1725891393748068400,21.803068359375,-0.3035998046398163,-0.7423534393310547,-2.0817508697509766
1725891393766917400,21.82191748046875,-0.3384190797805786,-0.9653190970420837,-2.2271366119384766
1725891393785766400,21.840766357421874,-0.3445277214050293,-1.050840139389038,-2.2766165733337402
1725891393804615400,21.859615478515625,-0.2767217457294464,-1.5352559089660645,-2.5038583278656006
1725891393823464400,21.87846435546875,-0.3237583339214325,-1.5517492294311523,-2.4110069274902344
1725891393842313500,21.8973134765625,-0.25900667905807495,-1.3422226905822754,-2.269897222518921
1725891393861162500,21.91616259765625,-0.2608392536640167,-1.151021957397461,-2.083583354949951
1725891393880011500,21.935011474609375,-0.33169957995414734,-0.6653844714164734,-1.7579925060272217
1725891393898860500,21.953860595703127,-0.4214966893196106,-0.35934120416641235,-1.4947097301483154
1725891393917709300,21.972709228515626,-0.6206386089324951,0.16600249707698822,-1.1544580459594727
1725891393936558300,21.991558349609374,-0.6304124593734741,0.47815442085266113,-0.7818305492401123
1725891393955407400,22.010407470703125,-0.5613847374916077,0.688902735710144,-0.37865981459617615
1725891393974256400,22.02925634765625,-0.4929678738117218,0.8373429179191589,0.21204642951488495
1725891393993105400,22.04810546875,-0.3023780584335327,1.0627520084381104,0.6714167594909668
1725891394011954400,22.066954345703124,-0.12522727251052856,1.200196623802185,0.9823469519615173
1725891394030803500,22.085803466796875,-0.007941242307424545,1.35657799243927,1.4777582883834839
1725891394049652200,22.10465234375,0.17226386070251465,1.4793617725372314,1.8974223136901855
1725891394068501200,22.123501220703126,0.30054548382759094,1.5288418531417847,2.152763843536377
1725891394087350300,22.142350341796874,0.5534434914588928,1.530063509941101,2.2938735485076904
1725891394106199300,22.16119921875,0.739757239818573,1.3877320289611816,2.3971097469329834
1725891394125048300,22.18004833984375,0.915686309337616,1.0651954412460327,2.4783546924591064
1725891394143897300,22.1988974609375,1.156977891921997,0.6296488642692566,2.47713303565979
1725891394162746400,22.217746337890624,1.2632683515548706,0.00045814859913662076,2.5315001010894775
1725891394181595400,22.236595458984375,1.2944225072860718,-0.5206094980239868,2.5510475635528564
1725891394200444200,22.255444091796875,1.3029745817184448,-0.7435751557350159,2.6823835372924805
1725891394219293200,22.274293212890626,1.1783581972122192,-0.8407026529312134,2.778900146484375
1725891394238142200,22.29314208984375,0.9053016304969788,-0.6458367705345154,2.747746229171753
1725891394256991200,22.3119912109375,0.7935133576393127,-0.5621483325958252,2.4728569984436035
1725891394275840300,22.33084033203125,0.7342594861984253,-0.27198755741119385,2.018373489379883
1725891394294689300,22.349689208984376,0.5430588126182556,-0.22006404399871826,1.4227803945541382
1725891394313538300,22.368538330078124,0.15088360011577606,-0.141262486577034,0.8051961660385132
1725891394332387300,22.38738720703125,-0.15210533142089844,-0.008093958720564842,0.4508945643901825
1725891394351236000,22.406236083984375,-0.3335321843624115,0.11346813291311264,0.2664133906364441
1725891394370085000,22.425085205078126,-0.4068359434604645,0.2735147178173065,0.01779143698513508
1725891394388934100,22.44393408203125,-0.4612029194831848,0.11224640160799026,-0.36766424775123596
1725891394407783200,22.462783203125,-0.5222893953323364,0.2338084876537323,-0.695698618888855
1725891394426632200,22.481632080078125,-0.62857985496521,0.523969292640686,-0.8380300998687744
1725891394445481200,22.500481201171876,-0.6945532560348511,0.6131555438041687,-0.9944115281105042
1725891394464330200,22.519330322265624,-0.7422007322311401,0.513584554195404,-1.1996620893478394
1725891394483179300,22.53817919921875,-0.6817250847816467,0.38530296087265015,-1.2638028860092163
1725891394502028000,22.557028076171875,-0.5369501113891602,0.18982623517513275,-1.2717441320419312
1725891394520877000,22.575876953125,-0.3445277214050293,-0.18585561215877533,-1.55640709400177
1725891394539726000,22.59472607421875,-0.2315177470445633,-0.4399753510951996,-1.795255184173584
1725891394558575000,22.6135751953125,-0.19669845700263977,-0.2603811025619507,-1.776929259300232
1725891394577424100,22.632424072265625,-0.10629047453403473,-0.2805396616458893,-1.8325179815292358
1725891394596273200,22.651273193359376,-0.14110976457595825,-0.46257734298706055,-2.075031280517578
1725891394615122200,22.6701220703125,-0.1954767256975174,-0.5670352578163147,-2.130009174346924
1725891394633971200,22.68897119140625,-0.1490510106086731,-0.873078465461731,-2.1843760013580322
1725891394652820000,22.707820068359375,-0.18875721096992493,-1.151021957397461,-2.3664138317108154
1725891394671669000,22.7266689453125,-0.26939135789871216,-1.3379465341567993,-2.484921455383301
1725891394690518000,22.74551806640625,-0.27366742491722107,-1.6476550102233887,-2.536234140396118
1725891394709367000,22.764366943359374,-0.29138249158859253,-1.7368413209915161,-2.529514789581299
1725891394728216000,22.783216064453125,-0.3292561173439026,-1.641546368598938,-2.334648847579956
1725891394747065000,22.802065185546876,-0.3225366175174713,-1.3049598932266235,-1.9974514245986938
1725891394765914000,22.8209140625,-0.32009315490722656,-0.8565851449966431,-1.668195366859436
1725891394784763000,22.839762939453124,-0.40744680166244507,-0.32818710803985596,-1.4226276874542236
1725891394803612000,22.85861181640625,-0.49418962001800537,0.12873975932598114,-1.1373538970947266
1725891394822461000,22.8774609375,-0.472198486328125,0.4243983030319214,-0.6975312232971191
1725891394841310000,22.89631005859375,-0.3555232882499695,0.6204859018325806,-0.14897464215755463
1725891394860159000,22.915158935546874,-0.3078758418560028,0.7463240623474121,0.34582582116127014
1725891394879008000,22.934008056640625,-0.25900667905807495,0.8880446553230286,0.8186351656913757
1725891394897857000,22.95285693359375,-0.13011419773101807,1.0841323137283325,1.3452006578445435
1725891394916705800,22.971705810546876,0.04153880476951599,1.3492475748062134,1.7697516679763794
1725891394935554800,22.990554931640624,0.19181154668331146,1.5001311302185059,2.0983967781066895
1725891394954403800,23.00940380859375,0.2877173125743866,1.5654937028884888,2.3360233306884766
1725891394973252900,23.0282529296875,0.36163195967674255,1.6449061632156372,2.5363869667053223
1725891394992102000,23.047101806640626,0.5864301919937134,1.528230905532837,2.6377904415130615
1725891395010951000,23.065950927734374,0.768467903137207,1.1476621627807617,2.6970443725585938
1725891395029800000,23.084800048828125,0.9749401807785034,0.7475457787513733,2.658559799194336
1725891395048648700,23.103648681640625,1.1478148698806763,0.17821979522705078,2.558377981185913
1725891395067497700,23.122497802734376,1.1337649822235107,-0.06307178735733032,2.633514404296875
1725891395086346800,23.1413466796875,1.1154390573501587,-0.2023489624261856,2.7776784896850586
1725891395105195800,23.16019580078125,1.0708459615707397,-0.2493855506181717,2.7697372436523438
1725891395124044800,23.179044921875,0.953559935092926,-0.35995206236839294,2.580369234085083
1725891395142893800,23.197893798828126,0.9651663303375244,-0.4741837978363037,2.1240532398223877
1725891395161742800,23.216742919921874,0.9315688014030457,-0.28176137804985046,1.5907682180404663
1725891395180591600,23.235591552734373,0.758694052696228,-0.1308777779340744,1.0666462182998657
1725891395199440600,23.254440673828125,0.48441576957702637,0.1360701322555542,0.5596284866333008
1725891395218289700,23.27328955078125,0.25473061203956604,0.14217877388000488,0.1534034162759781
1725891395237138700,23.292138671875,0.08857539296150208,0.08781181275844574,-0.16852232813835144
1725891395255987700,23.31098779296875,-0.09957095980644226,0.17027856409549713,-0.44524407386779785
1725891395274836700,23.329836669921875,-0.2522871494293213,0.2331976294517517,-0.6547706723213196
1725891395293685800,23.348685791015626,-0.3695732057094574,0.32299473881721497,-0.8044325709342957
1725891395312534500,23.367534423828126,-0.4410443603992462,0.33460119366645813,-0.9852485060691833
1725891395331383600,23.386383544921873,-0.5064069032669067,0.2893971800804138,-1.0609958171844482
1725891395350232600,23.405232666015625,-0.5564978122711182,0.32421648502349854,-1.0750457048416138
1725891395369081600,23.42408154296875,-0.5784889459609985,0.16661337018013,-1.1324669122695923
1725891395387930600,23.4429306640625,-0.5858193039894104,-0.005039634648710489,-1.3291654586791992
1725891395406779600,23.461779541015623,-0.5192350745201111,-0.03436114266514778,-1.4128538370132446
