time,seconds_elapsed,z,y,x
1725630558900642000,0.03064208984375,0.008766074779629707,0.4222527678906917,-0.49025940553769465
1725630558910676200,0.04067626953125,0.23528584268987177,0.7650590741008519,-0.4065903577260673
1725630558920710100,0.050710205078125,0.4313116881370544,1.0082377158671616,-0.41556905234307046
1725630558930744000,0.060744140625,0.5075941328287125,1.1234101554453373,-0.4788339022904634
1725630558940778200,0.0707783203125,0.6788152073651552,1.0769909340977668,-0.6032973173052072
1725630558950812200,0.080812255859375,1.2667109573990105,1.289468732652068,-1.1629148481640965
1725630558960846000,0.09084619140625,1.6817267597734926,1.6758149053812026,-2.018390763836354
1725630558970880000,0.1008798828125,1.3951391843914984,0.9516758706897497,-1.4034578076645732
1725630558980914200,0.1109140625,0.9598223522663116,0.36994273493885993,-0.5883204051867127
1725630558990948000,0.120947998046875,0.8937783929944038,0.057794601842761036,-0.12001439971663057
1725630559000982000,0.13098193359375,1.1256921289026736,0.009258826732635497,-0.04052753296047449
1725630559011016200,0.14101611328125,1.1953612929344177,0.0012795184165239333,0.25624372891411185
1725630559021050000,0.151050048828125,0.9110621207505464,-0.12776128751635552,0.6335813233446329
1725630559031084000,0.161083984375,1.080213403275609,0.12778057673871515,-0.15901048532612622
1725630559041118200,0.1711181640625,1.087962409967184,0.2826853072464466,-0.7893386520937085
1725630559051152100,0.181152099609375,1.2878572058022022,0.2539157243579626,-1.468523423423618
1725630559061186000,0.19118603515625,1.1989876667380333,0.013628712379932403,-0.8174900300186126
1725630559071220200,0.20122021484375,1.202389584136009,-0.2555669986963272,-0.04447122908495366
1725630559081254100,0.211254150390625,0.9568529810667037,-0.12686579998135566,0.931945334303379
1725630559091288000,0.2212880859375,0.6447036789268255,0.03685761227607727,1.6064004467628896
1725630559101322200,0.231322265625,0.32336393911540506,0.000436053329706192,1.5039584555506704
1725630559111356200,0.241356201171875,0.04562310253381729,0.20919570814371108,1.451402485013753
1725630559121390000,0.25139013671875,-0.9540683187842368,0.4255488868266344,1.6403849878206849
1725630559131424300,0.26142431640625,-1.7421230685472486,0.5733616132467985,1.1803807275541125
1725630559141458000,0.2714580078125,-1.7874334518700836,0.8693424553960561,0.23267580632194876
1725630559151492000,0.2814921875,-1.4410048635095356,1.2172329330027103,-0.39792540523335335
1725630559161526300,0.2915263671875,-0.9293103096246719,1.371225224840641,-0.43699908612370486
1725630559171560000,0.301559814453125,-0.41650516414940353,1.4735884517282247,-0.39335897410064935
1725630559181594000,0.311593994140625,0.05305763644874096,1.9708499911129473,-0.42218598626479503
1725630559191628300,0.321628173828125,0.1814882015287876,2.6244617836385964,-0.2299386364430189
1725630559201662000,0.331661865234375,0.31693361380696294,3.3282471816092727,0.1248171968884766
1725630559211696000,0.341696044921875,0.8903554328083991,3.1971471050590274,2.2156784459128973
1725630559221730300,0.351730224609375,0.49978492038249966,1.4777549237579106,5.570683578327298
1725630559231764000,0.361763916015625,-0.6002221476435661,-0.4452338305056095,6.43676907775402
1725630559241798100,0.371798095703125,-0.4713227960079908,-0.7246469842135905,3.745578567449748
1725630559251832300,0.381832275390625,-0.2587035431563854,0.6139642572700977,-0.12079846276640892
1725630559261866000,0.391865966796875,-0.6400561453819275,0.6174865861773491,-1.7744687563568353
1725630559271900200,0.401900146484375,-1.5481389580607414,-0.5299760605067014,-2.106463891825825
1725630559281934300,0.411934326171875,-2.0217291144788265,-0.9074573742568492,-1.6489011794924735
1725630559291968000,0.421968017578125,-1.8011434127926826,-0.448369790443778,-1.0765341302409768
1725630559302002200,0.432002197265625,-1.2632932579100131,-0.11111702670753001,-0.6013384383223951
1725630559312037000,0.442037109375,-0.8779466176122427,-0.23734686687290668,0.06742649967148899
1725630559322070000,0.452070068359375,-0.5207599038720131,-0.4856149407327175,0.6933429144114256
1725630559332104200,0.462104248046875,-0.12092355045080184,-0.8518857091605663,0.8281454987414181
1725630559342139100,0.47213916015625,0.23656185397505758,-1.2388228335201739,0.8781674207560718
1725630559352173000,0.482173095703125,0.3933919995874166,-1.5717746851921082,1.1178342550091445
1725630559362207200,0.492207275390625,0.12817746710181235,-1.9640987632870672,1.420362472975254
1725630559372241200,0.5022412109375,-0.1692453905493021,-2.2193179714590308,1.3604903342060743
1725630559382275000,0.512275146484375,-0.289613060683012,-1.9687012886464594,0.4118927019178867
1725630559392309200,0.522309326171875,-0.5081009133070707,-1.921138742482662,0.47049613592550155
1725630559402343000,0.532343017578125,-1.0010860905468464,-3.014388737463951,1.5745526254728435
1725630559412377000,0.542377197265625,-1.4030126942455767,-3.618315000322461,2.1100993257187306
1725630559422411300,0.552411376953125,-1.2055004096329212,-3.10437646690309,1.6930178229860962
1725630559432445000,0.56244482421875,-0.679759210216999,-2.0036632964342833,0.795642647608742
1725630559442479000,0.57247900390625,-0.8083119403719902,-1.625951096537709,0.9170450676176697
1725630559452513300,0.58251318359375,-1.202619301238656,-1.5287702407240866,1.2919713631227612
1725630559462547000,0.592546875,-1.4507149411410092,-0.9727145670652388,1.161328090429306
1725630559472581000,0.6025810546875,-1.3728846824854612,-0.2705512173384428,0.7618933035463095
1725630559482615300,0.612615234375,-1.085896125087142,0.1562877092987299,0.4671267325576395
1725630559492649000,0.62264892578125,-0.5895990468204021,0.39231004956960674,0.3395062417514622
1725630559502683100,0.63268310546875,-0.014552841487526893,0.6322305663228035,0.3662769059076905
1725630559512717300,0.64271728515625,0.33327333871126175,0.8415735739827156,0.4227562604334205
1725630559522751000,0.6527509765625,0.5581482620239258,0.9925906494021415,0.4639485774455592
1725630559532785200,0.66278515625,0.5992734686166048,1.1241712029457092,0.5598853880148381
1725630559542819300,0.6728193359375,0.29944822599887844,1.1536433811455964,0.7083639579325914
1725630559552853000,0.68285302734375,0.004016834425926208,1.0277607469826937,0.6300737536150962
1725630559562887200,0.69288720703125,-0.027127660900354383,1.0762310556411743,0.6501591678537428
1725630559572921000,0.702921142578125,-0.058628714579343794,1.0039631072878836,0.6961833985343575
1725630559582955000,0.712955078125,-0.055713703915476795,0.9249731572031974,0.6145065474532544
1725630559592989200,0.7229892578125,-0.13826397683024405,0.7520400180518627,0.3421788950268179
1725630559603023000,0.733023193359375,-0.24629180535078046,0.5092769713491201,-0.0636177185056731
1725630559613057000,0.74305712890625,-0.5352075314193964,0.3493944524288177,-0.3192583304274827
1725630559623091200,0.75309130859375,-0.8214461472332477,0.4176747924506664,-0.44061176019553094
1725630559633125000,0.763125,-0.8615724059164523,0.5449824909806251,-0.6003820509130134
1725630559643159000,0.773158935546875,-0.6504068590044975,0.4934586399704218,-0.6732002900928259
1725630559653193200,0.783193115234375,-0.2789771003782749,0.2079962692260742,-0.7383347333043814
1725630559663227100,0.79322705078125,0.12985036875009537,0.9393266767263412,-0.6808454710837453
1725630559673261000,0.803260986328125,0.1034054294168949,1.3816612786591052,-0.7623874437388032
1725630559683295200,0.813295166015625,-0.20521160694360732,0.7628729622334242,-0.5139386064846069
1725630559693329200,0.8233291015625,0.048346974539756775,0.8933815026313066,0.6100711953543126
1725630559703363000,0.833363037109375,0.47475101689100263,0.5926181023806333,0.4792069003213197
1725630559713397200,0.843397216796875,0.5142927536845207,0.28354513894617556,0.506440578879416
1725630559723430700,0.8534306640625,1.1665601458638906,0.05273673393130302,0.20519019882939754
1725630559733464800,0.86346484375,2.2501456559211013,0.11990414427518845,0.26986783818416293
1725630559743498800,0.873498779296875,2.673439457297325,0.6587123305350542,0.9599659985207021
1725630559753532700,0.88353271484375,2.332132449734211,1.2692238170027732,1.234253625908494
1725630559763566800,0.89356689453125,1.88759127766788,1.3434335470736025,0.8816567241765558
1725630559773600500,0.9036005859375,1.1647235780864953,1.481269653880596,0.07054521621391177
1725630559783634700,0.913634765625,0.35439503719508647,2.279067214500904,-1.0367881030470132
1725630559793668900,0.9236689453125,-0.5700631562232971,2.9118630134910344,-0.06147270583361387
1725630559803702500,0.93370263671875,-1.3351976336479185,3.683894264692068,0.6002414368659258
1725630559813736700,0.94373681640625,-1.6231716949522494,4.2868309319913385,1.1351992313079535
1725630559823771000,0.95377099609375,-1.2172504686594008,3.837636965683102,0.7808958179190755
1725630559833804500,0.963804443359375,-0.5869558388352394,3.31426483348608,0.012733809366822241
1725630559843838700,0.973838623046875,0.46113048781752586,3.3522371290057897,-0.5919681140393018
1725630559853873000,0.983872802734375,1.0062012416034936,4.613582175457477,-0.03691080376803875
1725630559863906600,0.993906494140625,0.5512532418131828,6.360947820833325,1.2074325467392801
1725630559873940700,1.003940673828125,0.7221832244485616,6.894084975719451,2.2164093905359503
1725630559883975000,1.013974853515625,0.6302396847665309,6.843516233476996,3.490381278848648
1725630559894008600,1.024008544921875,-0.022417583513259887,7.24148211685121,4.3660169891700145
1725630559904042800,1.034042724609375,-0.4450421073257923,7.435222481709718,4.281320644137263
1725630559914077000,1.044076904296875,-0.9380161786496639,7.251145432731509,3.7494273518323897
1725630559924110600,1.054110595703125,-1.1589379804223776,6.771442930912971,2.797412166185677
1725630559934144800,1.064144775390625,-1.449025672879815,5.931681959310174,1.844086190201342
1725630559944178700,1.0741787109375,-2.556413498806953,4.839711482745408,0.8184513493314385
1725630559954212600,1.084212646484375,-3.5975323245346544,3.922745106387138,-0.43723026453107594
1725630559964246800,1.094246826171875,-3.9437119065701958,3.1042063710331913,-1.5990750723108649
1725630559974280700,1.10428076171875,-3.7649335485219955,2.1580966100379824,-2.580359022539854
1725630559984314600,1.114314697265625,-3.5717648460716007,1.117194641931355,-3.7174431908115744
1725630559994348800,1.124348876953125,-3.338701940128207,-0.16102292112708091,-4.989330966326594
1725630560004382700,1.1343828125,-2.893480384582281,-1.545676075078547,-6.102367611795663
1725630560014416600,1.144416748046875,-2.135295872426033,-2.4010882047995925,-6.700252256402373
1725630560024450800,1.154450927734375,-1.1260995406597851,-3.240093389599025,-6.917721287372708
1725630560034484700,1.164484619140625,-0.421899716669321,-3.728823832003772,-6.657673928391933
1725630560044518700,1.1745185546875,-0.2819189990490675,-3.6860578724667428,-5.582780258834362
1725630560054552800,1.184552734375,-0.6451648666977882,-3.334021088835597,-4.303263595876097
1725630560064586800,1.194586669921875,-0.8218295935928821,-3.0916748062402006,-3.134407448029518
1725630560074620700,1.20462060546875,-0.6153951668560504,-3.0803412190601227,-1.6780366730839014
1725630560084654600,1.214654541015625,0.47535190539360045,-3.254853444096446,-0.8012497469007969
1725630560094688800,1.224688720703125,1.996910315042734,-3.6870913071677087,-1.089799562266469
1725630560104722700,1.23472265625,3.3384792372882366,-4.378938722324371,-2.151108943107724
1725630560114756600,1.244756591796875,4.042527670109272,-4.956182145440578,-2.988188712802529
1725630560124790800,1.254790771484375,4.0897710673213,-5.026845581206679,-3.627168168863654
1725630560134824700,1.26482470703125,3.3641493928566573,-4.671867191165686,-3.7299551741212604
1725630560144858600,1.274858642578125,2.0115572645545003,-4.179868102353811,-2.9920950725913045
1725630560154892800,1.284892822265625,0.09762567697167396,-3.631140579625964,-1.7141934436142443
1725630560164926700,1.2949267578125,-2.684068111078441,-2.677316883252561,-0.09279694164097309
1725630560174960600,1.304960693359375,-4.32407257514894,-2.044983587207645,1.4866870027542114
1725630560184994800,1.314994873046875,-5.2453392790496345,-1.3184095804542302,1.3634937538057565
1725630560195028700,1.32502880859375,-4.914074357551336,-1.0870861385893076,2.1946453024953603
1725630560205062700,1.335062744140625,-2.8954133984714745,-1.088219234272465,2.434582770383358
1725630560215096800,1.345096923828125,-0.956824339494109,-1.2917672188527882,2.791912107464671
1725630560225130800,1.355130859375,-0.09561112227886914,-1.2011559506878255,3.866423499706387
1725630560235164700,1.36516455078125,-0.5315072155967354,-0.5397833149023353,4.8333799416363235
1725630560245198800,1.37519873046875,-1.869308602002263,0.3485099246792495,4.948926475223899
1725630560255232500,1.385232421875,-3.393745197436213,1.1317968755185603,3.796564950582385
1725630560265266700,1.3952666015625,-5.18479099458456,0.9169277979135513,0.568250553843379
1725630560275300900,1.40530078125,-6.112206284242868,0.1596383349008858,-2.7989029892653225
1725630560285334500,1.41533447265625,-5.262706593436002,-0.2623660111866891,-3.6702860105782746
1725630560295368700,1.42536865234375,-3.3712188928514717,-0.43986791955828664,-3.5838948443263767
1725630560305403000,1.43540283203125,-1.8700410079300402,0.5762959131330251,-7.0612880467861885
1725630560315436500,1.4454365234375,-1.1827174999386072,-1.1528753193825483,-6.689283703142404
1725630560325470700,1.455470703125,-1.2426245638906954,-3.844070505861938,-5.335355065539479
1725630560335505000,1.4655048828125,-0.4048015746131539,-3.032275984071195,-7.179826747927069
1725630560345538600,1.47553857421875,0.767175920124352,-3.1496663919597863,-7.65691292976737
1725630560355572700,1.48557275390625,2.8301772484511134,-4.008648196861148,-7.571210914823412
1725630560365607000,1.49560693359375,4.560878467012942,-4.424619692525267,-6.720633950173855
1725630560375640600,1.505640625,6.428070807513595,-4.6401375894278285,-4.805677111196518
1725630560385674800,1.5156748046875,10.64651910815239,-4.28562535559386,-2.1044863081425427
1725630560395708700,1.525708740234375,22.390136703407762,-1.8874618060693145,4.093908897778392
1725630560405742600,1.53574267578125,13.900375942426919,-3.125507225476205,3.286448605799675
1725630560415776800,1.54577685546875,4.918422031366825,-4.929316350346803,2.1447709722578523
1725630560425810700,1.555810791015625,2.550531747291982,-4.154955194893479,1.6310989808201788
1725630560435844600,1.5658447265625,1.0726295240178703,-2.8239053285747766,0.8987555968850851
1725630560445878800,1.575878662109375,0.27974311631470916,1.4176570134088395,3.2375638711214063
1725630560455912700,1.58591259765625,-0.5863125724956393,5.783293478828668,6.752601452320814
1725630560465946600,1.595946533203125,1.919294283659756,5.19823850517869,4.483770385152101
1725630560475980800,1.605980712890625,2.377232989698648,2.1217386178471145,2.3078484878271817
1725630560486014700,1.6160146484375,3.4525562828451393,-0.10864727559313177,1.5909429115206002
1725630560496048600,1.626048583984375,3.565232813954353,-3.80886387566328,0.9519313067555427
1725630560506082800,1.636082763671875,2.786802509365976,-6.133542502260208,0.6545517037242651
1725630560516116700,1.64611669921875,2.019244019664824,-12.075387543666363,1.0697364329248666
1725630560526150700,1.656150634765625,-3.6612925567835566,-8.395196225145458,-3.2946219753831625
1725630560536184800,1.666184814453125,-5.46265750337243,1.1582865307763217,-9.165177558079362
1725630560546218800,1.67621875,-4.714776358565688,2.7487136017292735,-10.404020849865674
1725630560556252700,1.686252685546875,-3.1769559654235837,0.6314407311193645,-8.29709533187747
1725630560566286800,1.696286865234375,-2.4745260737150905,0.10817366673201322,-6.460146446210145
1725630560576320800,1.70632080078125,-2.5349025087445973,1.5582839199781418,-5.282740496683121
1725630560586354700,1.716354736328125,-1.9111280744694172,3.1795804687082767,-4.003457642480731
1725630560596388600,1.726388671875,-1.7128738854482768,4.279305212661623,-1.7834838374614714
1725630560606422800,1.7364228515625,-1.7856974218577146,4.36034800362289,0.6482809528917074
1725630560616456700,1.746456787109375,-0.6953098305702209,4.271132427600026,2.8148364714562892
1725630560626490600,1.75649072265625,0.013883563923835754,3.8261405891567466,3.9964433798044916
1725630560636524800,1.76652490234375,0.43587738861739633,2.9609029387310146,4.1402392717987295
1725630560646558700,1.776558837890625,1.5166028330683707,1.9461939810231328,3.467670849868655
1725630560656592600,1.786592529296875,2.582120771515369,0.6920679991047829,2.634146142306924
1725630560666626800,1.796626708984375,3.4157039312660693,-0.3301644859757274,2.0639760185778138
1725630560676660700,1.80666064453125,3.5716964570105074,-1.4049198430411516,1.5418307978272436
1725630560686694700,1.816694580078125,2.982903465875983,-2.8598218606084584,-0.05483925916850566
1725630560696728800,1.826728759765625,2.7956933795690535,-3.2269276185557243,-2.088994724500179
1725630560706762800,1.8367626953125,3.423680901494622,-3.063665978591144,-3.6207547946900127
1725630560716796700,1.846796630859375,3.62978624240756,-2.8188369392693042,-4.81359855184555
1725630560726830800,1.856830810546875,4.100279601854085,-4.525250104270875,-6.433384111490845
1725630560736865000,1.866864990234375,2.307959254725277,-5.689333338627219,-7.453823137283325
1725630560746899000,1.87689892578125,-1.1572621561646461,-0.7225492812819778,-5.746954337468743
1725630560756932900,1.886932861328125,-1.3141755961462855,2.9479852972298857,-3.697588443523645
1725630560766966800,1.896966796875,-2.334998945081234,8.281545296046138,-1.0762029985904693
1725630560777001000,1.9070009765625,-1.939721862399578,10.759413665926456,1.8831980111449955
1725630560787035000,1.917034912109375,-2.515887427151203,8.441096975576878,5.388070756682753
1725630560797068800,1.92706884765625,-2.947041294378042,4.847359659411013,6.303603300845623
1725630560807103000,1.93710302734375,-1.984830585670471,3.701563484634459,5.911352872508764
1725630560817137000,1.947136962890625,-0.06782061355561017,4.781531680977344,5.54251780655086
1725630560827170800,1.9571708984375,1.9107225624084472,4.576360406044126,5.114877500402927
1725630560837205000,1.967205078125,3.929869259178638,5.245005517050624,4.774738367575407
1725630560847239000,1.977239013671875,5.056261645305156,5.528585727310181,4.214511545711756
1725630560857272800,1.98727294921875,4.466144127568603,5.114547245535254,2.9901012684255837
1725630560867307000,1.99730712890625,2.973279897484183,5.27114241334796,2.620529120364785
1725630560877341000,2.0073408203125,1.2331284212708473,4.195473375503719,1.738787786644697
1725630560887374800,2.017374755859375,-0.5711965441673994,3.5971360186934467,1.5822048937916755
1725630560897409000,2.027408935546875,-2.8300767106860873,3.597835399134457,1.7553309251666067
1725630560907443000,2.03744287109375,-3.639743572798371,3.2424127724573015,1.0640110410153865
1725630560917476900,2.047476806640625,-3.4964462779760357,3.0204595818102358,-0.3879004164338112
1725630560927511000,2.057510986328125,-1.9845014998465775,4.133590335303545,-0.8421031508147716
1725630560937544700,2.067544677734375,-1.1472627401977777,3.6029110949635506,0.9737702135980129
1725630560947579000,2.077578857421875,-2.008589062398672,2.461903323507309,0.08879939643740653
1725630560957613000,2.087613037109375,-3.0272061334609983,1.0057038134753704,-1.5195874018371105
1725630560967646700,2.097646728515625,-2.986840220803022,0.5987859773606061,-1.2191250303596257
1725630560977681000,2.107680908203125,-1.8445961855500936,0.8392463000789284,-1.0265905341595412
1725630560987715000,2.117715087890625,-2.2756688042342663,-0.4379775757670402,-1.5301935515254734
1725630560997748700,2.127748779296875,-2.1665186936855316,-2.6260665884867307,-5.160681804722548
1725630561007783000,2.137782958984375,-1.3942910431295632,-3.6424455252334473,-8.574359198597072
1725630561017817000,2.147817138671875,0.029636428850889206,-5.086744461852311,-10.141934094011782
1725630561027850800,2.157850830078125,1.8914742565810678,-6.3038102215945715,-11.115350087344646
1725630561037885000,2.167885009765625,2.4639959118723866,-6.2981333450019354,-9.50740752570629
1725630561047919000,2.177919189453125,1.9496160644263028,-6.152559337419271,-6.0238464482665055
1725630561057952800,2.187952880859375,2.3177912051707503,-4.081840274322032,-3.0675100867986678
1725630561067987000,2.197987060546875,1.7110989847302436,-2.872399018108845,-2.085893835875392
1725630561078021000,2.208021240234375,1.4552140061259269,-2.7873230261087416,-1.9572294620394706
1725630561088054800,2.2180546875,0.6199380709826946,-3.616882629431784,-3.1722675153464075
1725630561098089000,2.2280888671875,-0.3580775251001119,-4.687777292481065,-5.309577065682411
1725630561108123000,2.238122802734375,-0.8049684751629829,-5.780304233884811,-7.156562776717543
1725630561118156800,2.24815673828125,-0.5148725993990898,-6.192867382410168,-7.6347566275388
1725630561128191000,2.25819091796875,1.7676444632947443,-4.402480049170554,-7.4318801855444905
1725630561138225000,2.268224853515625,2.360261396631598,-1.1919789570197463,-6.674996819114685
1725630561148258800,2.2782587890625,1.868771426385641,-0.20747662926614283,-5.335837296098471
1725630561158293000,2.28829296875,2.566488318097591,1.6612620638936757,-2.9751532901406286
1725630561168328000,2.298327880859375,2.9291379734188316,3.200842452445626,-1.0082973370999098
1725630561178361900,2.30836181640625,1.3074907115548848,2.620140705569088,1.500757321421802
1725630561188396000,2.31839599609375,0.38009295755326744,5.704061536681651,5.926067626559734
1725630561198429700,2.3284296875,-0.8781494467079639,6.899473098498582,5.453931760603189
1725630561208464000,2.3384638671875,-2.175792717987299,1.0478229995414614,-0.32458032916784285
1725630561218498000,2.348498046875,-3.9606303081452845,-0.09835662159472704,-0.6968652433186769
1725630561228531700,2.35853173828125,-4.225055151557922,2.7992624702274798,2.4728444042384625
1725630561238566000,2.36856591796875,-2.1783827344805,3.274676334941387,4.133941632959246
1725630561248600000,2.37860009765625,1.6241501845955848,1.8532528086058795,3.416331123253703
1725630561258633700,2.3886337890625,4.8693134248048064,0.06228226865082979,2.450488780045509
1725630561268668000,2.39866796875,6.3514388187319035,-0.9301984906360506,2.502137134218216
1725630561278702000,2.4087021484375,6.71211980432868,-1.1743433470860123,2.7158096955150364
1725630561288735700,2.41873583984375,5.611736888727545,0.9475618594996631,5.302506104382872
1725630561298770000,2.42877001953125,3.15169234482944,3.6289474534958597,7.024598192292451
1725630561308804000,2.43880419921875,1.78745917083323,7.457234407031535,6.446198000356555
1725630561318837800,2.448837646484375,-2.1091905403107405,4.890075642326474,-0.9527332707881927
1725630561328872000,2.458871826171875,-6.790936151412129,1.3389946878433228,-2.1290748059540987
1725630561338906000,2.468906005859375,-7.380726921412348,-2.6908120323807,4.95612252420783
1725630561348939800,2.478939697265625,-3.969891472965479,-5.623727186250687,7.274863577449321
1725630561358974000,2.488973876953125,-2.831020713537931,-3.420311132800579,6.683856417396664
1725630561369007900,2.4990078125,-2.207134197190404,1.009400914427638,6.040545069611072
1725630561379041800,2.509041748046875,-2.673937469947338,2.636143453603983,5.264399953350424
1725630561389076000,2.519075927734375,-2.1677572955697775,2.9154806194663045,5.573731859982013
1725630561399110000,2.52910986328125,-2.562554193519056,2.9246368626073003,5.3372296272397035
1725630561409143800,2.539143798828125,-4.001319169147313,3.1029753679335115,4.874166710054874
1725630561419178000,2.549177978515625,-5.227545848205685,4.821580490510166,3.7737639207094906
1725630561429212000,2.5592119140625,-7.0722267894297834,6.304063904094695,4.137473898738622
1725630561439245800,2.569245849609375,-7.382979084253311,5.637163006407022,4.353811295330524
1725630561449280000,2.579280029296875,-5.233010543352365,4.64812712687701,2.8665169743329284
1725630561459314000,2.58931396484375,-4.240441813521087,3.9750948868274687,2.34306359359324
1725630561469347800,2.599347900390625,-4.160584140691161,4.103162171553075,1.1450181761413811
1725630561479382000,2.609382080078125,-4.2281425961792465,5.486641021028161,0.9412427394807338
1725630561489416000,2.619416015625,-2.831319988745451,6.890182123062014,1.5378239002734422
1725630561499449900,2.629449951171875,-1.8118816644281148,7.306555769786239,0.09138239866793155
1725630561509484000,2.639484130859375,-2.105677563753724,6.553712034136057,-3.5313486645311114
1725630561519518000,2.64951806640625,12.858429433703423,8.765624113252759,-5.261392588227987
1725630561529552000,2.6595517578125,45.62766648073196,13.793466888803243,2.0177152026623486
1725630561539585800,2.669585693359375,24.060003514039515,3.6814515477150676,7.965643363374471
1725630561549620000,2.679619873046875,11.044978328001498,2.9868229774072765,0.6183189453482627
1725630561559654000,2.68965380859375,4.76351291694492,3.8289983166754245,-1.0250918200343846
1725630561569687800,2.699687744140625,2.6622479089364406,2.100071706570685,-0.12191840670704841
1725630561579722000,2.709721923828125,1.1010799579545856,0.7064991869740188,0.0564279896646738
1725630561589756000,2.719755859375,-0.5831301430672406,0.6120141461156309,-0.9168938956439494
1725630561599789800,2.729789794921875,-2.1979624642193314,0.8013364753361791,-2.0104367360919713
1725630561609824000,2.739823974609375,-2.9667493266716596,0.8999848464190959,-0.9097440238893032
1725630561619858000,2.74985791015625,-2.3041528481796383,1.8812457080334424,-0.13339140235781669
1725630561629891800,2.759891845703125,-1.8573361323967574,2.5521938352853057,0.6232651695787906
1725630561639926000,2.769926025390625,-2.161677975656092,2.1651753162525593,1.0944991182595492
1725630561649960000,2.7799599609375,-1.13031482026726,2.2001766331374646,1.228439971193671
1725630561659993900,2.789993896484375,-0.3804755271300673,2.3573363029651344,1.5961510015577076
1725630561670028000,2.800028076171875,0.09466858073174952,1.901313805811107,1.438747439971566
1725630561680062000,2.81006201171875,0.6982467608049512,1.3072186166152358,0.9604869536548852
1725630561690095900,2.820095947265625,1.3517977630540727,0.6144664346385746,0.7061585568428039
1725630561700130000,2.830130126953125,1.692873592209816,0.3554423908235505,0.6952104618489742
1725630561710163700,2.840163818359375,2.1833013400517403,-0.9484527439247816,-0.24328560927212237
1725630561720198000,2.850197998046875,5.458597414326667,-2.964026331448555,-3.4876129831790923
1725630561730232000,2.860232177734375,2.278219657760858,-2.1407437625683845,-2.1373031205952167
1725630561740265700,2.870265625,0.9482606554187833,-0.9969739790529012,-0.44867666443586346
1725630561750300000,2.8802998046875,0.30408479975834485,-0.24389869966916738,-0.3079641254097223
1725630561760334000,2.890333984375,-0.4770305061303079,-0.6932195072274655,-0.7848124068409204
1725630561770367700,2.90036767578125,0.3333622591037303,-1.3811509910494089,-1.6223206310808658
1725630561780402000,2.91040185546875,1.0226737991072237,-1.6337738991178572,-1.8677426678597926
1725630561790435800,2.920435791015625,1.1878408343017102,-1.5631906889811158,-1.6011381423205135
1725630561800469800,2.9304697265625,0.5926677867412566,-1.2056234514907003,-0.9155132549405097
1725630561810504000,2.94050390625,-0.17130349212288856,-0.7403281721439212,-0.3536123623847961
1725630561820537900,2.950537841796875,-0.36394086417555804,-0.26445909274211155,-0.3000333324104547
1725630561830571800,2.96057177734375,-0.37786885176301,0.15965579749234018,-0.8820797718942165
1725630561840606000,2.97060595703125,-0.6063292323470115,0.5027487020915374,-1.4643033215105532
1725630561850640000,2.980639892578125,-0.9172907860070466,0.5842124584112316,-1.6650608716547488
1725630561860673800,2.990673828125,-0.9710597855955362,0.15854955328349024,-1.3715788605839012
1725630561870708000,3.0007080078125,-1.274032094067335,-0.11867496780641376,-0.7869459117382764
1725630561880742000,3.010741943359375,-0.9704927993625402,-0.04579860523119569,-0.38532092133462426
1725630561890775800,3.02077587890625,-1.1264868594769388,0.009731485745683312,0.4931342303216457
1725630561900810000,3.03081005859375,-1.0772149521119891,-0.896086962197721,1.4920014757752418
1725630561910844000,3.040843994140625,-0.8055185102611779,-1.0248622490622104,1.98597040335536
1725630561920877800,3.0508779296875,-0.19127075987458228,-2.130529827068001,1.7739584687471388
1725630561930911700,3.060911865234375,0.44613224065005774,-2.290443325648457,1.941159786248207
1725630561940946000,3.07094580078125,1.1285445957243443,-0.6227101660445332,2.616283153358102
1725630561950979800,3.080979736328125,2.0620738382183013,1.792285568076372,2.4891145710378884
1725630561961013800,3.091013671875,2.2932542914159595,3.010253829616308,0.4500000219941139
1725630561971048000,3.1010478515625,0.8294564352095126,3.822939455027878,-2.009204563948512
1725630561981081900,3.111081787109375,-1.0552155940108001,4.2005724522084,-3.353707786080241
1725630561991115800,3.12111572265625,-1.0557172599226237,3.509943180669844,-2.7402900567770003
1725630562001150000,3.13114990234375,0.04953516141101718,1.5307412485361098,-1.1732336322784422
1725630562011183900,3.141183837890625,0.526444379249215,0.2201417573109269,0.3676601769596338
1725630562021217800,3.1512177734375,0.5629493786953389,-0.5206026674836873,1.2466560113638638
1725630562031252000,3.161251953125,0.2954686548434198,-0.853504104142636,1.4305606263846158
1725630562041286000,3.171285888671875,-0.24397417605817318,-0.8482495446152984,0.9039140025615692
1725630562051319800,3.18131982421875,-0.5916657700918615,-0.7940611505709588,0.3513736435472965
1725630562061354000,3.19135400390625,-0.48393078703805803,-0.6415506217233836,0.21478373740911483
1725630562071388000,3.201387939453125,-0.3183969643577933,-0.40348318549096585,-0.2440022331088781
1725630562081421800,3.211421875,-0.04224865766465664,-0.1674381949968636,-0.24204116216897964
1725630562091456000,3.2214560546875,0.1456713304772973,0.09690262339413165,0.37361820858120914
1725630562101489700,3.23148974609375,0.1708455192223191,0.06878653597831726,0.21573650808930395
1725630562111523800,3.24152392578125,0.23352321693152187,-0.004772767359763384,-0.2500514501452446
1725630562121558000,3.25155810546875,0.4100935435414314,0.19776772067844867,-0.1660258439809084
1725630562131591700,3.261591796875,0.562314149531722,0.3382360756851733,0.25922785929143427
1725630562141625900,3.2716259765625,0.7760577302381396,0.40114480567127464,0.6768032830208539
1725630562151660000,3.281659912109375,1.0913964760690926,0.3570807691477239,0.7287620183169842
1725630562161693700,3.291693603515625,1.342819214567542,0.5242411701165139,0.607997457820177
1725630562171728000,3.301727783203125,1.4399939329013227,0.708334001185745,0.4942231946021318
1725630562181762000,3.311761962890625,1.3210013505131006,0.8877139783889054,-0.23565116887092588
1725630562191795700,3.321795654296875,1.3312734459415076,1.023110583089292,-1.038657404050231
1725630562201830000,3.331829833984375,1.6275409960776566,1.0641728074483572,-1.2917571358501911
1725630562211864000,3.341864013671875,1.8645991091370582,1.0925476919308303,-1.3014625373065472
1725630562221897700,3.351897705078125,1.722243479079008,0.9184999426010996,-1.365093005695939
1725630562231932000,3.361931884765625,1.3462334069252013,0.7677423218354582,-1.2477940754830836
1725630562241966000,3.371966064453125,1.0565291608273983,0.7032604973137379,-0.8584463828504085
1725630562251999700,3.381999755859375,0.8046177620291709,0.6088019060708582,-0.4791653262019157
1725630562262034000,3.392033935546875,0.4186392535686493,0.5634314265912398,-0.6654243953943252
1725630562272067800,3.40206787109375,-0.004504910203814506,0.5949727026827633,-0.9973708694159984
1725630562282101800,3.412101806640625,-0.09586626608371734,0.4461737051716074,-0.5781085155129433
1725630562292136000,3.422135986328125,0.6841290958642959,-0.2825867057101801,0.5761679028391837
1725630562302169900,3.432169921875,0.9472989707797765,-1.0482135332290083,1.0716571718543768
1725630562312203800,3.442203857421875,0.3054723085939884,-0.8229036525651812,0.28720132336616516
1725630562322238000,3.452238037109375,-0.5305418776959181,-0.05673486365675926,-0.7144698735922574
1725630562332271900,3.46227197265625,-0.9854799406141043,0.5058627059262245,-1.3482131825655699
1725630562342305800,3.472305908203125,-1.0612059204667805,0.7642227694071829,-1.5593120939821004
1725630562352340000,3.482340087890625,-0.7534446241527796,0.9959756887305528,-1.0377069714576006
1725630562362374000,3.492373779296875,0.019026187509298322,1.0438200475104153,-0.20042320362329483
1725630562372407800,3.50240771484375,0.7374731480389833,0.8830925291333347,0.21476503270864486
1725630562382442000,3.51244189453125,0.5592378108263015,0.7958075558468699,0.30249826121926304
1725630562392476000,3.522475830078125,-0.1535118148446083,1.0501095030434429,-0.24272563730180263
1725630562402509800,3.532509765625,-0.10992460205256939,1.3106599892407655,-1.5055992084950207
1725630562412544000,3.5425439453125,0.27884032225608824,1.2614356473445891,-2.0501292795330284
1725630562422578000,3.552577880859375,0.0009498480707406997,0.7405693604886532,-1.3290619073718786
1725630562432611800,3.56261181640625,-0.773509507060051,0.13912190883383155,-0.6739882256001234
1725630562442645800,3.572645751953125,-0.8723194253802299,-0.3022225130178034,-0.68393503459692
1725630562452680000,3.582679931640625,-0.8323235150784254,-0.9488516801144927,-0.40044951688349245
1725630562462713900,3.5927138671875,-0.7867991967439651,-1.2147846630677581,0.65935413556993
1725630562472747800,3.602747802734375,-0.7977952225327491,-1.3563555724889038,1.6674837148874997
1725630562482782000,3.612781982421875,-0.5748685106784105,-1.321532827041298,1.9812159023046492
1725630562492816000,3.62281591796875,-0.053990533384680746,-1.0871908410727977,1.9945015003353357
1725630562502849800,3.632849853515625,0.4511725729048252,-0.9637409139495342,2.1902444371879097
1725630562512884000,3.642884033203125,-0.09344459189474583,-0.637853520771116,1.9794711044639348
1725630562522918000,3.65291796875,-0.7088035183936358,0.08625668968465179,1.0475070654600858
1725630562532951800,3.662951904296875,0.3752104462087154,0.08650043531265109,0.8568407012194394
1725630562542986000,3.672986083984375,0.8880687831759452,0.05190711470674723,1.5056184977173805
1725630562553020000,3.68302001953125,1.0061977344721555,-0.13127674829140304,0.45464580197334287
1725630562563053800,3.6930537109375,0.9508686459600925,-0.24923176779281347,-0.2705219912439585
1725630562573088000,3.703087890625,1.0062392355263232,0.15761683901064097,0.6793167271465063
1725630562583122000,3.713121826171875,1.1629460470199584,0.09273198664598166,0.9448685287624597
1725630562593155800,3.72315576171875,1.3184651100337506,-0.5323536763582378,-0.26846096706092354
1725630562603190000,3.73318994140625,0.755941117143631,0.18888547217324375,-2.5618846236944197
1725630562613223700,3.7432236328125,0.39348669213354587,2.4396698643893,-4.131353370031714
1725630562623259000,3.7532587890625,0.22292145115733145,2.21706288600862,-4.174784515479207
1725630562633292800,3.763292724609375,0.542229977402091,0.7507043855339288,-1.8092735277563332
1725630562643325700,3.77332568359375,0.2992354600310325,0.1381968298781663,-1.053469188734889
1725630562653361000,3.78336083984375,-0.06963058558702469,0.07798815263099967,-0.505138556370139
1725630562663394800,3.793394775390625,-0.24228081614375113,-0.4361511640574783,1.5214754075407981
1725630562673429000,3.803428955078125,-1.2669757458150386,-0.7043352869383991,1.2399094597131013
1725630562683463000,3.813462890625,-2.4979881978452205,-0.30536974326865746,-0.3497363977342844
1725630562693496800,3.823496826171875,-2.7955905037164688,-0.18587706587119027,0.12972118941247462
1725630562703530800,3.83353076171875,-2.3408313044965268,-0.3527859214980155,1.5947691918104887
1725630562713565000,3.84356494140625,-1.846604018241167,-0.4667817185122519,1.8072218559235333
1725630562723598800,3.853598876953125,-1.2330278835058213,-0.15583877822114153,0.12467618098258972
1725630562733632500,3.863632568359375,-0.1358919870018959,0.21987523359553887,-0.8388619769364595
1725630562743666700,3.873666748046875,1.1872300089269876,0.16094516144944354,-0.2981868277609348
1725630562753700600,3.88370068359375,1.8890753787457941,-0.17013874092614278,0.5694125833600759
1725630562763734500,3.893734619140625,1.818203268665075,-0.2907157612279057,0.23152327528595923
1725630562773768700,3.903768798828125,1.9816706603348253,-0.31305333830751475,-0.051533203360438345
1725630562783802600,3.913802734375,2.227865435051918,-0.4939900799660012,0.4844628480881452
1725630562793836500,3.92383642578125,2.2961305775046346,-0.7564632413215935,1.0843903966993094
1725630562803870700,3.93387060546875,2.190956384849548,-1.070533355456218,1.668460450965166
1725630562813904600,3.943904541015625,2.086315276157856,-1.2400159888274966,2.3255723605662584
1725630562823938600,3.9539384765625,1.8622703739285469,-1.2405933503240347,2.6389000588357447
1725630562833972500,3.963972412109375,1.1893605912148952,-0.9726271079774945,1.238882454752922
1725630562844006700,3.974006591796875,0.5517471628099679,-0.5888205367285758,-1.0981529645919799
1725630562854040600,3.98404052734375,0.38334465282559393,-0.20915241699125617,-1.8952678036451338
1725630562864074500,3.994074462890625,0.20640403159856796,0.13500568742034957,-1.9348732533246278
1725630562874108700,4.004108642578125,0.1096627362459898,0.3994095428438857,-1.6858090606510638
1725630562884142600,4.014142578125,0.0499403812110424,0.2784487291226163,-0.6615852556228637
1725630562894176500,4.024176513671875,-0.26561200737059115,0.24658940005786714,-0.07982932351827621
1725630562904210700,4.034210693359375,-0.7623515687078237,0.13310370799023657,-0.6286813494086265
1725630562914244600,4.04424462890625,-1.3458277487337589,-0.25661153931319713,-1.2472960628330707
1725630562924278500,4.054278564453125,-1.9627309820652006,-0.4508995646497234,-1.5442103864401577
1725630562934312700,4.064312744140625,-2.3744074108839035,-0.47021015859097237,-2.2557348542302846
1725630562944346600,4.0743466796875,-2.334307455685735,-0.48996418545078485,-2.9454437960535285
1725630562954380500,4.084380615234375,-1.6261930886000393,-0.9724003134842961,-3.191121853420138
1725630562964414700,4.094414794921875,-0.8579425249814987,-1.7601938550278544,-2.737988794097304
1725630562974448600,4.10444873046875,-0.7853542586326598,-1.6848858083263039,-1.1797843690961598
1725630562984482600,4.114482666015625,-1.6772528292298317,-1.277974694213271,0.1346755969494581
1725630562994516700,4.124516845703125,-2.215394076013565,-1.3668217291846871,1.0063362661600113
1725630563004550400,4.13455029296875,-1.9742863953024148,-2.086367590866983,1.6969009480297566
1725630563014584600,4.14458447265625,-1.0315864427506922,-1.9722706715658307,2.1200106250107287
1725630563024618800,4.15461865234375,-0.404124406003952,-1.4736853362314402,2.1207155584096906
1725630563034652400,4.16465234375,-0.282169758939743,-0.9616776247441768,1.5576327625930309
1725630563044686600,4.1746865234375,-0.32108255017995835,-0.6605312165252863,0.8318027060747146
1725630563054720800,4.184720703125,-0.2605605691999197,-0.34586934704259037,0.2708130831450224
1725630563064754400,4.19475439453125,0.06389993298053741,0.16351766055226324,0.27773089970946313
1725630563074788600,4.20478857421875,0.5919201832443476,0.881036400321126,0.7537772171080112
1725630563084822500,4.214822509765625,1.1018716928541659,1.5405179616630076,1.0967319918781517
1725630563094856400,4.2248564453125,1.4856342788308858,2.126613968798518,1.2969745782375335
1725630563104890600,4.234890625,1.5199392840147017,2.349084753578901,1.2274901231229305
1725630563114924500,4.244924560546875,0.8796043216913938,1.7479142191693187,0.69547934191823
1725630563124958500,4.25495849609375,0.6212064834833145,-0.004850801032036543,-0.5414870500802993
1725630563134992600,4.26499267578125,1.4329267709940672,-0.9872609788119793,-0.7123235092133283
1725630563145026600,4.275026611328125,1.539819458004832,-1.3120444293364881,-0.09183949478566646
1725630563155060500,4.285060546875,1.1037433319449423,-1.7605736481256782,0.00301028773188591
1725630563165094700,4.2950947265625,0.8983610446095466,-1.7843927689999342,0.14154197558760642
1725630563175128600,4.305128662109375,0.9323357949256896,-1.719394665519148,0.19273615625202656
1725630563185162500,4.31516259765625,1.0563836148768664,-1.5461040912322699,0.3429290558069944
1725630563195196700,4.32519677734375,1.3456284267693757,-1.167319293668121,0.963836848604679
1725630563205230600,4.335230712890625,1.1696686332732438,-0.37270007082298395,1.2256085471600293
1725630563215264500,4.345264404296875,0.507240497085452,-0.04112608337551355,0.3710083183437586
1725630563225298700,4.355298583984375,0.08811024512946605,0.31188363694101573,-0.6600321809619665
1725630563235332600,4.36533251953125,0.06765314803421497,0.8111905645482241,-1.4803683211266994
1725630563245366500,4.375366455078125,0.10103811576366424,1.5067293815687297,-2.090106485134363
1725630563255400700,4.385400634765625,-0.025956863555312154,1.9063199435353277,-2.9259307018101213
1725630563265434600,4.3954345703125,0.5306172810196876,2.069956846553087,-3.1954426392287014
1725630563275468500,4.405468505859375,1.3230886781811713,2.026194277194142,-2.9053911871284246
1725630563285502700,4.415502685546875,1.2899240752041339,2.2117054506286977,-3.1334885796189305
1725630563295536600,4.42553662109375,0.47093818060457704,2.397733925935626,-3.0138790343761444
1725630563305570600,4.435570556640625,-0.3596785305559635,2.0288237489148973,-1.7943489303469657
1725630563315604500,4.4456044921875,-0.812933754953742,1.4899676318600772,-0.5762696096479892
1725630563325638700,4.455638671875,-1.301425127905607,0.9520099249497056,-0.04077215537130832
1725630563335672600,4.465672607421875,-1.3790718466877936,0.5473983564833179,0.16244214027523993
1725630563345706500,4.47570654296875,-1.3382973532289266,0.1377531777638942,-0.1881540891587734
1725630563355740700,4.48574072265625,-1.2122282565832136,-0.5337747952025383,-0.8305693648874759
1725630563365774600,4.495774658203125,-0.823515939244628,-1.0465935308117418,-0.8992360738784074
1725630563375808500,4.50580859375,-0.2197211938112974,-1.1649000306319444,-0.22047464252710341
1725630563385842700,4.5158427734375,-0.32165713519752026,-1.2064264384366572,0.2588216165781021
1725630563395876600,4.525876708984375,-1.2571242138862608,-1.2571452566742896,0.1308247667402029
1725630563405910500,4.53591064453125,-2.0671733533143994,-1.0809008010178804,-0.274381589281559
1725630563415944700,4.54594482421875,-2.0390081660598516,-0.8250173567835241,-0.9513269111216067
1725630563425978600,4.555978515625,-1.2999229066491127,-0.5004699069719761,-1.7233786205887793
1725630563436012500,4.566012451171875,0.011966916647553442,-0.08147329133301973,-1.9047768057465553
1725630563446046500,4.57604638671875,1.4607581962496041,0.2912481145389378,-1.611743707486987
1725630563456080600,4.58608056640625,2.5219252460107207,0.6969804671961813,-0.7971896578550338
1725630563466114600,4.596114501953125,2.3424957305774092,0.7936889562577009,0.5327922869712114
1725630563476148500,4.6061484375,1.6606252272948623,0.37164946579150854,1.5346020156174898
1725630563486182400,4.616182373046875,1.3820865183338522,-0.2755321475561708,2.0426970837056637
1725630563496216600,4.626216552734375,1.2658756756186484,-0.8495588736481964,2.372093873244524
1725630563506250500,4.63625048828125,0.8184647933349013,-1.2885126009710133,2.2033342203855515
1725630563516284400,4.646284423828125,0.3803542388379574,-1.5052935035467148,1.7758353685349224
1725630563526318600,4.656318603515625,-0.17139117040634155,-1.60795191398859,1.5212819307953118
1725630563536352500,4.6663525390625,-0.948644540169835,-1.6625690548390148,1.4479408002525567
1725630563546386400,4.676386474609375,-2.085526756128669,-1.5746867732465266,1.1721055050313471
1725630563556420600,4.686420654296875,-2.8821465051412583,-1.5020298255756497,0.608603607019782
1725630563566454500,4.69645458984375,-2.406737901124358,-1.3532543916031718,0.3191197256743908
1725630563576488400,4.706488525390625,-0.835256061398983,-0.9766958917863666,0.8006196323037147
1725630563586522600,4.716522705078125,-0.3791442785263061,-0.29878442832790314,1.0890689099043607
1725630563596556500,4.726556640625,-0.4317214379817247,0.7169046995237469,1.0887591133028267
1725630563606590500,4.736590576171875,0.8285831595063209,1.0903936557020992,0.37113632863759993
1725630563616624600,4.746624755859375,1.4718249491870403,1.4234128004565834,-0.27031740858256814
1725630563626658600,4.756658447265625,1.8738970988363026,1.8846023249849675,-0.33558629182875155
1725630563636692500,4.7666923828125,1.7921698327422142,2.1406416173681615,-0.12106734283566474
1725630563646726700,4.7767265625,1.6783704350829123,1.7671654476061462,-0.605755816373229
1725630563656760600,4.786760498046875,1.7123937007158994,1.5758854815118013,-1.576096055522561
1725630563666794500,4.79679443359375,1.48732354709208,1.2046296181477605,-2.194882618382573
1725630563676828700,4.80682861328125,1.084508470121026,-0.021011662238091228,-2.1780758604884145
1725630563686862600,4.816862548828125,1.4960457827299833,-0.8918756281130016,-0.5926537582159042
1725630563696896500,4.826896484375,1.691655448591709,-1.679493593893945,2.392248772522807
1725630563706930700,4.8369306640625,0.8112257819920777,-2.029943400594592,3.787097449535131
1725630563716964600,4.846964599609375,-0.08804945485293865,-1.677586737359315,2.966930236196518
1725630563726999300,4.856999267578125,-1.0303349813848732,-1.2710805507853626,0.481374818944931
1725630563737033500,4.867033447265625,-1.8881985959112644,-0.7721212675720452,-2.391827332240343
1725630563747067100,4.877067138671875,-1.4002163415253162,-0.33447248536795376,-1.959459413048625
1725630563757101300,4.887101318359375,-0.5154992068648337,-0.7461499370999634,0.7384218270659446
1725630563767135500,4.897135498046875,-1.650800875633955,-1.0433397897128016,1.1733388462185859
1725630563777169200,4.907169189453125,-2.09490540984869,-0.6079682317256927,0.27210429199934005
1725630563787203300,4.917203369140625,-0.672030661791563,-0.5839945778768509,0.8834101437151431
1725630563797238300,4.92723828125,0.1825344957113266,-0.4372597098212689,1.5899018780350684
1725630563807272200,4.937272216796875,-0.021541969722509383,-0.10536430839970708,1.2324866162359713
1725630563817306400,4.947306396484375,-0.052907998844981194,0.02109963278248906,0.6368389369010925
1725630563827340300,4.95734033203125,-0.004967267018556595,-0.1498278656348586,0.23122458460032938
1725630563837374200,4.967374267578125,-0.1480517958730459,-0.08627543091773986,-0.42989305351078505
1725630563847408400,4.977408447265625,-0.3610761223942041,0.2088178512746468,-1.074151911279559
1725630563857442300,4.9874423828125,-0.6186825179636478,0.6224975462071597,-1.249389820241928
1725630563867476200,4.997476318359375,-0.33081834677457805,0.7828893298238515,-0.8819476699471474
1725630563877510400,5.007510498046875,0.021430910563468932,0.550015370581299,-1.287473174920678
1725630563887544000,5.0175439453125,0.5050467864334584,0.20858543075826017,-1.4177075745522976
1725630563897578200,5.027578125,1.0084241783499717,-0.34621816048026083,-0.6254261470049619
1725630563907612400,5.0376123046875,1.0083458524167537,-0.8593713156756013,0.15544482873380183
1725630563917646000,5.04764599609375,0.5560194333016872,-0.926620632149279,0.3831500070363283
1725630563927680300,5.05768017578125,0.025499767437577245,-0.6522923074249177,0.063643327870965
1725630563937714400,5.06771435546875,-0.39171266819834705,-0.43064979016222055,-0.849079419568181
1725630563947748000,5.077748046875,-0.3983808939158916,-0.34921580792628226,-1.387445122757554
1725630563957782300,5.0877822265625,-0.20524901634454726,-0.11573531589163466,-0.7430921569645405
1725630563967816400,5.09781640625,-0.03898001125752926,0.2201528084279038,0.5079501066595316
1725630563977850000,5.10785009765625,-0.02244096438884735,0.5900294375943019,1.1468132428646087
1725630563987884300,5.11788427734375,-0.3510246839791536,0.7811041999727487,0.7155944937080144
1725630563997918500,5.12791845703125,-0.649404403963685,-0.13603444594619796,-0.7126543486028909
1725630564007952100,5.1379521484375,-0.6297855112582444,-1.575273340962827,-1.6769979776859283
1725630564017986300,5.147986328125,-1.3112351587802171,-1.9980539321199058,-1.2947814521074295
1725630564028020500,5.1580205078125,-2.3762930785000322,-1.8533480856738984,-0.1257838499635458
1725630564038054100,5.16805419921875,-3.2824370320707557,-1.659857165531814,0.798811706098914
1725630564048088300,5.17808837890625,-3.3206396292150018,-1.2429235468372701,1.1771411611109972
1725630564058122200,5.188122314453125,-2.567465638697147,-0.6774052675019949,1.1853601234018802
1725630564068156200,5.19815625,-1.4959727174937725,-0.028959917828813193,1.0836509765088558
1725630564078190300,5.2081904296875,-0.33913433969914913,0.850228662668541,0.9027665860921144
1725630564088224300,5.218224365234375,0.8643360254108905,1.70584647102952,0.6557283462882042
1725630564098258200,5.228258056640625,1.690148551160097,2.196553035812825,0.47302433922886844
1725630564108292400,5.238292236328125,1.41235043143332,1.8350024277746677,0.152857734850049
1725630564118326300,5.248326171875,1.070938794451952,0.7378396432638168,-0.0545762243181467
1725630564128360200,5.258360107421875,1.7919681726902723,0.24041502227187156,0.9064087419867515
1725630564138394400,5.268394287109375,1.9458155030995605,0.20179609941169618,1.8442554092884063
1725630564148428300,5.27842822265625,1.8898527928590774,0.17643983209803699,1.4210124613165855
1725630564158462200,5.288462158203125,2.0684984644383193,-0.1748676143452525,0.6113274790257215
1725630564168496400,5.298496337890625,1.9643126982986925,-0.27509054126851257,0.4659136304408312
1725630564178530300,5.3085302734375,1.387033034825325,-0.3364098831713199,0.04612111518383026
1725630564188564200,5.318564208984375,0.9872153861045837,-0.629917394009605,-0.5178717812150716
1725630564198598400,5.328598388671875,0.9067465956389903,-0.6163808168925344,-0.15249883840978146
1725630564208632300,5.33863232421875,0.9085627051502466,-0.14368117957338689,0.9272750044047832
1725630564218666200,5.348666259765625,0.2910854713231325,-0.0489392413444817,0.9609306057691573
1725630564228700200,5.3587001953125,-0.6135094992399215,-0.18161946322564035,-0.5118325010508299
1725630564238734300,5.368734375,-0.8100807036101818,-0.10464289878997951,-1.7384008331537246
1725630564248768300,5.378768310546875,-0.8481833475112914,0.44426812727861104,-1.7466688952833413
1725630564258802200,5.38880224609375,-1.3613041348069905,0.827604815993458,-1.4586574245780706
1725630564268836400,5.39883642578125,-1.6662082881242035,0.8569380971793085,-1.2062398298233747
1725630564278870300,5.408870361328125,-1.7336767272412776,0.4438086930733174,-0.8666507320940494
1725630564288904200,5.418904296875,-1.870319240349531,-0.06342921019624918,-0.344520708912611
1725630564298938400,5.4289384765625,-1.7741981227219104,-0.38172614824566986,0.03249883254468441
1725630564308972300,5.43897216796875,-1.6377631148844956,-0.4023382167069241,0.4593681543201208
1725630564319006200,5.449006103515625,-1.4401485389411448,-0.2543114091446623,0.5626695388406515
1725630564329040400,5.459040283203125,-1.350408062261343,-0.07122001020293682,-0.13509995984137058
1725630564339074300,5.46907421875,-0.9549205516993999,0.07361494251545518,-0.9338128817409277
1725630564349108200,5.479108154296875,-0.48662265647053715,0.12123933840170502,-1.0913321786612271
1725630564359142400,5.489142333984375,-0.3839373580217361,0.15735665370449423,-0.7464566649615764
1725630564369176300,5.49917626953125,-0.532591795963049,0.28608883207961916,-0.8009154003798962
1725630564379210200,5.509210205078125,-0.00857552064359188,0.3614250088971108,-0.7963526225090026
1725630564389244400,5.519244384765625,0.5896311955243349,0.22974990893788635,-0.1991039377182722
1725630564399278000,5.529278076171875,0.7848515698075293,0.058279462750256056,0.5981617079824209
1725630564409312300,5.539312255859375,0.7746651068359613,0.05274111784547567,0.9145002785056829
1725630564419346400,5.549346435546875,0.9809972422420978,0.1527233678806573,0.9326356546550989
1725630564429380000,5.559380126953125,1.0993336988091469,0.13334843999892473,0.8277724276453257
1725630564439414300,5.569414306640625,0.9023287791967392,0.07974800191037357,0.5520628046303987
1725630564449449200,5.57944921875,0.9144494251012801,0.15489274780899284,0.34996260770559307
1725630564459483400,5.5894833984375,0.7121323705554008,0.2617742558386177,0.27827333602309223
1725630564469517300,5.599517333984375,0.2894318588972091,0.36259390654601154,0.16647417227029798
1725630564479551200,5.60955126953125,0.15158990687131882,0.3849712311141193,0.07222761634290217
1725630564489585200,5.619585205078125,-0.1271603990137577,0.3788556708432734,0.002079436622560024
1725630564499619300,5.629619384765625,-0.4034954604506492,0.3625619770377874,-0.2259866839468479
1725630564509653200,5.6396533203125,-0.5522048434495925,0.32801819466203447,-0.23166122245192527
1725630564519687200,5.649687255859375,-1.9759277327686546,0.3342227483905852,0.04116875347346067
1725630564529721300,5.659721435546875,-3.5334728170782324,0.5634259101659059,0.45061260093450545
1725630564539755300,5.66975537109375,-2.2878332892805338,0.07501739319190383,-0.45842356694638725
1725630564549789200,5.6797890625,-1.5471628065049647,-0.3674586630381644,-0.6514739037141204
1725630564559823400,5.6898232421875,-0.9056342504829168,-0.5627336901180445,-0.07948767047375441
1725630564569857300,5.699857177734375,-0.08991349515914916,-0.7626338927805423,0.21410452297329902
1725630564579891200,5.70989111328125,0.4135223489463329,-1.0107255871601402,0.7857201693356036
1725630564589925400,5.71992529296875,1.6103735881775616,-1.404720667207241,1.4077876535624265
1725630564599959300,5.729959228515625,2.5125334405481814,-2.0049014599271118,1.549487742321193
1725630564609993200,5.7399931640625,3.014000614929199,-2.0127431133382023,1.7223916553780436
1725630564620027400,5.75002734375,3.6268718162655826,-0.854185802796483,2.0663173210069536
1725630564630061300,5.760061279296875,3.641903381180763,0.16924845928922294,1.024548506937921
1725630564640095200,5.77009521484375,3.370412252643704,0.891092222650349,-1.014197793315351
1725630564650129400,5.78012939453125,2.9393565850943326,1.3010681311614811,-1.4141945979952812
1725630564660163000,5.7901630859375,2.1739193253308535,1.5701296944640577,-1.026335098093748
1725630564670197200,5.800197265625,1.5411305406033993,1.7116662632241844,-1.0717769988417625
1725630564680231400,5.8102314453125,1.5614526131421327,1.36361285014078,-0.26211715099215505
1725630564690265000,5.82026513671875,1.2524550530314444,0.9217362211085856,0.7615145333617925
1725630564700299300,5.83029931640625,0.2929810758113861,0.9313361163638532,1.1729723509937524
1725630564710333400,5.84033349609375,-0.6783329768061638,1.160855358351022,1.076699842196703
1725630564720367000,5.8503671875,-0.9571212766140699,1.0014723133854568,0.40065409954488274
1725630564730401300,5.8604013671875,-1.0099334138691425,0.7409836403779685,-0.41266660889983175
1725630564740435500,5.870435546875,-0.9581552958369255,0.6188000068634748,-1.2099667413920163
1725630564750469000,5.88046923828125,-1.0059148258775472,0.5241362484373152,-1.766936607286334
1725630564760503300,5.89050341796875,-0.7622574606835841,0.2430582302570343,-1.4251415239453316
1725630564770537500,5.900537353515625,-1.022334630280733,-0.08217727488391101,-0.7110527586251497
1725630564780571100,5.910571044921875,-1.1563438722759485,-0.35622495603598653,-0.31609774750471115
1725630564790605300,5.920605224609375,-1.1740765128433703,-0.5873693150069564,0.10736819556802511
1725630564800639500,5.930639404296875,-1.287249303036928,-0.7406676332313566,0.3935977512925863
1725630564810673200,5.940673095703125,-1.3486229324102401,-0.8424119975682347,0.2414265374019742
1725630564820707300,5.950707275390625,-1.3580454252719878,-0.8522877140901982,0.09097732499837875
1725630564830741500,5.960741455078125,-1.6145546732544898,-0.7969228966776282,-0.6004129940405488
1725630564840775200,5.970775146484375,-1.444885504335165,-0.673487655666843,-0.9899427652418613
1725630564850809300,5.980809326171875,-1.09947690667212,-0.8128764718085527,-0.7279512864559888
1725630564860843500,5.990843505859375,-0.7010521736145019,-0.8758031027775257,-0.0300461786955595
1725630564870877200,6.000877197265625,-0.5423667555242777,-0.7378578365076333,0.27735446761250493
1725630564880911400,6.010911376953125,-0.2708984233409166,-0.5313286076268181,0.3744090666979551
1725630564890945300,6.0209453125,0.24466449640989302,-0.3910485417338088,0.6804279032588004
1725630564900979200,6.030979248046875,0.5588181241095066,-0.10857877693418412,0.9811375274956226
1725630564911013400,6.041013427734375,0.9355261153995991,0.18600297553949058,1.125769870314002
1725630564921047300,6.05104736328125,1.2849123845219612,0.3012056823917664,1.3015180668860673
1725630564931081200,6.061081298828125,1.388623518887162,0.3214186867991462,1.1032020646750926
1725630564941115400,6.071115478515625,1.7753659974575042,0.06288811645633541,0.30156244167387486
1725630564951149300,6.0811494140625,2.1620050156533717,-0.10424884883794001,-0.27597733404040337
1725630564961183200,6.091183349609375,1.8589713323831558,0.061137989419954825,-0.43603462500572204
1725630564971217400,6.101217529296875,1.6004548362314701,0.2301357664503157,-0.5948503914773464
1725630564981251300,6.111251220703125,1.4250333873957395,0.4628455481071025,-0.5602163004696369
1725630564991285200,6.12128515625,0.9227753548979759,0.9352024364031851,-0.19384616332054136
1725630565001319400,6.1313193359375,-0.0325122765481472,1.3923662125468252,-0.20874036559164522
1725630565011353300,6.141353271484375,-0.7871738752752542,1.7604459300927817,-0.3591688274681568
1725630565021387300,6.15138720703125,-0.9921768079042435,1.2166264915421605,-0.872009628778696
1725630565031421400,6.16142138671875,-1.1588842044085264,0.7416099555827677,-1.3705156152665614
1725630565041455400,6.171455322265625,-1.826510493761301,0.7427326760023832,-1.1859621809482574
1725630565051489300,6.1814892578125,-2.2250930477291346,0.7395306650906801,-0.2410661796569824
1725630565061523200,6.191523193359375,-1.844461160993576,0.8139579103697091,1.0245371087610722
1725630565071558100,6.20155810546875,-1.3495897316157817,0.6672597210627049,1.694374644422531
1725630565081592300,6.21159228515625,-1.3172995733857153,0.5034973650343716,1.5505395894616842
1725630565091626500,6.22162646484375,-1.3999252496242522,-0.011727116542309521,-0.017511106771230696
1725630565101660200,6.23166015625,-0.7271680271238088,-0.34058315026797353,-1.1295382829368115
1725630565111694300,6.2416943359375,-0.10680968490242958,0.35527803057469426,-0.39102176332473754
1725630565121728500,6.251728515625,-0.23995441902279852,1.05640436540395,0.4005038774192333
1725630565131762200,6.26176220703125,-1.2683984720945358,1.0034587379623203,-0.5429278965383768
1725630565141796400,6.27179638671875,-1.5742226628661156,0.6543090540748089,-1.7218793219417332
1725630565151830300,6.281830322265625,-1.2376631420910358,0.45865554907135664,-1.060835918110609
1725630565161864200,6.2918642578125,-1.0801537820428608,-0.21959544853977858,0.758447547006607
1725630565171898400,6.3018984375,-0.8725432972639798,-1.1101765067975968,1.7457272305190563
1725630565181932300,6.311932373046875,-0.30556583209633825,-1.275958970476687,1.7110463777601719
1725630565191966200,6.32196630859375,0.4669885661959648,-0.8914721618786454,1.1125427244722843
1725630565202000400,6.33200048828125,0.9475888936370611,-0.29024748612903056,0.44461599086821074
1725630565212034300,6.342034423828125,0.9435428331166505,0.2998960793642327,-0.05975158112943172
1725630565222068200,6.352068115234375,0.6625327656060457,0.7551432447642088,-0.6894616890639066
1725630565232102400,6.362102294921875,0.7770610620617866,1.1457740360099822,-1.0260580347180366
1725630565242136300,6.37213623046875,1.204014554989338,1.6219341159813105,-0.449015102609992
1725630565252170200,6.382170166015625,1.0544880103886127,1.5690673259295522,-0.011415712505578993
1725630565262204400,6.392204345703125,1.1593740337520837,1.1064187616992742,-0.15704641871154307
1725630565272238300,6.40223828125,1.8128011173605918,0.6001978899851441,0.08934183275103569
1725630565282272300,6.412272216796875,2.2237515699923036,0.16446723462836815,1.0742945346206425
1725630565292306400,6.422306396484375,1.9351883106231689,-0.08250236951927654,1.5716829152554272
1725630565302340400,6.43234033203125,1.6700421671986578,-0.11062622924959287,0.8780880719095469
1725630565312374300,6.442374267578125,1.795698591390252,-0.0280259797132574,0.20778876395523546
1725630565322408200,6.452408203125,1.4680764103084802,0.10738744825776665,-0.057305941542983053
1725630565332442400,6.4624423828125,1.0050403811305761,0.19672394724655895,-0.5054360780119895
1725630565342476300,6.472476318359375,0.6373077234566211,0.4283457510035485,-1.056207089266181
1725630565352510200,6.48251025390625,0.21996903109252453,0.6194193078055977,-1.5067092155635355
1725630565362544400,6.49254443359375,-0.2738531814932823,0.6688331809245049,-1.8893571182966231
1725630565372578300,6.502578369140625,-0.8990840981870889,0.8217797631017864,-2.031133487161994
1725630565382612200,6.5126123046875,-1.2993395538032053,0.9313873350944369,-1.5405127009660005
1725630565392646400,6.522646484375,-1.7022721196740864,0.9970356461122631,-0.7007119818747043
1725630565402680300,6.532680419921875,-2.1869342897266146,1.171057018891722,-0.41742403255999083
1725630565412714200,6.54271435546875,-2.2459271614432335,1.3399408826522528,-0.3506388995319605
1725630565422748400,6.55274853515625,-2.3819383909106255,1.3834835256502032,-0.5348828295096755
1725630565432782300,6.5627822265625,-2.272860761076212,1.212981851429492,-1.2939777345091104
1725630565442816300,6.572816162109375,-1.9315134215027092,0.8985632161181419,-1.4546514038071034
1725630565452850400,6.582850341796875,-1.4991139381289482,0.8324711068555712,-0.8017170721516013
1725630565462884400,6.59288427734375,-1.0131816020101307,0.841839531442523,-0.2980672930344939
1725630565472918300,6.602918212890625,-0.1800982084751129,0.8023091197606176,0.1917217185124755
1725630565482952400,6.612952392578125,0.49928456964492796,0.6246329508006573,1.0616849361553788
1725630565492986000,6.622986083984375,0.5906576159626246,0.4004680023882538,1.4115917220205068
1725630565503020300,6.633020263671875,0.8044879981696605,0.27332506596595046,1.1250374643862247
1725630565513054500,6.643054443359375,0.9310229587614536,-0.03438545000888407,0.7816998277783394
1725630565523088100,6.653088134765625,0.7223012978702783,-0.19122933188565075,0.7787374708414078
1725630565533122300,6.663122314453125,-0.4239478813707828,0.07115859887190162,1.4210159684479235
1725630565543156500,6.673156494140625,-0.6948609177589417,-0.023617753083258867,1.8495722203969955
1725630565553190100,6.683190185546875,0.686615067461133,-1.0302638889100402,1.0366454797059297
1725630565563224300,6.693224365234375,1.1835305698871612,-0.7110477901890874,1.3766098404884337
1725630565573258500,6.703258544921875,1.7112462842464446,-0.1633012413226068,1.7362047844141721
1725630565583292200,6.713292236328125,1.9691326658010482,-0.08122896118313074,1.616879901331663
1725630565593326300,6.723326416015625,2.005232153186202,-0.24705197606831789,1.0505074163198471
1725630565603360500,6.733360595703125,1.791383066278696,-0.1991384245097637,0.8261088783472776
1725630565613394200,6.743394287109375,1.4864648844361303,-0.0008570552207529544,1.1592565448522567
1725630565623428400,6.753428466796875,2.220463049840927,-0.11478358639106154,0.5358206948816776
1725630565633463300,6.76346337890625,0.14515724347531794,0.6425966236449777,-0.4482786050289869
1725630565643497200,6.773497314453125,-1.3356751880317925,0.9297919556617736,-1.0966934134334325
1725630565653531400,6.783531494140625,-0.9478729712754488,0.4551755249358713,-0.6755155812978744
1725630565663565300,6.7935654296875,-0.5004729026466608,0.44512554782554503,-0.6845557968437671
1725630565673599200,6.80359912109375,-0.007369651985168457,0.4586484617434442,-0.549048425245285
1725630567851842000,8.981842041015625,0.10065934557914734,0.7780316606596112,-1.3179060148462651
1725630567861876200,8.991876220703125,-0.11551146227419376,0.13990034586042166,-1.143946162995696
1725630567871910100,9.00191015625,-0.1262894613981247,-0.6015884675607085,-1.5800835177235304
1725630567881943300,9.011943359375,0.11259762065410614,-0.9877087225794792,-2.2230926676921543
1725630567891977000,9.02197705078125,0.17549802120327948,-1.7846105034038424,-2.6625144509181378
1725630567902011100,9.03201123046875,0.3542103282779455,-2.829020187370479,-2.4882597077742217
1725630567912045300,9.04204541015625,0.5833166055500507,-2.677017608045041,-1.9141101590201257
1725630567922078200,9.052078125,0.3786211314350366,-1.7878478778898714,-1.349982822586596
1725630567932112100,9.062112060546875,-0.19379940156936645,-0.8059668385505676,-0.7919254537165165
1725630567942146000,9.07214599609375,-0.4278817136883735,0.02393850947022438,-0.40609924974087624
1725630567952180200,9.08218017578125,-0.25988719998300075,0.48526656568646426,-0.14716843716725705
1725630567962213000,9.092213134765625,0.2533060680270195,0.649630029413104,-0.029231391713954506
1725630567972247000,9.1022470703125,0.8749035966545343,0.31852877404391766,-0.2771963544413447
1725630567982281200,9.11228125,1.1925783842176199,0.2453630000680685,0.007642696772888302
1725630567992315100,9.122315185546874,1.2308213133722543,0.2579068398207426,0.22550240756124257
1725630568002348300,9.132348388671875,0.983341175019741,0.16905132928192615,0.34981161839496344
1725630568012382000,9.1423818359375,0.607850158303976,0.09657295304834843,0.47354533089566975
1725630568022416100,9.152416015625,0.26549101133942604,0.8184574868112802,-0.33516850480809807
1725630568032449300,9.16244921875,-0.4568862743765115,0.39514556525647637,-0.6680958065606654
1725630568042483200,9.172483154296875,-0.6742600282788276,-0.5608282948881388,0.42278899365924294
1725630568052517000,9.18251708984375,-0.4857020344942808,-0.4297422468632459,0.7251010846566408
1725630568062551300,9.19255126953125,-0.5853852285176515,0.04827566286921501,0.7358504422079771
1725630568072584200,9.202584228515626,-0.7914894003868103,0.35084406671524043,0.31709559943564236
1725630568082618000,9.2126181640625,-0.7911626526504755,0.22255670949816703,0.3044325902827084
1725630568092652000,9.222652099609375,-0.4789537292778492,0.19639292519390583,0.4842372226387262
1725630568102686200,9.232686279296875,-0.1758247689396143,0.22581424998939037,0.4084539596408605
1725630568112719000,9.242718994140626,-0.20342063187360762,-0.10516834743618965,0.757682992374897
1725630568122753000,9.2527529296875,-0.1309247199833393,-0.21153379570245742,0.8999654841315001
1725630568132787200,9.262787109375,-0.07792670476734638,0.07128302896916866,0.6968431776173413
1725630568142821000,9.272821044921875,0.2707476166933775,0.0708417149424553,0.27277641910724343
1725630568152854300,9.282854248046876,0.4448205735296011,-0.18701953217089176,0.03786350138299167
1725630568162888000,9.292887939453125,0.45287879230082034,-0.2613970200240612,-0.008510346452891827
1725630568172922000,9.302922119140625,0.3542068211466074,-0.36444822917580605,0.07140446339175105
1725630568182955300,9.312955322265625,0.27916180929541584,-0.40658816576898094,0.06099617436304688
1725630568192989200,9.3229892578125,0.2637912216842174,-0.3047714668482542,-0.031945801771804685
1725630568203023000,9.333023193359375,0.16436346372663974,-0.17183131538927554,0.011888882975280284
1725630568213057000,9.34305712890625,0.0707628044873476,-0.09721183547377586,-0.004866290862113237
1725630568223090200,9.353090087890624,0.07097673949897289,0.016400515180826185,-0.03544321543350815
1725630568233124400,9.363124267578126,0.05808452470004558,0.0847054051220417,-0.02654050866216421
1725630568243158000,9.373157958984375,0.11113573140799998,0.09819967746734619,-0.032501243697479365
1725630568253192200,9.383192138671875,0.24989713636636732,0.02284136188328266,-0.03964687766842544
1725630568263225000,9.39322509765625,0.43510932685434817,-0.051958735296130175,-0.03534370058178901
1725630568273259300,9.40325927734375,0.6310872415065765,-0.2597615277767181,-0.26184790559671817
1725630568283293200,9.413293212890625,0.6149439159572124,-0.15283493849635124,-0.33259858125485475
1725630568293327000,9.4233271484375,0.7199047581225633,0.3240086667597294,0.09443725619390607
1725630568303360300,9.4333603515625,0.6971639340043068,0.02150163771212101,0.33408640865981576
1725630568313394200,9.443394287109374,0.6301987682342529,-0.057878772994875906,0.46838710788227617
1725630568323428000,9.453427978515625,0.614832856798172,-0.08641396260559558,0.06283581088036298
1725630568333462300,9.463462158203125,0.5487152477681636,-0.11474573859870434,-0.23150858917348086
1725630568343495200,9.4734951171875,0.5745528688579797,-0.24762509978115557,-0.3761792912408709
1725630568353529000,9.483529052734376,0.5579927792012691,-0.3504021681666374,-0.3087386899787932
1725630568363563000,9.49356298828125,0.529247746232152,-0.3995855935305357,-0.2982024637214839
1725630568373596200,9.50359619140625,0.5090314721554517,-0.36688334736824035,-0.40603645017035306
1725630568383630000,9.513630126953124,0.509810639834404,-0.3657902914345264,-0.4505385858502239
1725630568393664000,9.5236640625,0.48726913768053054,-0.36280104649066924,-0.3440199928488582
1725630568403698200,9.5336982421875,0.404926370036602,-0.3314934695571661,-0.17747487423419953
1725630568413731000,9.54373095703125,0.32791911820173264,-0.3033908261448145,-0.16545790789984166
1725630568423765200,9.55376513671875,0.2857540471673012,-0.2956125933587551,-0.27578290744684636
1725630568433799000,9.563798828125,0.1669967348396778,-0.33802024097740646,-0.3641852673906833
1725630568443833000,9.5738330078125,0.10061842904686927,-0.3853694366514683,-0.41755686515942214
1725630568453866200,9.5838662109375,0.14061609291434288,-0.4356254596829414,-0.4622896677900105
1725630568463900200,9.593900146484375,0.20270166994929312,-0.4219803806900978,-0.46142698654606934
1725630568473934000,9.60393408203125,0.22700725916624068,-0.39160920782387254,-0.4038724770694971
1725630568483968300,9.61396826171875,0.26397709964513777,-0.3454746486365795,-0.29999519235715266
1725630568494001200,9.624001220703125,0.30773908448219295,-0.3345154477268457,-0.16237207071371376
1725630568504035300,9.634035400390625,0.30185528714060783,-0.31898528563976286,-0.10432247119657695
1725630568514069000,9.644069091796876,0.28255729695260523,-0.310126271879673,-0.1118858191229403
1725630568524103200,9.654103271484376,0.2551058109253645,-0.2847457469075918,-0.03307612097598612
1725630568534136000,9.664135986328125,0.23966157355606554,-0.20793723251521587,0.06664769731871784
1725630568544170200,9.674170166015625,0.16343524296581743,-0.04578676866292953,0.23147592901289463
1725630568554204200,9.6842041015625,0.12932780618071554,0.10670154835283756,0.34977285728715357
1725630568564237000,9.694237060546875,0.12512217118442057,0.15164485192894936,0.4138661208827048
1725630568574271200,9.704271240234375,0.13454700213372706,0.10681669916510582,0.48133192965127525
1725630568584305200,9.71430517578125,0.13857786508500575,0.08942541938126086,0.5838385105323046
1725630568594339000,9.724339111328124,0.08607552443146706,0.03677577921152115,0.6102194447185844
1725630568604372200,9.734372314453125,-0.013941431590914726,-0.03540449085831642,0.5644419553406537
1725630568614406100,9.74440625,-0.12267477803230285,-0.08567395789325237,0.4581022991027683
1725630568624440300,9.7544404296875,-0.1868552815198898,-0.10141980855762958,0.26239932893440127
1725630568634474000,9.764473876953126,-0.1311941845744848,-0.12821429198086262,0.11500782360099256
1725630568644507100,9.774507080078125,-0.05761924527585506,-0.19180267479419708,0.22569829545952377
1725630568654541300,9.784541259765625,-0.02681201907992363,-0.21104162827134132,0.37281076465584334
1725630568664575000,9.794574951171874,0.0040951603591442105,-0.17650281433165071,0.43955556567348536
1725630568674609200,9.804609130859374,0.0467073906391859,-0.14761924967467785,0.5025864607345313
1725630568684642000,9.81464208984375,0.10638649105429648,-0.11132862363159655,0.44053946214430034
1725630568694676200,9.82467626953125,0.18953414534032342,-0.1359434249281883,0.2804856783103198
1725630568704710100,9.834710205078125,0.2703945654720068,-0.20103578256368637,0.17969795711115003
1725630568714744000,9.844744140625,0.31147944005429745,-0.22759762627482413,0.136355732056126
1725630568724777200,9.854777099609375,0.3133668612360954,-0.22462065629065037,0.21140995012708008
1725630568734811000,9.864810791015625,0.27349077792167664,-0.1301928985774517,0.3570025162797421
1725630568744844800,9.8748447265625,0.2225105322688818,-0.03482815227508545,0.4115059676226228
1725630568754877700,9.884877685546876,0.26862580223381516,0.022925533035397527,0.35706469479575753
1725630568764911900,9.894911865234375,0.414542339643836,0.08333002511560916,0.2583232386019081
1725630568774945800,9.90494580078125,0.6160510004162788,0.12866437383592128,0.21802228093892334
1725630568784979700,9.914979736328124,0.7015665528774261,0.13557517613768577,0.26917233020067216
1725630568795012600,9.9250126953125,0.679043170902133,0.12176292388439178,0.30203488149121405
1725630568805046800,9.935046875,0.5809609823346138,0.054932782670855516,0.26672048006914556
1725630568815081000,9.9450810546875,0.3053057198554277,-0.030105215406417845,0.2747325946763158
1725630568825114600,9.955114501953124,-0.036062077984213826,-0.0906178440362215,0.20921324380040168
1725630568835147800,9.965147705078126,-0.2444213353037834,-0.10055354711711406,0.027503289279714224
1725630568845181700,9.975181640625,-0.3578822947889566,-0.14613690216243266,-0.17906857316643
1725630568855215900,9.9852158203125,-0.3775701610773802,-0.1896311759740114,-0.2142453927487135
1725630568865249800,9.995249755859374,-0.41675300143063065,-0.21773206582069396,-0.10381072228215635
1725630568875282700,10.00528271484375,-0.4930126497685909,-0.2527133628308773,-0.06667692341320217
1725630568885316900,10.01531689453125,-0.6496499031573534,-0.278393163010478,-0.11711129868626594
1725630568895350800,10.025350830078125,-0.6530752014309168,-0.3185223443031311,-0.10723930849134922
1725630568905384700,10.035384765625,-0.5487684392601251,-0.23934300912618636,-0.06236775497719645
1725630568915417600,10.04541748046875,-0.4106856642156839,-0.14199498005211353,-0.028506401907652613
1725630568925451800,10.05545166015625,-0.18737492147982118,-0.09280921660065651,-0.03193381907306611
1725630568935486000,10.06548583984375,0.06079612174630165,-0.07628828991055488,-0.06826243903897702
1725630568945518800,10.075518798828124,0.24699440066218376,-0.14558160636723042,-0.02598828160688281
1725630568955552800,10.085552734375,0.34470015713274477,-0.29511691879630086,-0.006112856857106089
1725630568965586700,10.095586669921875,0.3351215969264507,-0.40944121711254117,-0.02648300632126629
1725630568975620900,10.105620849609375,0.2620844177663326,-0.4971083946496248,-0.1033851172812283
1725630568985653800,10.11565380859375,0.09296353037953377,-0.34226153180897234,-0.19661036733686924
1725630568995687700,10.125687744140626,-0.10231821870207786,-0.24295652344822882,-0.14647183320522308
