time,seconds_elapsed,z,y,x
1725630839561557800,0.030557861328125,0.5694418094545602,0.09092617933303117,-0.8419021483499556
1725630839571592000,0.040592041015625,0.6170803434640169,0.11111819575130939,-0.8085507175639272
1725630839581626600,0.050626708984375,0.5714794527620077,0.2908770892694592,-0.7995669083803891
1725630839591660800,0.060660888671875,0.20196751045584677,0.49732203740030523,-0.968016107050702
1725630839601694700,0.07069482421875,-0.009894786548614502,0.271722014683485,-0.7632244060195982
1725630839611730000,0.08072998046875,0.10967501120567322,0.19284429280161858,-0.3806405449660495
1725630839621763600,0.090763671875,0.22994155905246733,0.2895861726760864,-0.090312166487379
1725630839631797800,0.1007978515625,0.23341829525232313,0.42867637119740243,0.11574110631160438
1725630839641831700,0.110831787109375,0.19155951368808746,0.5197618327453732,0.23991226038150487
1725630839651866600,0.12086669921875,-0.00376665905714035,0.4304068482518196,0.31820348761230705
1725630839661900800,0.13090087890625,-0.1933311995357275,0.31847061411589384,0.24260447687385603
1725630839671934700,0.140934814453125,-0.33418869999051093,0.2661041748017072,0.06393128253344911
1725630839681968600,0.15096875,-0.42788989699482916,0.2608110368296504,-0.12291225831629708
1725630839692003800,0.16100390625,-0.4513070129394531,0.20881459987163542,-0.3080958620306104
1725630839702037800,0.171037841796875,-0.46261166628599165,0.2499529582068324,-0.4108583904340863
1725630839712071700,0.18107177734375,-0.3590074994266033,0.4034256100848317,-0.44190892386659975
1725630839722105900,0.19110595703125,0.03531038283407688,0.5275134697854519,-0.24451146127264944
1725630839732140800,0.201140869140625,0.5044675252407789,0.4073170645654201,0.16968856773953883
1725630839742175000,0.211175048828125,1.2372399482429026,0.584919949093461,0.4615992743730545
1725630839752208600,0.221208740234375,1.3676263235658406,1.3402186766803263,0.27324283104259517
1725630839762242800,0.231242919921875,0.6792196965128183,1.3685411003232002,0.05440631111133843
1725630839772277800,0.24127783203125,0.13468845643103122,-0.08548749541044234,0.1479530847389251
1725630839782311700,0.251311767578125,0.06672551179528236,-1.503590206760168,-0.14507891754209995
1725630839792345900,0.261345947265625,0.37778234252333637,-1.7915592996284364,-0.2605816119879484
1725630839802379800,0.2713798828125,0.9819453367471694,-1.429413209915161,-0.38501492412537336
1725630839812414700,0.281414794921875,1.3759925853729247,-0.5142532984569669,-1.0631792663663626
1725630839822448600,0.29144873046875,1.5232856718331576,0.25814415570795535,-1.3447780935503542
1725630839832482800,0.30148291015625,1.3310785078912972,0.6682716015189886,-1.090153709466383
1725630839842516700,0.311516845703125,1.1088625746548175,1.082964455549419,-0.7004122682757675
1725630839852551700,0.3215517578125,1.1337667142868042,1.4574398654818534,-0.6039613341718911
1725630839862585900,0.3315859375,1.3204203357547522,1.610682507996261,-0.682102704603225
1725630839872619500,0.34161962890625,1.5072896457999945,1.9965642780840396,-0.2987470189269632
1725630839882653700,0.35165380859375,1.5667074649304151,2.730502822256088,0.2050542244248092
1725630839892688600,0.361688720703125,1.1694599589586256,2.73221488687098,-1.5509000933371484
1725630839902722800,0.371722900390625,0.0390916549384594,2.274150508625805,-2.536355630162358
1725630839912756700,0.3817568359375,-0.7343266667068005,2.3463275638252497,-2.5962863672509786
1725630839922790700,0.391790771484375,-1.1315063681393862,2.4512305383235216,-2.0546391581729053
1725630839932825900,0.401825927734375,-1.6237234836161136,2.6299112812161445,-1.144664978789538
1725630839942859800,0.41185986328125,-2.0470184540361163,2.766727397325635,-0.6285302505001426
1725630839952893700,0.421893798828125,-1.9736247165232896,2.634466460302472,-0.624547610604763
1725630839962927900,0.431927978515625,-1.2995786232560873,2.6045354324191807,-0.6607783231541514
1725630839972962800,0.441962890625,-0.5042506676197052,2.6996067487329243,-0.8265577911585569
1725630839982996700,0.451996826171875,-0.15898293973207472,2.6981524582713843,-1.1333607638344168
1725630839993031000,0.462031005859375,-0.014427169281244278,2.431413784958422,-1.6173527795404194
1725630840003064600,0.472064697265625,0.21959610612690447,2.0031296279489994,-1.8061551034748553
1725630840013099800,0.482099853515625,0.3125309949338436,1.7047984232813118,-2.162474678991735
1725630840023133700,0.4921337890625,0.1475771640986204,1.5500369006365537,-2.222273606394231
1725630840033168000,0.50216796875,-0.328468568778038,1.789763940644264,-1.9667729509323835
1725630840043201800,0.512201904296875,-0.6896592574626207,2.518601362285018,-2.595306416302919
1725630840053236700,0.52223681640625,-0.6556225478261709,2.9709380105331538,-3.2139407112106677
1725630840063271000,0.53227099609375,-0.39531098495125766,2.925164393612742,-3.4960181156918404
1725630840073304600,0.5423046875,-0.013293196815252303,1.6740081482201814,-2.8579636655211447
1725630840083338800,0.5523388671875,0.24501988571882247,-0.09389818088114261,-1.6089686898157
1725630840093373700,0.562373779296875,0.7085059967517853,-1.5389517352595925,-1.8474053977519274
1725630840103407900,0.572407958984375,0.9896154329836367,-1.9426672682017088,-1.7640408858448267
1725630840113441300,0.582441162109375,1.3792857816994188,-1.307255149233341,-2.11624104334414
1725630840123476000,0.59247607421875,1.4946417611509561,-0.2673926071770489,-2.243119118285179
1725630840133510100,0.60251025390625,1.1068144099533557,0.4900323187835514,-1.775426203212142
1725630840143544300,0.61254443359375,0.6247615456163883,0.7206780805826186,-1.08638478538692
1725630840153578000,0.622577880859375,0.44500411340296264,0.715085229011625,-0.7785124299138784
1725630840163613200,0.63261328125,-0.08809563208222389,0.3533712471053004,-0.1206944178700447
1725630840173647000,0.642647216796875,-0.32648002530932424,0.21977555434703824,0.20207798509299754
1725630840183681000,0.652680908203125,-0.6314286022901535,0.16406433464959264,0.24425416204333303
1725630840193715200,0.662715087890625,-1.0473860694289208,-0.2489065909590572,0.6824041717678309
1725630840203750100,0.672750244140625,-0.9413520450741052,-0.565768783497624,1.1473381435215473
1725630840213784300,0.682784423828125,-0.8590911104947329,-0.7182895049456507,1.0133797549307346
1725630840223818000,0.69281787109375,-1.396065067064762,-0.3726774571323767,0.9901900180011987
1725630840233852200,0.70285205078125,-2.0888556082904337,0.6831019447736442,1.082770102021098
1725630840243887000,0.71288720703125,-2.7900480671584607,1.022015773589909,1.7913170153051614
1725630840253921000,0.722921142578125,-2.7361452120572327,0.5093204451646656,2.945072040131688
1725630840263955200,0.732955078125,-2.241744322800636,-0.3046120385028422,3.6307436892628666
1725630840273989000,0.742989013671875,-1.9876193396061657,-0.5635387228906155,3.879669350248575
1725630840284024300,0.7530244140625,-2.203023254740238,0.40132118515148757,3.73226812723875
1725630840294058000,0.76305810546875,-2.2686557106018066,0.8654602071352302,3.7802281482875344
1725630840304092200,0.773092041015625,-2.6141765364676712,1.086475970801711,4.157997046807408
1725630840314126000,0.7831259765625,-2.490626144644618,0.9455997656464576,4.269879212668537
1725630840324161000,0.7931611328125,-1.9199837272286413,-0.05789718543440103,4.1193893759936095
1725630840334195200,0.8031953125,-1.3814263008594512,-0.9304711700975894,3.4270945093303915
1725630840344229000,0.81322900390625,-1.0856506258934735,-1.4150363095164298,2.323586155185103
1725630840354263000,0.823262939453125,-1.3645190052002667,-1.262754328727722,1.164716563823819
1725630840364298000,0.833298095703125,-1.811495295459032,-0.7053422720238566,0.41546880683898924
1725630840374332200,0.843332275390625,-0.4202899433851242,-0.07336743402779101,0.7801642887741327
1725630840384366000,0.853365966796875,0.17791268112957476,0.14461772977113724,1.8820657922446726
1725630840394400000,0.86339990234375,0.3363923475146293,0.5264142763718962,2.058800661766529
1725630840404435200,0.873435302734375,0.28416823928058144,0.9430304996803403,1.9037147294729946
1725630840414469000,0.88346923828125,-0.20054303061068057,1.2332549702599644,1.7961913433432577
1725630840424503000,0.8935029296875,-0.9335025006175041,1.2688552759513259,1.220994915884733
1725630840434537200,0.903537109375,-1.3012924414366482,1.1691691593185067,1.0865770930886267
1725630840444572200,0.913572265625,-1.176179038080573,0.8472805534526705,0.9493675937473773
1725630840454606000,0.923606201171875,-1.4842472083866596,0.5979203004419803,1.0344026692152022
1725630840464640300,0.93364013671875,-3.3294542193114753,0.6843895003661513,0.6277431917756795
1725630840474674200,0.943674072265625,-4.390931942456961,0.19475275677144527,-0.14364566986858843
1725630840484709000,0.953709228515625,-6.255078047129511,-0.9371060780674219,-1.0613082117974757
1725630840494743000,0.963742919921875,-10.863409462451934,-2.439647944818437,-2.891614590710401
1725630840504777200,0.973777099609375,-10.742706861275433,-3.9505855917319654,-4.065875812470913
1725630840514812200,0.983812255859375,-9.179878868126869,-4.772655423821509,-5.399292992442846
1725630840524846000,0.99384619140625,-9.382997886705398,-5.739235725915432,-5.064729029399157
1725630840534880300,1.00388037109375,-7.9208970436751835,-6.502444788235426,-4.8469724136590955
1725630840544914000,1.013913818359375,-5.6520133695364,-5.33731029126048,-4.161686548975109
1725630840554949000,1.02394921875,-3.905283683976531,-3.569128944610059,-3.1722476416021586
1725630840564983000,1.033983154296875,-2.6012682473167774,-2.515336515270173,-2.3414970749288795
1725630840575017200,1.044017333984375,-1.4742512995511292,-2.3502827311918137,-2.0428543200939893
1725630840585051100,1.054051025390625,-0.5654354964226483,-2.7612901747077703,-2.437908115413785
1725630840595086000,1.064086181640625,-0.0912483970247209,-3.3203900383681058,-2.686127089434862
1725630840605120300,1.074120361328125,-0.46235739926397795,-3.493189614267647,-2.3400790248245
1725630840615154000,1.08415380859375,-0.9520937307756394,-3.514687452587485,-1.0729209081798792
1725630840625188000,1.09418798828125,-0.8665129310585558,-4.2519186085641385,0.300765738338232
1725630840635223000,1.10422314453125,-0.7328869892925024,-4.865283730897307,0.6052502049386501
1725630840645257200,1.11425732421875,-1.2225813082933426,-4.830926703265309,0.22880349493324756
1725630840655291100,1.124291015625,-2.2029583728104827,-4.489077259388566,-0.41926878364384174
1725630840665325000,1.134324951171875,-2.568026195189357,-4.7060997156351805,-1.2669307376295327
1725630840675360300,1.1443603515625,-2.0785086940601465,-5.148117506703734,-1.5118851568967102
1725630840685394200,1.154394287109375,-1.6406287334486842,-4.098607869249582,-1.6120406446069477
1725630840695428000,1.164427978515625,-1.6574258467316627,-2.1716778300143775,-1.699324375784397
1725630840705462300,1.174462158203125,-1.0526454512618482,-0.8393728490680455,-1.322042968520522
1725630840715497000,1.1844970703125,0.8411044951662421,2.4661451988607643,-1.1953706452846526
1725630840725531100,1.19453125,2.189594302716106,6.874455561619997,-0.11047814428210258
1725630840735565300,1.2045654296875,1.4293347378514707,2.63829332511425,0.01988251207768917
1725630840745599000,1.214598876953125,2.6852228340715167,0.2742645387731492,-1.7189467756211756
1725630840755634200,1.22463427734375,1.8703598646208643,0.5530972622446716,-2.9493028095692395
1725630840765668000,1.234668212890625,0.6741670892983674,-4.6770910632938145,-3.3486785597413777
1725630840775702300,1.244702392578125,4.82420148666352,-3.1850770202979444,-5.355633883458376
1725630840785736200,1.254736083984375,1.1806149747014045,2.579420572645962,-3.2661732950121163
1725630840795771100,1.264771240234375,-0.9957003058552741,4.283035046839713,-0.29754852985739705
1725630840805805300,1.274805419921875,-1.5671183838188647,4.004103246907889,1.1493348702967165
1725630840815839000,1.2848388671875,-1.1212979855969547,2.373407440061122,1.1988000352114438
1725630840825873200,1.294873046875,-0.7794915040791034,-0.09690130821987986,-1.9222808982551096
1725630840835908000,1.304908203125,-0.24076836575418709,-1.6879427116788923,-8.85708133072257
1725630840845942000,1.31494189453125,1.5619696227535604,-1.9054042899951338,-4.743970304346084
1725630840855976200,1.32497607421875,2.4513331219151615,-0.13765636632591485,-2.111078546014428
1725630840866010000,1.335010009765625,0.8047979409016668,1.6216951926589012,-0.5151753817379474
1725630840876045300,1.34504541015625,1.326239251166582,2.2627453175142405,1.5746774208962917
1725630840886079000,1.355078857421875,2.141636765885353,2.136627413290739,3.0674025347709653
1725630840896113200,1.365113037109375,1.3921832571953534,1.6970298351064323,4.329058546867967
1725630840906147000,1.37514697265625,0.4885509941846132,1.9162965631484985,5.548928258115053
1725630840916182000,1.38518212890625,-0.10493658450692891,1.6985183200985192,6.248482886648178
1725630840926216200,1.39521630859375,-0.44190527060478924,1.3255451314225792,5.938920093870163
1725630840936250000,1.40525,-0.8356216798409819,1.31612556117028,5.101551570361853
1725630840946284000,1.415283935546875,-0.8830217289194464,1.504102832457423,4.878824764993786
1725630840956319000,1.425319091796875,-0.5902697856888175,1.4374889643430708,4.346048260113597
1725630840966353200,1.435353271484375,-1.134108367331326,0.621489099816978,3.03953077750504
1725630840976387000,1.445386962890625,-2.5631162113159895,-0.5433054976791143,1.929490391242504
1725630840986422000,1.455422119140625,-4.22827615943104,-1.288566230854392,1.1500585083961485
1725630840996456200,1.465456298828125,-4.612565691891312,-1.9373039876028895,0.13372048818171023
1725630841006490000,1.475489990234375,-3.5205580981865525,-1.5228230227574706,-1.8929110113859176
1725630841016524000,1.48552392578125,-1.736445607432723,-0.8364239361345768,-4.027285677313804
1725630841026559200,1.495559326171875,-0.33467940611690283,-1.007972342929244,-4.828374680694937
1725630841036593200,1.50559326171875,-0.3302548676729202,-1.23435416367352,-5.030265034261346
1725630841046627000,1.515626953125,-1.0328948950007557,-0.8762839450970291,-5.044077871036529
1725630841056661200,1.5256611328125,-1.4897411296278238,-0.6005702304288745,-4.352335377559066
1725630841066696200,1.5356962890625,-1.7670643253192304,-1.1728978244528174,-3.1037755784004926
1725630841076730000,1.545730224609375,-1.2532476647138595,-0.8270660329416394,-2.4186060335725545
1725630841086764000,1.555763916015625,-0.31293431503772734,1.4783742247000335,-3.603503215637803
1725630841096798200,1.565798095703125,0.5168833546996117,4.137577943634986,-3.7219320266634224
1725630841106833200,1.575833251953125,0.6811871971935033,5.218651763132215,-2.3777765950560568
1725630841116867000,1.5858671875,1.0266121614694594,4.345452924568951,-0.7373118199974298
1725630841126901200,1.5959013671875,1.0261004125550388,3.2618045784085985,0.3832107973128557
1725630841136935000,1.605934814453125,0.920087723249197,2.7932372185885903,0.8578180218189955
1725630841146970000,1.61597021484375,-0.5454384180545807,1.1909411384046078,0.30823709713220593
1725630841157004000,1.626004150390625,-1.840306817793101,-0.057204234734177586,-0.09760755679309367
1725630841167038000,1.636037841796875,-2.1732043089292943,-0.30956103921234607,0.2207546285122633
1725630841177072000,1.646072021484375,-1.9724045270785688,-0.07102993099093437,0.8113257352352142
1725630841187107000,1.656107177734375,-0.6444611023426056,-0.034255320823192596,1.3799690877884625
1725630841197141000,1.66614111328125,0.8698487974829971,0.05798223336935043,1.725236815676093
1725630841207175000,1.6761748046875,1.9885411306262015,0.22165946839749812,2.663288650161028
1725630841217209000,1.686208984375,2.1859914559185505,0.3582622340172529,3.919942323926091
1725630841227244000,1.696244140625,1.41498443319872,0.4918716630399227,4.820012510541081
1725630841237278000,1.70627783203125,0.5472476594336331,0.8715946182370186,4.553308616280556
1725630841247312100,1.71631201171875,-0.5435713090084493,0.4895131172150373,3.8958290424108504
1725630841257346000,1.726345947265625,-1.5796932032316922,-0.2478939798504114,3.2526252466529604
1725630841267381000,1.736381103515625,-2.3942507599949834,-0.45245442940890784,2.8304660022646186
1725630841277415000,1.746414794921875,-2.686479556134343,-0.4530559024333954,1.4788503177791834
1725630841287449000,1.756448974609375,-2.4200696763843297,-1.112740877392888,-0.2907628152400255
1725630841297483000,1.76648291015625,-2.026091985863447,-1.6470254487484692,-1.5333955624371767
1725630841307518000,1.77651806640625,-0.9279062880456447,-2.0149995139628647,-1.9890490801483391
1725630841317552000,1.78655224609375,0.6920248175501823,-1.6983505623161792,-1.5340385365158318
1725630841327586000,1.7965859375,1.451017723479867,-0.3336687677696347,-1.7477122668564318
1725630841337620000,1.806619873046875,3.5966736618787047,0.25974545342475175,-2.6881793457895515
1725630841347655200,1.8166552734375,4.727341241106391,-0.09104016110152005,-2.6349451837301254
1725630841357689000,1.826689208984375,5.115881709009408,-0.24261574718654155,-2.8275007227182387
1725630841367723000,1.836722900390625,4.5706262463063,-0.3780006614491343,-2.9841730474203825
1725630841377757200,1.846757080078125,3.9772751534759996,-0.8468708036080003,-3.7804333154708143
1725630841387792100,1.856792236328125,3.249321821193397,-1.813574439820647,-3.8384763391166925
1725630841397826000,1.866825927734375,0.3450251513034105,-2.302064643728733,-1.7106103244304656
1725630841407860000,1.87685986328125,1.007211295428872,-0.2786880543038249,-2.4362954195201394
1725630841417894100,1.88689404296875,2.6986574851840732,-1.1734344155475496,-2.314535418245196
1725630841427928800,1.8969287109375,1.3244986911095677,-3.7615705018296834,-1.1312515165954828
1725630841437963000,1.906962890625,-0.6173018772602081,-3.032148850560188,-1.784984305152297
1725630841447997200,1.9169970703125,-2.44501867807135,-0.9353764777958392,-1.4657599500596523
1725630841458030800,1.92703076171875,-2.3603911604911088,-0.23063714010119438,0.3874088335245848
1725630841468066000,1.937066162109375,0.31376477451249957,0.27004735946953295,2.0577742413282394
1725630841478100000,1.947099853515625,-0.2668149534195661,0.2905859973683953,3.8866707534432408
1725630841488134100,1.957134033203125,-0.6207359433621168,0.735220692937076,4.2655175103276965
1725630841498168800,1.9671689453125,0.6435151997946202,0.5899278403833508,3.3967589922994375
1725630841508203000,1.977203125,0.9761743521302938,0.14310849425196648,1.9612182394146918
1725630841518237200,1.9872373046875,2.290500316532701,-0.6621048955827951,0.6334048707991838
1725630841528270800,1.997270751953125,3.3902006566971536,-0.5251537549167871,-1.8009055123835802
1725630841538306000,2.00730615234375,3.0370813385263085,0.013614976115524768,-3.2232512681305407
1725630841548340000,2.017340087890625,2.5308313137829304,-2.66383488586694,-1.9502409183263778
1725630841558374000,2.027373779296875,2.15921465428248,-2.979358048354089,-1.6445254486262797
1725630841568408000,2.037407958984375,2.189655969775468,-1.1351906096100806,-1.9690344661235808
1725630841578443000,2.047443115234375,2.3764453464522957,-1.1120476344317196,-0.4230816199302673
1725630841588477200,2.057477294921875,2.8677871403992174,-1.4831842553302645,-0.3552607141137123
1725630841598511000,2.067510986328125,2.871616927820444,0.14206132328659296,-2.0819202560693024
1725630841608545000,2.077544921875,3.7263092188343405,1.1621978590011597,-1.1431284168720244
1725630841618580200,2.087580322265625,5.268948118174076,1.907822749313712,-0.6045651452839375
1725630841628614000,2.09761376953125,5.106838570854068,2.441258010363579,-2.0631746390670536
1725630841638648000,2.10764794921875,3.1574796960592266,3.2537612649455663,-4.375485367000103
1725630841648682200,2.11768212890625,1.857027212578058,3.0477593844071027,-5.7930099862009286
1725630841658717200,2.12771728515625,0.2995306435853243,2.49387637861222,-6.649019497293233
1725630841668751000,2.137751220703125,-3.350150970381498,4.145092264787852,-5.2928673384219405
1725630841678785000,2.147784912109375,-4.979412798902392,3.7560096528321503,-3.3851316828697917
1725630841688819000,2.15781884765625,-1.8210206641733646,1.30528969437927,-2.434893736028671
1725630841698854000,2.16785400390625,-1.2988006246209143,3.5903608254700896,0.3370920202165842
1725630841708888000,2.17788818359375,-1.8367489791810512,5.96697422196567,3.964900240549445
1725630841718922200,2.187922119140625,-3.91884400729537,5.464371321552991,6.7892971520334475
1725630841728956000,2.197955810546875,-9.411949840423464,3.9838384575143455,8.281002275210618
1725630841738991000,2.2079912109375,-13.388380359768867,2.1612898531213403,8.054276171073317
1725630841749025000,2.21802490234375,-12.298742710065842,1.8387889605760572,4.348924692332744
1725630841759059000,2.228058837890625,-10.136320345783233,3.2929283232077955,0.5058148481965065
1725630841769093000,2.238093017578125,-7.361182262986898,5.16201919080615,-0.4096072213292122
1725630841779128000,2.248128173828125,-4.477333045580983,6.148083068788051,-0.19062544770836828
1725630841789162000,2.258161865234375,-1.3432619898989795,5.8138686498343946,-0.061951721522212025
1725630841799196000,2.26819580078125,0.6962523721173405,5.372018032026291,0.35473055275976656
1725630841809230000,2.27822998046875,1.0839975979894398,5.194419239151477,0.8661953895419836
1725630841819265000,2.28826513671875,1.2036065587103366,5.56176552785635,-0.03998772699534893
1725630841829299000,2.298298828125,2.0510919870853423,3.8134593867599964,-1.320621995806694
1725630841839333000,2.3083330078125,2.733541167038679,2.3194643990799784,-3.2423125269532203
1725630841849367000,2.318366943359375,2.879905155955255,1.134123637965694,-5.2621267477214335
1725630841859402000,2.328402099609375,2.248943294394016,-0.4221805063720792,-5.602062466931343
1725630841869436000,2.338435791015625,1.5636954236328602,-2.183167484539002,-4.336873604533076
1725630841879470000,2.348469970703125,0.5265764811962843,-3.4664012683242555,-3.330128757572174
1725630841889504000,2.35850390625,-0.5520101976603269,-4.702499353055655,-2.193424236267805
1725630841899539000,2.3685390625,-1.1074489084646104,-5.948003564035892,-1.0766431435734034
1725630841909573000,2.378572998046875,-1.8042711894243955,-6.26222441175282,-0.19996786107122896
1725630841919607000,2.38860693359375,-1.862726885524392,-5.50592673625648,0.7507038010120392
1725630841929642000,2.39864208984375,-0.9508142854243516,-5.034878081014752,1.2571452566742896
1725630841939676200,2.40867626953125,-0.3410042252242565,-4.589106490370631,1.6454975085288286
1725630841949710000,2.4187099609375,0.6155716924667358,-3.965200100278854,1.86616212067008
1725630841959744000,2.428743896484375,1.428171100899577,-3.147763188686967,2.083624137377739
1725630841969779000,2.438779052734375,1.2639321403354407,-2.783068291273713,1.5444167226672172
1725630841979813000,2.448813232421875,0.8542471775949001,-2.924994882264733,1.3827420596331357
1725630841989847000,2.458846923828125,0.47559565102159973,-2.6261986904338,1.5860867036610842
1725630841999881000,2.468880859375,-0.44463820270001886,-1.9308336225450038,1.8339432741105555
1725630842009916200,2.478916259765625,-1.5209914234161377,-0.2142643531775102,2.5669360618650914
1725630842019950000,2.4889501953125,-0.838377992811799,0.734719538481906,2.206201300254464
1725630842029984000,2.49898388671875,-0.1774368803113699,0.35809571834392845,1.5394716674804687
1725630842040018200,2.50901806640625,0.29832477492690085,0.4495005115067586,0.5718991394788027
1725630842050053000,2.51905322265625,0.43836862091124057,0.9752763073120265,0.08003215261399746
1725630842060087000,2.529087158203125,0.5951408988565207,1.0972788121059536,-0.45715164731442925
1725630842070121000,2.539120849609375,0.6356652169466018,1.1615689865130931,-1.118261102119088
1725630842080155100,2.549155029296875,0.6341372767269611,1.0481783888503908,-1.544599678018689
1725630842090189800,2.55918994140625,0.9394371513634919,0.5462999302547424,-1.7371388503938912
1725630842100224000,2.56922412109375,2.1829355754792688,-0.2066804008545354,-2.423756255942583
1725630842110258700,2.5792587890625,2.9624188962519167,-0.3664016282659024,-3.130265525919199
1725630842120292400,2.589292236328125,2.9576714094638823,0.1281988021507859,-3.931844358643889
1725630842130327600,2.59932763671875,2.7314813118994232,0.4009927203821018,-3.988850440457463
1725630842140361500,2.609361572265625,2.7889199399113656,0.48568069944530723,-3.844941735738516
1725630842150395600,2.619395751953125,2.217373267132044,0.6870001943212002,-2.8831869541049002
1725630842160429600,2.6294296875,0.8804963020950556,0.593191591419652,-1.9119103108882902
1725630842170464500,2.639464599609375,-0.3466115437120199,0.22850966308582574,-0.9935130249440669
1725630842180498700,2.649498779296875,-1.6474696853846311,0.021669797353260217,0.06990297278761863
1725630842190532400,2.659532470703125,-2.5939234375119207,-0.05971994388215243,1.1847633265525102
1725630842200566500,2.66956640625,-2.662187995442748,-0.09726283500865102,2.1128975781351325
1725630842210601500,2.6796015625,-1.8756898274719713,-0.06918010187316685,2.7063234897673127
1725630842220635600,2.6896357421875,-0.8493465460717677,-0.06947192442659288,2.9245769491136073
1725630842230669600,2.699669677734375,0.05008884977102279,-0.01045165324639529,2.6330671148985623
1725630842240704500,2.70970458984375,0.36326164973974223,0.1661897110394202,1.0507535000354051
1725630842250738700,2.71973876953125,0.04233808951377868,0.039617541976086794,-0.5426303748965263
1725630842260772400,2.7297724609375,-0.2654045020997524,-0.1977821875952184,-1.1256886217713356
1725630842270806500,2.739806640625,-0.15397008000612258,-0.43717433309275655,-1.1424117930352686
1725630842280841500,2.749841552734375,-0.0705056148558855,-0.6528369356956333,-0.9494541029870509
1725630842290875400,2.75987548828125,-0.2257078670054674,-0.6723197809312492,-0.7897866881221532
1725630842300909600,2.76990966796875,-0.46782267893254753,-0.6415118971481919,-0.7720885343462228
1725630842310943500,2.779943603515625,-0.7901017454206943,-0.6812864197842776,-0.6909422830104828
1725630842320978700,2.789978759765625,-1.0245663348555565,-0.6181331404525786,-0.71623688326478
1725630842331012600,2.8000126953125,-1.112429327225685,-0.6060967022327706,-0.8560814072847366
1725630842341046500,2.810046630859375,-1.0600853920042514,-0.5755861208958551,-0.9535305586457252
1725630842351080400,2.82008056640625,-0.8392500994712114,-0.4692292577948421,-1.1348720451802015
1725630842361115400,2.830115478515625,-0.5446744479447603,-0.36326417049039156,-1.180382919511199
1725630842371149600,2.840149658203125,-0.44053544355630875,-0.2909768963821232,-0.9919996977716684
1725630842381183700,2.850183837890625,-0.35307460224628445,-0.36048619367703794,-0.8926490967035293
1725630842391217400,2.860217529296875,-0.33868834949731824,-0.4028707892136648,-0.6977320892810821
1725630842401252600,2.870252685546875,-0.3873556420326233,-0.3408928372716531,-0.49144203945100307
1725630842411286500,2.88028662109375,-0.4837029696315527,-0.2518384796924889,-0.36405426142215724
1725630842421320400,2.890320556640625,-0.5483806089863181,-0.09879537833817302,-0.24030630120038984
1725630842431354600,2.900354736328125,-0.6892287570908665,0.014528255035541952,0.042377252480387685
1725630842441389600,2.9103896484375,-0.884365252482891,0.08127415203172714,0.4042880721330642
1725630842451423700,2.920423828125,-0.820184748995304,0.06729739339910447,0.2737614115566015
1725630842461457400,2.93045751953125,-0.5993523790717125,0.08010631382875144,0.24390227986574173
1725630842471491600,2.94049169921875,-0.39506110184341664,0.11716354033015668,0.1323404320001602
1725630842481526500,2.950526611328125,-0.2842494878232479,-0.011390139672905206,-0.1845335605740547
1725630842491560400,2.960560546875,-0.264713304965198,-0.252984288726747,-0.5676064107209444
1725630842501594600,2.9705947265625,-0.2303451714172959,-0.5670105637196451,-1.1714368119895457
1725630842511628500,2.980628662109375,-0.22685177634358406,-0.720017643912509,-1.672140016260743
1725630842521663500,2.99066357421875,-0.26681480728909374,-0.8572523507602512,-1.8330425258785485
1725630842531697400,3.000697509765625,-0.18580767216309904,-1.1425985477790235,-2.0175217259168625
1725630842541731600,3.010731689453125,0.09237140970528125,-1.5278981340646742,-2.168990636757016
1725630842551766500,3.0207666015625,0.35718437565267086,-1.7757785237811505,-2.0018653071016073
1725630842561800400,3.030800537109375,0.5528764591008425,-2.6043004546195268,-1.5595073242932558
1725630842571834600,3.040834716796875,-0.21633854736937208,-2.955003359298408,-0.40640871754884716
1725630842581868500,3.05086865234375,-1.314482177877426,-3.3018285457611083,2.699690919885039
1725630842591903500,3.060903564453125,-2.5362580150067804,-3.1665970684945584,5.246646854516864
1725630842601937400,3.0709375,-1.5570774667978287,-0.8710401992246508,5.330998623895645
1725630842611971600,3.0809716796875,0.7409867821831255,1.337910399737954,4.319164344841242
1725630842622005500,3.091005615234375,1.797059942871332,2.2247762368649244,2.7367203815966845
1725630842632040400,3.10104052734375,2.0197861637175083,2.508959089192748,0.8391589140564203
1725630842642074600,3.11107470703125,1.9828058018445966,2.537580788043141,-0.6166074652552604
1725630842652108500,3.121108642578125,1.6738415594816207,2.2813467037402093,-1.6192893005609512
1725630842662142500,3.131142578125,1.0967197169184684,1.9477216289818287,-2.2439859642475843
1725630842672177700,3.141177734375,0.6367512586176395,1.1557355311192572,-2.2738696458578107
1725630842682211600,3.151211669921875,0.03404723103046417,0.1875349343471229,-1.8168781575411557
1725630842692245500,3.16124560546875,-0.4809177228271961,-0.4286699414566159,-1.5411498298257589
1725630842702279700,3.17127978515625,-0.7577554730892181,-0.5424954964704811,-1.535293505012989
1725630842712314600,3.181314697265625,-0.7811948739308864,-0.4006761652462184,-1.7274936546921729
1725630842722348500,3.1913486328125,-0.5532839439231902,-0.26199089426398275,-1.7074357860475777
1725630842732382500,3.201382568359375,-0.36154549347162246,-0.28430034122765063,-1.3732570229291916
1725630842742416600,3.211416748046875,-0.3550374998170882,-0.2520841250166297,-1.1062994461685418
1725630842752451300,3.221451416015625,-0.4347534260887652,-0.13165011164844034,-1.0613947210371493
1725630842762485500,3.231485595703125,-0.4212263474524021,0.13804931116625666,-1.1979460487306117
1725630842772519700,3.241519775390625,-0.3788894269824028,0.24767273831516504,-0.9290893603503704
1725630842782553300,3.25155322265625,-0.6633985155899077,0.07087123329788446,-0.15124094730317592
1725630842792588500,3.261588623046875,-1.1307412289857863,0.12718728702068327,0.6326052448540925
1725630842802622500,3.27162255859375,-1.3387024268984793,0.5329802107587457,1.4133680840432643
1725630842812656600,3.28165673828125,-0.8328091797035188,0.7320331489421427,2.058997645643353
1725630842822691300,3.29169140625,-0.5173064754825085,0.4402249163024127,2.392334697240591
1725630842832725500,3.3017255859375,-0.6816086374759673,0.28232392658814787,1.906480102533102
1725630842842759700,3.311759765625,-0.5435505584813655,0.2746611368753016,1.252384910404682
1725630842852793300,3.32179345703125,-0.05768536931462585,0.27531054069474337,0.9917144510895013
1725630842862828500,3.33182861328125,0.26069793184399603,0.3878095232799649,1.4171487716257571
1725630842872862500,3.341862548828125,0.27408114503026004,0.36284386271908875,2.0196178214132785
1725630842882896400,3.351896484375,0.144758015024662,0.19825550419539212,1.773048368164897
1725630842892930600,3.3619306640625,-0.03931486923508346,-0.10619403722211718,0.8161077088147402
1725630842902965500,3.371965576171875,-0.23975685062408447,-0.43352965644747016,0.234783738386631
1725630842912999700,3.381999755859375,-0.6128104110598563,-0.4482480637602508,0.6354968746423721
1725630842923033600,3.39203369140625,-0.8757400474786758,-0.18807547096461055,1.082259229889512
1725630842933067500,3.402067626953125,-0.6676946784138679,-0.09609949031770229,0.5081657952368259
1725630842943102700,3.412102783203125,-0.3743710727751255,-0.4970984577775001,-0.07907470575869083
1725630842953136400,3.422136474609375,-0.06300101137943566,-0.9751219204679131,-0.4783867430448532
1725630842963170600,3.432170654296875,0.3665045771837234,-1.339101216957718,-0.8279173890739678
1725630842973204700,3.442204833984375,0.6425939932964742,-1.4328586741939187,-1.136786354368925
1725630842983239700,3.45223974609375,0.7392366505801677,-1.3659087059929966,-1.429146667933464
1725630842993273600,3.462273681640625,0.588040492266789,-1.0826738020397721,-1.8565391368001698
1725630843003307500,3.4723076171875,-0.02155848246589303,-0.649657063550502,-1.939423171713948
1725630843013341400,3.482341552734375,-0.6039619186937809,-0.19157982582375407,-1.6041595359683036
1725630843023376400,3.49237646484375,-0.8039771260380745,0.26111864147409797,-1.2977414709568023
1725630843033410600,3.50241064453125,-0.9454805231809615,0.5211933268532156,-1.1973819851070642
1725630843043444700,3.51244482421875,-1.3773919307768343,0.6649872460860758,-0.9349047686308621
1725630843053479400,3.5224794921875,-1.6959259655177592,0.6246816853132099,-0.49976738472580906
1725630843063513600,3.532513671875,-1.7168156088113784,0.39849531407579775,-0.09371522552967071
1725630843073547500,3.542547607421875,-1.4838649310708045,0.14003463976457714,0.11600304518342018
1725630843083581400,3.55258154296875,-1.2126935360074043,-0.07947086546942592,0.3960585884481668
1725630843093616400,3.562616455078125,-1.046158573460579,-0.23585808961987495,0.9407581708341837
1725630843103650600,3.572650634765625,-0.5898351936638355,-0.3993859062399715,1.2152180860489605
1725630843113684700,3.582684814453125,-0.07537870078496635,-0.608854878367111,1.299963238659501
1725630843123718700,3.59271875,0.016481252266839146,-0.7631562361542135,1.8131880708515642
1725630843133753900,3.60275390625,-0.010472294175624846,-0.7404969528395682,2.195768169045448
1725630843143787800,3.612787841796875,0.2209456941049546,-0.5572530667498707,1.9334020117282866
1725630843153821700,3.62282177734375,0.49447979971170425,-0.43906325211189684,1.1863958961904049
1725630843163856000,3.63285595703125,0.44017179787568744,-0.1901084380969405,0.9452619119942187
1725630843173890800,3.642890869140625,0.22920739955902097,0.2290536703020334,0.9844435833036899
1725630843183924700,3.6529248046875,0.11495324386954307,0.5975719984609633,0.8506979606807231
1725630843193958700,3.662958740234375,0.08416647593975067,0.7243747431434691,0.5535954210251569
1725630843203992800,3.672992919921875,-0.08973236643858254,0.625407442304492,0.1567062269717455
1725630843214027500,3.683027587890625,-0.22243746703267095,0.44898288084082305,-0.14337269814610482
1725630843224061700,3.693061767578125,-0.092726214492321,0.12368651235811412,-0.37279870889186856
1725630843234095900,3.703095947265625,-0.09003047260232269,-0.18733612383939324,-0.42639527452290055
1725630843244129500,3.713129638671875,-0.17144721144251523,-0.4961695794295519,-0.4359223968029022
1725630843254164700,3.723164794921875,0.17430216248221694,-0.7643309790220111,-0.7070131278455257
1725630843264198700,3.73319873046875,0.43237559104152024,-0.9912482948824762,-1.1392384236961604
1725630843274232600,3.743232666015625,0.0691769966006279,-1.0077539509382099,-1.2755308081924914
1725630843284267800,3.753267822265625,-0.19461429814882575,-0.9728160546783358,-1.1442770023852586
1725630843294301700,3.7633017578125,-0.0538052399456501,-0.8547538850080222,-1.1559522426098585
1725630843304336000,3.7733359375,0.050824178308248515,-0.6878826031789184,-1.3560299937963485
1725630843314369800,3.783369873046875,0.07379113933257758,-0.5873332207802683,-1.5166139389842748
1725630843324404700,3.79340478515625,0.09782193019613623,-0.5050961054679006,-1.1953373275369406
1725630843334439000,3.80343896484375,-0.05171265158057212,-0.2960063419166952,-0.4944190094351768
1725630843344472600,3.81347265625,-0.29283034222908316,0.04631641856022179,0.2740437356293201
1725630843354506800,3.8235068359375,-0.39574703828096386,0.22932335408888757,0.6056482643455267
1725630843364541700,3.833541748046875,-0.2207446916401386,-0.13284173258580267,0.2445399932473898
1725630843374575900,3.843575927734375,-0.20185520918779074,-0.7385019065648317,-0.07569324662685394
1725630843384609800,3.85360986328125,-0.3108743868332356,-0.8212783163856715,0.14600713830292225
1725630843394643700,3.863643798828125,-0.11693937618546187,-0.6778884479090571,-0.2021142254501581
1725630843404679000,3.873678955078125,0.0438402742376551,-0.7404838010970503,-0.6097755734086037
1725630843414712600,3.883712646484375,-0.11647066269516944,-0.7317838503561913,-0.7304021867394447
1725630843424746800,3.893746826171875,-0.2394364595633,-0.5677876855719834,-0.6398229211479425
1725630843434781000,3.903781005859375,-0.27232644685003904,-0.2727495311003178,-0.6321627617835999
1725630843444814600,3.913814697265625,-0.1862812810242176,-0.041196591328456995,-0.7149012507468462
1725630843454849800,3.923849853515625,-0.19576456416249274,0.14832966296635566,-0.7241501406073569
1725630843464883700,3.9338837890625,-0.30901326913647353,0.37474545904546974,-0.6040811611592769
1725630843474917600,3.943917724609375,-0.35924952802155163,0.5330062219828366,-0.30052549984157084
1725630843484951800,3.953951904296875,-0.21940138727240263,0.5189904099814594,-0.1696796903133392
1725630843494986800,3.96398681640625,-0.10708207210302352,0.42529505819603797,-0.21666005267500876
1725630843505021000,3.97402099609375,-0.23685754898600278,0.2017319481343031,-0.17784487659037113
1725630843515054600,3.9840546875,-0.32451836984753607,0.10385529207624494,-0.15858663389086722
1725630843525089800,3.99408984375,-0.27955581358168274,-0.028823505032807586,-0.15586100831925867
1725630843535123700,4.004123779296875,-0.2912508910179138,-0.11988134792149066,-0.0685363606095314
1725630843545157600,4.01415771484375,-0.5072913504898547,-0.1891228611256927,0.2597808169990778
1725630843555191800,4.02419189453125,-0.6586544628679752,-0.1647554587189108,0.576850039884448
1725630843565226800,4.034226806640625,-0.4506044176280498,-0.11317907380387186,0.6810206084549426
1725630843575260700,4.0442607421875,-0.0872539205610752,-0.21463022734783588,0.6387824721843004
1725630843585294800,4.054294921875,-0.08069795957896858,-0.41771760867908597,0.5951508357286452
1725630843595328800,4.064328857421875,-0.2703811945337802,-0.5806685021940619,0.5221054732620716
1725630843605364000,4.074364013671875,-0.4205892185926437,-0.5526378280393779,0.33644436996281146
1725630843615397600,4.084397705078125,-0.24575755234360694,-0.4434152367763221,-0.10404022018909453
1725630843625431800,4.094431884765625,-0.06391513054966926,-0.2784415321968496,-0.5840595328718423
1725630843635466000,4.104466064453125,-0.19284071260504423,-0.08502477326951921,-0.8705927477180957
1725630843645500700,4.114500732421875,-0.6424608684360981,-0.008251987777650356,-0.6956687270104884
1725630843655534800,4.124534912109375,-0.8532675189077854,0.11257862369269132,-0.1807914514362812
1725630843665568800,4.13456884765625,-0.6753822372417897,0.33784802621565757,0.2978524812400341
1725630843675602700,4.144602783203125,-0.44172311897091565,0.5583492644887417,0.7244307111144065
1725630843685637600,4.1546376953125,-0.4114437891066074,0.7027817738860845,1.312747901430726
1725630843695671800,4.164671875,-0.5024526782870292,0.8373127016678452,2.1373533894777297
1725630843705705700,4.174705810546875,-0.4865876582223922,0.5281309440966695,2.0448679980039595
1725630843715739600,4.18473974609375,-0.15495090773701667,-0.04119564148038626,1.238716450536251
1725630843725774800,4.19477490234375,0.19369886380434034,-0.3082794749692082,0.6596440584272146
1725630843735808800,4.204808837890625,0.44348494101166724,-0.23539427150040865,0.2161655471563339
1725630843745842700,4.2148427734375,0.5502373427689076,0.045692952899634834,-0.3394412136912346
1725630843755877600,4.224877685546875,0.6595312457025051,0.5281437305130064,-1.016215855139494
1725630843765911800,4.234911865234375,0.41457098121643066,1.0410969061568378,-1.5630752459079027
1725630843775945700,4.24494580078125,-0.06965981168150902,1.0418822113156319,-1.76845461063385
1725630843785979600,4.254979736328125,-0.3061806029938161,0.5064306420072913,-1.8763310479849575
1725630843796014800,4.265014892578125,-0.30948081358298657,-0.14566753108501435,-1.5934727222591638
1725630843806048500,4.275048583984375,-0.36808863150477406,-0.9704596277453005,-1.0078273815006018
1725630843816083700,4.285083740234375,-0.4360357940495014,-0.9591798165790736,-0.8601993639975786
1725630843826117600,4.29511767578125,-0.5211785676755011,-0.3877570624403655,-1.0962661279320716
1725630843836151800,4.30515185546875,-0.5155494757473469,-0.03715747200548648,-1.1949737549215556
1725630843846185700,4.315185791015625,-0.4811049159623682,0.20683613940551876,-1.3622200806081295
1725630843856220700,4.325220703125,-0.2943943036101758,0.5018468213483691,-1.572617565757036
1725630843866254800,4.3352548828125,-0.18149638483524322,0.59590662253201,-1.3299918816983698
1725630843876288800,4.345288818359375,-0.28381445740684863,0.5212969333581626,-0.36980011159777637
1725630843886323700,4.35532373046875,-0.5056486978493631,0.7173882452569902,0.6896294468462467
1725630843896358000,4.36535791015625,-0.7141290973305702,1.4319770690537987,1.2124006905406712
1725630843906391800,4.375391845703125,-0.6559061870731413,2.2443812471754847,1.7830185580372808
1725630843916425700,4.38542578125,-0.05257423684597015,2.4209676481373608,2.4699720636725426
1725630843926460700,4.395460693359375,0.4251857526026666,2.1465607782840728,2.441723289787769
1725630843936494800,4.405494873046875,0.25764672757983204,1.8419614531323312,1.3513976578205824
1725630843946528800,4.41552880859375,0.45337724334225055,1.5632828973092139,0.4243032706797123
1725630843956562700,4.425562744140625,0.7710239738546312,1.038835244835168,0.7163175472855567
1725630843966598000,4.435597900390625,0.3208171772420406,0.5973984685249626,1.0025684380590916
1725630843976631600,4.445631591796875,-0.18283727805018424,0.5647755712091922,-0.15179156692326068
1725630843986665700,4.455665771484375,-0.06224105985760688,0.5841058562316,-1.4035738352596758
1725630843996700700,4.46570068359375,-0.13100085395947098,0.6518241784565151,-1.3189590310305357
1725630844006734800,4.47573486328125,-0.4525355318211019,0.742732237610966,-0.7616822911441326
1725630844016768800,4.485768798828125,-0.6770094731174409,0.839839151405543,-0.8346072421014309
1725630844026802700,4.495802734375,-0.7273371000804006,0.7581586470626294,-0.9099380851566791
1725630844036838000,4.505837890625,-0.7582970326200127,0.682227500026673,-0.6136246500521898
1725630844046871600,4.51587158203125,-0.7682591853164136,0.44196869122982024,-0.6658797379463911
1725630844056905700,4.52590576171875,-0.7808874884821474,0.18006474459692834,-1.0972177295684813
1725630844066940000,4.53593994140625,-0.7312345459103584,0.0879701790716499,-0.8042892607271671
1725630844076974600,4.545974609375,-0.6930898164331912,0.19504070686735211,-0.22622516887784003
1725630844087008800,4.5560087890625,-0.6418588108897209,0.30045046184398233,-0.3704775724679231
1725630844097042700,4.566042724609375,-0.6554619504369795,0.3844475725661963,-0.6223065536797047
1725630844107076600,4.57607666015625,-0.5467126757740974,0.5853134053904563,-0.28760990416705606
1725630844117111300,4.586111328125,-0.20140037809237837,0.8018911866094917,-0.12981705100238322
1725630844127145000,4.59614501953125,0.13369886087179184,0.8836449753843247,0.07832534869611263
1725630844137179100,4.60617919921875,0.2377541324995458,0.8689171426560729,0.5490051706254482
1725630844147213300,4.61621337890625,0.06920724560841918,0.8759070746086537,1.4525123459517955
1725630844157248000,4.626248046875,-0.09211728881374001,0.904263985043019,2.041830822265148
1725630844167282200,4.6362822265625,-0.04557634078264236,0.8687942469287663,1.552298415827751
1725630844177316000,4.646316162109375,-0.09079042412415146,0.5859070604346692,0.7284627431094646
1725630844187351300,4.656351318359375,-0.4338301006987691,0.4181074847795069,0.7328975106865168
1725630844197385000,4.666385009765625,-0.6055789985015988,0.45195159445330496,0.9427192417740822
1725630844207419100,4.676419189453125,-0.4226737697817385,0.6973911668889224,0.4807546412199735
1725630844217453000,4.686453125,0.10978826232179999,0.8800746426168828,-0.2150771673977375
1725630844227488000,4.696488037109375,0.52993675140962,0.8997964111749083,-0.7889268564224242
1725630844237522200,4.706522216796875,0.4456524943090975,0.8758348861552775,-0.8101280498832464
1725630844247556000,4.71655615234375,0.07081015076041221,0.8494176385466009,-0.39534313365519047
1725630844257590000,4.726590087890625,-0.4208056378223002,0.7856445468161255,-0.22309154702723025
1725630844267625200,4.736625244140625,-0.7902575205042958,0.6419008964657783,-0.39952947942912576
1725630844277659100,4.7466591796875,-0.9652397011399269,0.4958565679576248,-0.7240396659702062
1725630844287693000,4.756693115234375,-0.9052676091276108,0.39419016422778363,-0.9836907191097736
1725630844297727200,4.766727294921875,-0.7591967579387128,0.3826706990867853,-1.1401456016689537
1725630844307762200,4.77676220703125,-0.5751077262617648,0.5007894943151623,-0.9941922393798828
1725630844317796400,4.78679638671875,-0.3732863462783396,0.6722956694032997,-0.5210112482845783
1725630844327830000,4.796830078125,-0.19135040098205208,0.9369758758164942,0.09322831879556179
1725630844337865200,4.806865234375,0.059754649869352576,1.3599579808950424,0.5345990441322326
1725630844347899100,4.816899169921875,0.24145079506039618,1.5882681393533944,1.1563251675754784
1725630844357933000,4.82693310546875,0.2673547593846917,1.6810811553463338,2.2561954574793575
1725630844367967200,4.83696728515625,-0.07990034292787312,1.8610982614092528,3.6621488813519476
1725630844378002200,4.847002197265625,0.004522884251922369,2.1395579137846825,3.611974106863141
1725630844388036000,4.8570361328125,0.5024735749445856,1.7075737332135439,1.4075047449678182
1725630844398070000,4.867070068359375,0.7573951153442263,0.23814598136134443,-0.6082873806774616
1725630844408104200,4.877104248046875,0.8380579670771956,-1.1852604624196887,-1.215295827460289
1725630844418139100,4.88713916015625,0.8306409688189625,-1.8127875272266565,-1.186507539871335
1725630844428173000,4.897173095703125,1.1249302046194671,-1.796459346629679,-1.3625316307753323
1725630844438207200,4.907207275390625,1.2243141234353183,-1.3606484473772347,-1.5924673446089028
1725630844448241200,4.9172412109375,0.8731099912360311,-0.8309938739098608,-1.1629472160637377
1725630844458276000,4.927276123046875,0.3341086204916239,-0.37872707602754235,-0.8991881430834531
1725630844468310000,4.93731005859375,-0.13291530927866696,-0.10648012415450066,-1.0813982291460036
1725630844478344200,4.94734423828125,-0.4631643317326903,0.0283003944741562,-1.0808043549060822
1725630844488379000,4.95737890625,-0.8086004019245505,0.33078875535391267,-0.48792497124075884
1725630844498413000,4.9674130859375,-0.8618976923480629,0.4730097261816263,-0.957151087230444
1725630844508447200,4.977447265625,-0.6544216476038098,-0.1330593208592385,-2.464413260501623
1725630844518481000,4.98748095703125,-0.8375725216478109,-0.5885896871147677,-1.9923451990842818
1725630844528516000,4.99751611328125,-1.1888716386541724,0.13577336559090764,-0.34851825411617754
1725630844538550000,5.007550048828125,-0.9745362295344472,0.4169983179612085,-0.7376637021750211
1725630844548584200,5.017584228515625,-0.8089633900180458,-0.2652077374186367,-1.3908698365092276
1725630844558618000,5.0276181640625,-0.74345660636276,-0.46721426471062,-0.8570739254534244
1725630844568653000,5.037653076171875,-0.6723188310831785,0.05562200704403221,-0.10569441713690757
1725630844578687200,5.047687255859375,-0.5307105122610927,0.47808067277036603,0.4377864371091127
1725630844588721200,5.05772119140625,-0.30657617818266153,0.7961196905359625,1.0505664530307053
1725630844598755000,5.067755126953125,0.24694033238738775,0.9722983144145458,0.4903425537765026
1725630844608790300,5.077790283203125,0.8802768141254782,0.5843916143704205,-0.6228951672226191
1725630844618824000,5.087823974609375,0.7188377134129404,0.409662970104441,0.5467775577038526
1725630844628858000,5.097858154296875,0.5172869670644402,0.870235531778261,2.1234370923280714
1725630844638893000,5.10789306640625,0.6020078620165586,1.0113640311941503,1.6151035393089055
1725630844648927200,5.11792724609375,0.898406929577887,0.3394894367471337,0.10338672471642493
1725630844658961200,5.127961181640625,0.6626540538981557,-0.1682167050886899,-0.14856909774541854
1725630844668995000,5.1379951171875,0.30826486192196606,-0.11952906388510018,0.2876835539251566
1725630844679030300,5.1480302734375,0.1713192742139101,-0.06183741096016019,0.0846352624952793
1725630844689064000,5.15806396484375,-0.023499241270124913,-0.2755051499513909,-0.3417266942799091
1725630844699098000,5.16809814453125,-0.3868070682391524,-0.46496491488125175,-0.1551975759744644
1725630844709132300,5.17813232421875,-0.584429535228014,-0.4770396758174523,-0.13414192846417428
1725630844719167200,5.188167236328125,-0.5507818249091506,-0.6325039033714681,-0.9511696747332811
1725630844729201200,5.198201171875,-0.7419076233550905,-0.8329502686746418,-0.9203051653921603
1725630844739235000,5.208235107421875,-0.9629907531693577,-0.8450883771706372,-0.13895312813818453
1725630844749269000,5.21826904296875,-1.0220105128929018,-0.7914164082158357,0.3594347849279642
1725630844759304000,5.228303955078125,-0.8646633576691151,-0.8969261164356023,0.23023791165053842
1725630844769338000,5.238338134765625,-0.5801663248255848,-1.0909149761624635,0.19688918427824972
1725630844779372300,5.248372314453125,-0.4679097726941108,-1.1726671575020997,0.5899222874253988
1725630844789407000,5.258406982421875,-0.3588172375515103,-1.1358476852793247,1.1006097100943326
1725630844799441200,5.268441162109375,-0.08256152496114373,-0.966227835394442,1.3480436712175607
1725630844809475000,5.27847509765625,0.469863098718971,-0.849187190791592,1.1232716237574816
1725630844819509000,5.288509033203125,0.9612098611019552,-0.7953493637505918,0.6097405020952225
1725630844829544200,5.298544189453125,0.9032097998149693,-0.596089943209663,0.012573065847158432
1725630844839578000,5.308578125,0.22663930263668297,-0.4552583809137344,0.13258593119382858
1725630844849612300,5.3186123046875,-0.3805051916159689,-0.17226181576102972,0.9164175103038549
1725630844859646200,5.328646240234375,0.08051525995582341,-0.00840937029644847,1.2385352487504482
1725630844869681200,5.33868115234375,1.1241511830709874,-0.28752617140635844,0.7988514535874128
1725630844879715300,5.34871533203125,1.5309550374172627,-0.5281912229165434,0.13026187216043472
1725630844889749000,5.3587490234375,1.2221367793962359,-0.6804784644022583,-0.6033826575011014
1725630844899784200,5.3687841796875,0.7556339508906006,-1.0066969161659478,-1.1650450651258228
1725630844909818000,5.378818115234375,0.4648971468746662,-1.4022582226164637,-1.6962532977759837
1725630844919852000,5.38885205078125,0.1276201254799962,-1.4887629322454332,-2.2880308576792476
1725630844929886200,5.39888623046875,-0.06336801806092261,-1.3594878791652618,-2.7604537238836286
1725630844939921200,5.408921142578125,0.011818886478990315,-0.9991193205185234,-3.0236680224627253
1725630844949955300,5.418955322265625,-0.09855404386296868,-0.5158873293995857,-2.990792757821083
1725630844959989000,5.428989013671875,-0.15894202319979667,-0.06574161532446741,-2.737936771649122
1725630844970023200,5.439023193359375,-0.37039398583769795,0.44942251436710356,-2.454693245998025
1725630844980058000,5.44905810546875,-0.559574495434761,0.5822948612868786,-1.5090157389402388
1725630844990092000,5.459092041015625,-0.9395604854822158,0.37149493281692264,0.29564532658457754
1725630845000126200,5.469126220703125,-0.5646436153925954,0.2844286437824368,2.900651299124956
1725630845010160000,5.47916015625,-0.29966420683711764,0.28933453600257636,3.9693899531841277
1725630845020195000,5.489195068359375,-0.41626229530423875,-0.27488778523802754,3.015569471681118
1725630845030229000,5.49922900390625,-0.2618732592336833,-0.7515259310498833,1.1796160267919302
1725630845040263200,5.50926318359375,0.15180501092672347,-0.7525804085388779,-0.13773323095440865
1725630845050298000,5.519298095703125,0.8868097230255604,-0.3073673285603523,-0.13614566950201987
1725630845060332000,5.52933203125,1.5440063883006572,0.08372574643492699,0.7619862425267696
1725630845070366200,5.5393662109375,1.9159701076731084,0.30524434505701065,1.5121873547136784
1725630845080400100,5.549400146484375,2.2154285628050565,0.21286942822039126,1.7818085977256297
1725630845090435000,5.55943505859375,2.571984285165369,-0.04403203395009041,1.410179517135024
1725630845100469000,5.569468994140625,2.438676761698723,-0.20034896934330462,0.52671501288414
1725630845110502700,5.579502685546875,1.881582100380957,-0.5647749866873025,-0.0058253451526165
1725630845120536800,5.589536865234375,1.2706558956325054,-0.9569228314325213,0.1030313354074955
1725630845130571800,5.59957177734375,0.47768765486478804,-1.1927408813029527,-0.11436521484851836
1725630845140605700,5.609605712890625,-0.3133997405923903,-1.3573545203983783,-1.0076040941387414
1725630845150639900,5.619639892578125,-0.8981725363001227,-1.4790642527908087,-1.5939456004679202
1725630845160674800,5.6296748046875,-1.2569891893297434,-1.5269079539835453,-1.7320172695964573
1725630845170708700,5.639708740234375,-1.4615277193173766,-1.6142954377964138,-1.7090058118432758
1725630845180742700,5.64974267578125,-1.4451476624026893,-1.6806562079325318,-1.8838585208803413
1725630845190776800,5.65977685546875,-1.192305704756081,-1.6367708889767527,-2.174363561967015
1725630845200811800,5.669811767578125,-0.8572507433250546,-1.3832418258488177,-2.210488768315315
1725630845210845700,5.679845703125,-0.6169492644302547,-0.9752364867582917,-1.6430594677269459
1725630845220880000,5.6898798828125,-0.3576031855866313,-0.7517287601456045,-0.66858607429564
1725630845230913500,5.69991357421875,-0.30171500188708306,-0.7769955956101418,0.002159223860502243
1725630845240948700,5.70994873046875,-0.3721148182809353,-0.879449131129682,-0.21798574832081793
1725630845250982700,5.719982666015625,-0.1325146195232868,-0.9900286899596452,-0.46688861295282835
1725630845261016800,5.730016845703125,0.014024141438305377,-0.7566944197289646,0.5302665678858757
1725630845271051500,5.740051513671875,-0.3156356829509139,-0.2951787319861352,2.1547598668307066
1725630845281085700,5.750085693359375,-0.7603136331394315,0.2103523308329284,3.3050960231244564
1725630845291119900,5.760119873046875,-0.9047940002664923,0.7202890812650322,3.2861937542557715
1725630845301153500,5.770153564453125,-0.7241580316528677,1.041679528350383,2.7921336412608624
1725630845311188700,5.780188720703125,-0.3797875448659062,1.085942594577372,2.7573393912553787
1725630845321222700,5.79022265625,-0.19360183317065238,1.0862024145573377,2.705310513332486
1725630845331256600,5.800256591796875,-0.1664081212967634,0.9823764216408133,1.7722803064018486
1725630845341290800,5.810290771484375,-0.1831213556885719,0.3741387253239751,0.5952525425374507
1725630845351325700,5.82032568359375,0.03463964396566152,-0.5865519342094659,-0.16159516805708407
1725630845361360000,5.83035986328125,0.37157881170809265,-1.0403417038753628,-0.24136545486450195
1725630845371393800,5.840393798828125,0.6670131258904933,-1.0598157812826334,0.365651175224781
1725630845381427700,5.850427734375,1.0063637386888264,-0.9509487254589796,0.7377665780276059
1725630845391463000,5.860462890625,1.168069965904951,-1.1192735670972616,0.16122048952579499
1725630845401496600,5.87049658203125,0.8908329871922731,-1.5241846664994954,-0.7614455597788095
1725630845411530800,5.88053076171875,0.5435492433071136,-1.9517916548997163,-1.1597796919435261
1725630845421565700,5.890565673828125,0.1800853489935398,-2.138616687411815,-1.073603629747033
1725630845431599900,5.900599853515625,-0.21157646580040454,-2.044371592789143,-0.4015577703863382
1725630845441633800,5.9106337890625,-0.5978828910410404,-1.7854219659171997,0.179523623457551
1725630845451667700,5.920667724609375,-0.8374506488338113,-1.5272779563397167,0.3186795806914568
1725630845461703000,5.930702880859375,-1.029893375097215,-1.450239432583749,0.1571761825710535
1725630845471736600,5.940736572265625,-1.3045236784428358,-1.445836521449685,-0.18321604823470114
1725630845481770800,5.950770751953125,-1.3031158574715256,-1.3090686283960937,-0.5470090283721685
1725630845491805000,5.960804931640625,-1.0865373456001282,-0.9287514336328953,-0.4624918392986059
1725630845501839600,5.970839599609375,-0.690039196690917,-0.47551447554416953,-0.5520774176776408
1725630845511873800,5.980873779296875,-0.20260171670615673,-0.28267226510178295,-0.6456330687314271
1725630845521907700,5.99090771484375,0.06957739409506321,-0.23597086581196636,-0.2843511946320534
1725630845531943000,6.00094287109375,0.2961170357495546,0.009916103331279008,0.5108943434178829
1725630845541976600,6.0109765625,0.598398439347744,0.33767719969339666,1.4335960485577584
1725630845552010800,6.0210107421875,0.9743825002774595,0.24300200655777007,1.4491700497865676
1725630845562045000,6.031044921875,1.1763216614216565,-0.31546924034282564,0.4028589161127806
1725630845572079600,6.04107958984375,1.1288000317901372,-1.1263607488792389,-0.7933575323462486
1725630845582113800,6.05111376953125,0.9494342292428016,-1.808635083722323,-0.7280395492613315
1725630845592147700,6.061147705078125,0.4464285932481289,-2.297876982780546,-0.7780962503284216
1725630845602181600,6.071181640625,0.07123655947893857,-2.3583636001862582,-1.4163263493269682
1725630845612216800,6.081216796875,-0.20337913081943987,-1.797591565530002,-1.340120477002859
1725630845622250800,6.091250732421875,-0.5990104337662459,-1.0382052763685583,-0.5359229862123728
1725630845632284700,6.10128466796875,-0.9468427514448762,-0.4503556670313701,-0.15649112291634082
1725630845642319600,6.111319580078125,-1.1415274114161729,0.06178958976306021,0.2953735239058733
1725630845652353800,6.121353759765625,-1.2761533240050076,0.3723384709689766,0.8914660243988036
1725630845662388000,6.131387939453125,-1.2413362776458263,0.1153142774679698,-0.3037169893592596
1725630845672421600,6.141421630859375,-1.1426450172692537,-0.26134242202630265,-1.2293477336883545
1725630845682456800,6.151456787109375,-0.9855652808099985,-0.012370273284055293,0.20846154865026473
1725630845692490800,6.16149072265625,-0.746776398435235,0.2898048751943745,0.9719979432284831
1725630845702524700,6.171524658203125,-0.35495851629674435,-0.25903306737169624,-0.9581827683657407
1725630845712558800,6.181558837890625,-0.04106207822859287,-0.8978557254359125,-1.8124679398834704
1725630845722593800,6.19159375,0.3076221801042557,-0.7188957272104919,-0.23651626126766204
1725630845732627700,6.201627685546875,0.6613467706918716,-0.23918148015523327,1.0455869110524654
1725630845742661600,6.21166162109375,0.8853419885605573,-0.14418494611075147,1.07782446231246
1725630845752695800,6.22169580078125,0.842587134939432,-0.40693858664184807,0.8477882107138633
1725630845762730800,6.231730712890625,0.5817836968943476,-0.6830916425753385,0.695363606584072
1725630845772764700,6.2417646484375,0.2765419821858406,-0.8830634491693228,-0.1816846008837223
1725630845782798800,6.251798828125,-0.007856266458332537,-1.0745609304718673,-0.8525251761078834
1725630845792833800,6.261833740234375,-0.2680979789674282,-0.9715884856447576,-0.4433247820138931
1725630845802867700,6.27186767578125,-0.4245972851902246,-0.6542728867828845,-0.07103636073172093
1725630845812901600,6.281901611328125,-0.5817433648839593,-0.5049164015194401,-0.5003127436488867
1725630845822935800,6.291935791015625,-0.794464616805315,-0.540067392540723,-1.0278203682154416
1725630845832970800,6.301970703125,-1.0198232319816947,-0.4782290317324921,-1.2068272743225097
1725630845843004700,6.312004638671875,-1.0977192493498324,-0.39480862491969015,-1.5161498286038637
1725630845853038800,6.322038818359375,-1.0221493368417025,-0.33460674273949115,-1.5169576378554104
1725630845863072500,6.332072509765625,-0.9180682001203299,-0.14832424700572155,-0.9115133716493844
1725630845873107700,6.342107666015625,-0.6848483500495552,0.1548127779079601,0.35282208878993987
1725630845883141600,6.3521416015625,-0.3886100260078907,0.313538272280246,1.144400921025872
1725630845893175800,6.36217578125,-0.11422814446538686,0.159710833881516,0.8359341067910194
1725630845903210800,6.372210693359375,0.009123802176117897,-0.26900508387498556,0.3488730589032173
1725630845913244700,6.38224462890625,0.13248773151636123,-0.5956592967074364,0.8695265797913074
1725630845923278800,6.39227880859375,0.4187839227363467,-0.6216670867323875,1.5422008001834153
1725630845933312800,6.402312744140625,0.5461597180664539,-0.6551979657385498,1.7981652737647293
1725630845943347700,6.41234765625,0.4941442841470241,-0.7562249025210738,1.8159926068782806
1725630845953382000,6.4223818359375,0.29983021105378865,-0.795832544157654,1.458691911369562
1725630845963415800,6.432415771484375,0.12793372147381304,-0.9331658160090446,1.1335428424030543
1725630845973449700,6.44244970703125,-0.02212766065597534,-0.8125298503279685,0.7779694090783595
1725630845983484700,6.452484619140625,-0.26118746892660855,-0.5860014607198536,0.5997749883979558
1725630845993518800,6.462518798828125,-0.3668576284050941,-0.4895247345875948,0.051122284471988674
1725630846003552800,6.472552734375,-0.43496085829436776,-0.42964843109995127,-0.9740332484483718
1725630846013587700,6.482587646484375,-0.7406868493884802,-0.19657588054537772,-1.582319460082054
1725630846023622000,6.492621826171875,-1.132968841907382,0.2364463378366083,-1.400798525327444
1725630846033655600,6.502655517578125,-1.2334867331892252,0.5711030206650495,-0.7711030304402112
1725630846043689700,6.512689697265625,-0.8182172483146191,0.7353095402643084,-0.5096083952605724
1725630846053724700,6.522724609375,-0.4086024282008409,0.7430131003789603,-0.3095470106869936
1725630846063758800,6.5327587890625,-0.3563181142121553,0.6039288201417774,-0.26084990753531456
1725630846073792800,6.542792724609375,-0.2873521300137043,0.2761401964519173,-0.18882044411301613
1725630846083826700,6.55282666015625,-0.13538812913298606,0.04199804390445351,-0.3905483005940914
1725630846093862000,6.56286181640625,-0.40311259861290455,-0.3493661031171679,-0.6132026252478361
1725630846103895600,6.5728955078125,-0.5866811135470866,-0.6444998269177973,-0.14628653976619244
1725630846113930500,6.582930419921875,-0.017581249397993087,-0.36349385106042026,0.46706104691028594
1725630846123965200,6.592965087890625,0.4041559701859951,-0.13210253159105778,0.6313426775723695
1725630846133999400,6.602999267578125,0.35528877116441726,0.08737930050641297,0.17467442986071108
1725630846144033500,6.613033447265625,0.39007133073210715,0.5051962779067456,-0.34512802715599533
1725630846154067200,6.623067138671875,0.7277040336966514,0.6766371326737105,-0.5379775806546211
1725630846164102400,6.633102294921875,1.1414017392098903,0.5580696438297629,0.050989598003029823
1725630846174136300,6.64313623046875,1.2396288892060519,0.3400494087174535,0.6874158624500036
1725630846184170500,6.65317041015625,0.775918906289339,0.24233283859193325,0.5566887108653783
1725630846194204400,6.663204345703125,0.2765583487987518,0.1760739213950932,0.15118191059231756
1725630846204239400,6.6732392578125,0.005492167675495148,0.05676438201218843,-0.3029600335121155
1725630846214273500,6.6832734375,-0.08783844245076179,0.09701017542183399,-0.6515116053760052
1725630846224307200,6.69330712890625,-0.22890286365449428,0.30193858150988817,-0.33254034826159473
1725630846234342400,6.70334228515625,-0.6149532683074473,0.5127086993634701,0.3257797680854797
1725630846244376300,6.713376220703125,-1.0605360583811998,0.48567748457491394,0.8134516413480043
1725630846254410200,6.72341015625,-1.3431769419640303,0.5700299846060574,0.683368048363924
1725630846264444400,6.7334443359375,-1.354177059406042,0.5481586367987096,0.3615262042492628
1725630846274479400,6.743479248046875,-1.2822387813985348,0.4558928794249892,-0.24532734423279762
1725630846284513500,6.753513427734375,-1.1613216606885195,0.47486076087579127,-0.8109323520034551
1725630846294547200,6.763547119140625,-0.8769143519550562,0.47264162352159617,-0.9326736485779284
1725630846304581400,6.773581298828125,-0.41694940078556536,0.5703855200454593,-0.7528203547745943
1725630846314616300,6.7836162109375,0.14439853406250475,0.6781216721430421,0.021888591203093527
1725630846324650200,6.793650146484375,0.39036242263317106,0.47087417545765636,1.0091998388975858
1725630846334684400,6.803684326171875,0.41819852406382557,0.5099310513436794,1.0728349834620952
1725630846344719400,6.81371923828125,0.3702537005841732,0.700567020446062,0.5402478636741638
1725630846354753300,6.823753173828125,0.3168874365776777,0.9427402845621109,0.2888537667483091
1725630846364787500,6.833787353515625,0.3759387604832649,1.1457662910949438,0.46576048570573325
1725630846374821400,6.8438212890625,0.2887970681250095,1.2061580698240548,0.2080307560175657
1725630846384856600,6.853856689453125,0.2976210105717182,0.7993915518134832,-0.15903262409269808
1725630846394890200,6.86389013671875,0.5339928949326277,0.16683705076593905,-0.20020751504600046
1725630846404924400,6.87392431640625,0.8311158928543328,-0.427817416280508,0.13268062373995781
1725630846414958600,6.88395849609375,0.8445984747618436,-0.7904885527811945,0.09086100514233111
1725630846424993300,6.8939931640625,0.8033020032554864,-0.8499962421521544,-0.3061263885885477
1725630846435027500,6.90402734375,0.5912175879329442,-0.7298688105151057,-0.3199421479731798
1725630846445061400,6.914061279296875,0.07027882036268711,-0.4958832367688417,-0.22857260878682134
1725630846455096600,6.9240966796875,-0.42580783002376554,-0.186108481740579,-0.19746435381770133
1725630846465130200,6.934130126953125,-0.7300485509961843,0.16409838304966687,0.03425824343264103
1725630846475164400,6.944164306640625,-1.1190513757139444,0.41645716028921304,0.25894962687194345
1725630846485198300,6.9541982421875,-1.3855886812359093,0.5686679024726152,0.14465104751884936
1725630846495233300,6.9642333984375,-1.610360144174099,0.5278701012033968,-0.2050035171508789
1725630846505267500,6.974267333984375,-1.91351482347548,0.36165735634826124,-0.8090250570774078
1725630846515301400,6.98430126953125,-2.0328496434301138,0.11341129339085891,-1.2615864539921282
1725630846525335300,6.994335205078125,-1.713048949754238,0.022422369286231696,-0.9410878411799669
1725630846535370200,7.004370361328125,-1.2231804432302713,0.3100529143825173,0.25889409729242324
1725630846545404400,7.014404296875,-0.8328875787019729,0.7107311254553497,1.111136949327588
1725630846555438300,7.024438232421875,-0.4456155232995748,0.8487759065769612,1.0160726472765207
1725630846565473300,7.034473388671875,-0.18078151456415653,0.7575275095522404,0.7072399223387241
1725630846575507500,7.044507568359375,0.45738837867975235,0.7007749641083181,1.2637398326337337
1725630846585541400,7.054541259765625,1.2165151401221752,0.7549684727191924,1.3927625183880328
1725630846595575300,7.0645751953125,1.7683324455589056,0.7543303209461272,0.8605711199194193
1725630846605610500,7.074610595703125,1.905004769283533,0.5816788482803851,0.35873628126978874
1725630846615644400,7.08464453125,1.939031542047858,0.3225548512222245,0.5344821397542954
1725630846625678300,7.09467822265625,1.7993828328609465,0.21561500060148536,0.43258243872523305
1725630846635712500,7.10471240234375,1.604339568710327,0.09100015788469464,0.19107962121665475
1725630846645747500,7.11474755859375,1.3316039930701256,-0.03636555444281548,0.9626789107412099
1725630846655781400,7.124781494140625,0.8212614383161068,0.001660334427654743,1.402657889458537
1725630846665815300,7.134815185546875,0.42373453088104723,-0.07666965391095727,0.9464818091779946
1725630846675850500,7.1448505859375,0.10186404519379139,0.0032486265324056145,0.9739555070370435
1725630846685884400,7.154884521484375,-0.1440308697938919,0.2751242243424058,0.9616291094273328
1725630846695918300,7.16491845703125,-0.266800340372324,-0.11934029984734952,-0.06102583884894847
1725630846705952500,7.174952392578125,-0.5176052392333745,-0.7686465771988034,-1.1120073024213313
1725630846715987500,7.184987548828125,-0.7607458870768546,-0.8052527719970792,-1.3662684792160986
1725630846726021400,7.195021484375,-0.8272223925471305,-0.6639495005361735,-1.41611767501235
1725630846736055300,7.20505517578125,-0.8335673776596784,-0.4366126440893858,-1.471506384757161
1725630846746089500,7.21508935546875,-0.7984674227058887,-0.15029336425475776,-1.2195073076754808
1725630846756124200,7.225124267578125,-0.6995195572197437,0.21962949693985281,-0.6937240226835012
1725630846766158300,7.235158447265625,-0.6141285079210996,0.37580563562288877,-1.00514501054883
1725630846776192500,7.245192626953125,-0.5106470906585454,0.3392870460428297,-1.0382885707378386
1725630846786227500,7.2552275390625,-0.32047523193657396,0.5854971644595265,0.0012198971837759018
1725630846796261400,7.265261474609375,-0.375500369066,0.8012031312800943,0.12287059286534785
1725630846806295300,7.27529541015625,-0.4567746306955814,0.24111060332059858,-1.315293494260311
1725630846816329500,7.28532958984375,-0.5839934818983078,-0.048023222478106614,-1.4470651864618063
1725630846826364200,7.2953642578125,-0.7152151390016078,0.23399229574799535,-0.7121306169897318
1725630846836398300,7.3053984375,-0.656446723690629,0.6300701003532856,-0.008923311167955398
1725630846846432500,7.3154326171875,-0.5247738156884908,0.6286065306067466,-0.04587620051205158
1725630846856466200,7.325466064453125,-0.42193712607026096,0.11864870085399597,-1.4277467380076645
1725630846866501400,7.33550146484375,-0.31343992647230623,-0.33655502726305275,-2.262522906935215
1725630846876535300,7.345535400390625,-0.3778086460083723,0.08134202963616699,-0.33541970309019087
1725630846886569200,7.3555693359375,-0.22789339435100553,0.8851034305643289,1.5587082828700543
1725630846896604400,7.3656044921875,-0.0030611411362886426,0.9698167997971177,0.8822305785417556
1725630846906638300,7.375638427734375,0.09118015409409999,0.4200409370601177,0.5838146182000636
1725630846916672500,7.385672607421875,-0.01848082858622074,0.45852549295090134,1.196108896431327
1725630846926706400,7.39570654296875,-0.10351356596648692,0.42577739835288375,0.858361627176404
1725630846936741400,7.405741455078125,-0.246992062574625,-0.12292480727061629,-0.0164478614538908
1725630846946775600,7.415775634765625,-0.37599136745333667,-0.6404362307406961,-0.4910270289093256
1725630846956809200,7.425809326171875,-0.47049219040274615,-0.9660798052258789,-0.7472516147315502
1725630846966843400,7.435843505859375,-0.5082926364868879,-0.9235387404859066,0.02644201672375202
1725630846976878300,7.44587841796875,-0.3155389445781708,-0.5853044183664023,0.9600158290117978
1725630846986912300,7.455912353515625,0.0068920976012945175,-0.5522938003746792,0.655167205274105
1725630846996946400,7.465946533203125,-0.03609481121003628,-0.7679854098763317,-0.09166706082820891
1725630847006981400,7.4759814453125,-0.1565700333714485,-0.7715422986403108,0.3742483231782913
1725630847017015600,7.486015625,0.04055588227212429,-0.49642465016916393,1.2593985885590313
1725630847027049200,7.49604931640625,0.3904512699604034,-0.46408641501367087,0.7809832039415836
1725630847037083400,7.50608349609375,0.5118728330612182,-0.6297353154409676,0.20227379992604255
1725630847047118300,7.516118408203125,0.6219926654249429,-0.6702260965876281,0.16152560995221138
1725630847057152300,7.52615234375,0.8525508950710297,-0.4992564760616049,0.49991643780767914
1725630847067186400,7.5361865234375,0.9134376177102327,-0.2507559999517165,0.3637964872688055
1725630847077221400,7.546221435546875,0.7671294506341219,-0.1640686637648381,-0.17315876460075377
1725630847087255600,7.556255615234375,0.4024345532208681,-0.041138696261914444,-0.2113122619062662
1725630847097289200,7.566289306640625,-0.018380290821194648,0.17469693395346403,-0.0876245074391365
1725630847107323400,7.576323486328125,-0.32144729183912274,0.2807253688177094,-0.21386720708608625
1725630847117358300,7.5863583984375,-0.5344944147139787,0.28322494881479066,-0.30315993999838825
1725630847127392300,7.596392333984375,-0.8634463830947875,0.22748190920697522,-0.3452531148403883
1725630847137426400,7.606426513671875,-1.2355541871130467,0.0888632919864729,-0.78746146004498
1725630847147460400,7.61646044921875,-1.4993769729793072,-0.04726641276143491,-1.2344371657818556
1725630847157495300,7.626495361328125,-1.5412041903614997,-0.1642559847641736,-1.271466042971611
1725630847167529500,7.636529541015625,-1.4021125305354594,-0.1509296528642997,-1.131323997309804
1725630847177563400,7.6465634765625,-1.0296662883430718,-0.11417411272320896,-0.9328589420169592
1725630847187598600,7.6565986328125,-0.6132704297870397,-0.026221469308249652,-0.3154343151599169
1725630847197632300,7.66663232421875,-0.3220300601631403,0.20248660242650657,0.9463023609578609
1725630847207666400,7.67666650390625,0.33192192410230636,0.29213154630996285,2.2607816162258385
1725630847217700600,7.68670068359375,1.109331945732236,0.12109108903743326,2.790854122844338
1725630847227735300,7.6967353515625,1.4864689760893584,-0.09470504028461874,2.5225392862558365
1725630847237769500,7.70676953125,1.5948498558312654,-0.32629239378273484,1.8065742056697607
1725630847247803400,7.716803466796875,1.4312065230727196,-0.6082939565487205,1.000359529837966
1725630847257837300,7.72683740234375,1.0912293028086424,-0.9924759369812906,0.49361587635874743
1725630847267872300,7.736872314453125,1.262389002546668,-1.0089615731623023,0.17965806349217892
1725630847277906400,7.746906494140625,1.5520125846236943,-0.7958407274641096,-0.24096914902329444
1725630847287940400,7.7569404296875,1.2764514301687477,-0.7121713143263012,-0.7031085216224193
1725630847297975300,7.766975341796875,0.6234796891123056,-0.6718260060649365,-1.0992875215798616
1725630847308009500,7.777009521484375,0.14721885218024253,-0.4048590038888156,-1.6520406465619801
1725630847318043400,7.78704345703125,-0.18368132765889167,-0.11013985223844647,-2.100176043727994
1725630847328077300,7.797077392578125,-0.6446054792493582,0.0573157322846353,-2.361443884414434
1725630847338112300,7.8071123046875,-1.0821265434205531,0.3071485712431371,-2.4452871197491883
1725630847348146400,7.817146484375,-1.2993378002375364,0.5224835127942263,-2.043761498066783
1725630847358180400,7.827180419921875,-1.4799521415412424,0.45828503525853154,-1.2379793684333562
1725630847368214300,7.83721435546875,-1.828207360807061,0.47880584523975844,-0.4795224690765142
1725630847378249500,7.84724951171875,-2.1692925423130394,0.5433187955521047,0.044207975038886065
1725630847388283100,7.857283203125,-2.249208667331934,0.32127515014261004,0.39119945797920225
1725630847398317300,7.8673173828125,-2.0082935865834353,0.032453385967761275,0.6339420464158058
1725630847408352300,7.877352294921875,-1.421699859058857,-0.47561800898388024,1.107203701531887
1725630847418386400,7.887386474609375,-0.8313280743002891,-0.894559314239025,1.45774440138638
1725630847428420400,7.89742041015625,-0.2721250425264239,-0.7289116559207439,1.3917834442228079
1725630847438454300,7.907454345703125,0.46150867348015306,-0.40015857111290093,1.6336971806198357
1725630847448488400,7.917488525390625,1.1353642126113175,-0.1759336361415684,1.5074977355927228
1725630847458522400,7.9275224609375,1.356346220138669,0.14562033094242213,0.5466097999215126
1725630847468557300,7.937557373046875,1.7714111223518847,0.19553236284181474,-0.38633565133512016
1725630847478591500,7.947591552734375,2.3207161527067424,0.08027940537333488,-0.708968938088417
1725630847488625400,7.95762548828125,2.526092594823241,-0.2440817280858755,-0.3717681968003511
1725630847498659300,7.967659423828125,1.945281250092387,-0.41086759665384887,-0.6210375566571951
1725630847508694500,7.977694580078125,1.2152134098738432,-0.40617476266250013,-1.151627949669957
1725630847518728200,7.987728271484375,0.41126317184269423,-0.5689663008973002,-0.3102577893048525
1725630847528762400,7.997762451171875,-0.4694008880347013,-0.5166986457824707,0.9881687413066625
1725630847538797300,8.00779736328125,-1.3432716345101594,-0.004315525111556053,1.0496294644415378
1725630847548831500,8.01783154296875,-1.7369418665170668,0.3465877244450152,0.35470424927473065
1725630847558865400,8.027865478515626,-1.7582412596553563,0.37724341334104533,0.2789782694220543
1725630847568899300,8.0378994140625,-1.6524778689354658,0.48183673736825583,0.46102995005249975
1725630847578934500,8.0479345703125,-1.3889029203504324,0.7236088733375072,0.17047639364898204
1725630847588968200,8.05796826171875,-0.8258399982780218,1.021481374452263,-0.14464812490940093
1725630847599002400,8.06800244140625,-0.36679917621612546,1.1300691749431193,-0.11052899768650531
1725630847609036500,8.07803662109375,-0.12990823641717433,1.0692341824911533,0.005780336967110633
1725630847619071500,8.088071533203125,-0.19862404524683952,0.8289891099587082,0.31080899344682694
1725630847629105400,8.09810546875,-0.5876116723954677,0.8376208908341825,0.5090279650241136
1725630847639139300,8.108139404296875,-0.9470821131587028,0.7605934729941188,0.30817864494323727
1725630847649174500,8.118174560546874,-0.9713298347085714,0.5837415529638529,-0.008588380125164986
1725630847659208200,8.128208251953126,-0.4719505725175142,0.37441761533059176,-0.2561696407645941
1725630847669242400,8.138242431640625,0.09830489140748977,-0.03599558861926198,-0.778979462903738
1725630847679276500,8.148276611328125,0.33617899702489373,-0.5646092747315764,-1.2336094827860593
1725630847689311200,8.158311279296875,0.3866571383744478,-1.0407914204042403,-1.2874001096844672
1725630847699345400,8.168345458984374,0.3865793969631195,-1.475769887420535,-0.7490034268349408
1725630847709379300,8.17837939453125,0.17404373074173926,-1.7599248288281262,-0.3425333344876766
1725630847719413200,8.188413330078125,-0.03909223946034908,-1.8743211694672703,0.045291094100475306
1725630847729448200,8.1984482421875,-0.08530161744952201,-1.6802654550492762,0.6217991886794567
1725630847739482400,8.208482421875,0.08486497959792613,-1.2564559592358768,1.0669330659419298
1725630847749516500,8.2185166015625,0.2838046666651964,-0.8802132473699747,1.1097264980077743
1725630847759551200,8.22855126953125,0.39232290905117984,-0.5718765257881954,1.0846037471890448
1725630847769585400,8.23858544921875,0.41245618101954457,-0.3413439420400187,1.029887822139263
1725630847779619300,8.248619384765625,0.3180670017510652,-0.16179394203219563,0.6276748027145862
1725630847789653200,8.2586533203125,0.27286066332459447,-0.17279932017121463,0.053583121627569195
1725630847799688400,8.2686884765625,0.44336920567750926,-0.3307772841118276,-0.2941232315838337
1725630847809722400,8.278722412109374,0.3889981485426426,-0.281375064898096,-0.16620938385426998
1725630847819757600,8.288757568359374,0.2023024414986372,-0.2324865673601627,0.01853577364385128
1725630847829791200,8.298791259765625,-0.07596738739311695,-0.1129695501058828,0.3177244719237089
1725630847839826400,8.308826416015625,-0.17973054420650003,-0.00636585437064059,0.2897568530678749
1725630847849860400,8.3188603515625,-0.2639098796278238,-0.012207150577637367,0.175806648761034
1725630847859894300,8.328894287109375,-0.47997371997535226,0.059300366763211786,0.15735621531307697
1725630847869928400,8.338928466796874,-0.832525759652257,0.1531945016568992,0.15309446621537207
1725630847879963400,8.34896337890625,-1.0759463934808968,0.16802094505457207,-0.2735018838375807
1725630847889997600,8.35899755859375,-0.8407043899327517,0.15137110388833097,-0.8271288690447807
1725630847900031200,8.36903125,-0.5688596256524324,0.12052094273297115,-0.9441109883934259
1725630847910066400,8.37906640625,-0.4371025464981794,0.09585476744216866,-0.8215595444798469
1725630847920100400,8.389100341796874,-0.53128422049582,0.06840558296986855,-0.6344044032305479
1725630847930134300,8.39913427734375,-0.689198069691658,0.08099111557295545,0.39430268469154833
1725630847940168400,8.40916845703125,-0.7128291206479073,0.190774719985947,1.2099252403378487
1725630847950203400,8.419203369140625,-0.4301888215869665,0.0426811307977885,0.9081535398274659
1725630847960237300,8.4292373046875,-0.1077449199259281,-0.40793285837620497,0.6046680211365223
1725630847970271200,8.439271240234374,0.1558826356291771,-0.6455819961313158,0.9148270262420177
1725630847980306400,8.449306396484374,0.3879582841008901,-0.8409002047657966,0.47846156184673305
1725630847990340400,8.45934033203125,0.5809785179913044,-1.2850965089172124,-0.32865035508573054
1725630848000374300,8.469374267578125,0.8664110781192779,-1.5854345233626663,-0.29926877777874467
1725630848010408400,8.479408447265625,1.124856262600422,-1.3121052196130156,0.457810403484106
1725630848020443400,8.489443359375,1.2911539092600346,-0.7628374525286257,0.7826976066440343
1725630848030477300,8.499477294921874,1.286259122955799,-0.33105913326051084,0.8267074287623166
1725630848040511500,8.509511474609376,1.0853268007665873,-0.08392444734480231,0.5519231038987636
1725630848050545400,8.51954541015625,0.7030705276995897,-0.12263236366268247,-0.19115327097475526
1725630848060580400,8.529580322265625,0.33531507367193697,-0.31717922259848563,-0.6738017631173133
1725630848070614300,8.5396142578125,0.013116671204566955,-0.2044602040544152,-0.3812713536828756
1725630848080648400,8.5496484375,-0.319673267903924,-0.2112116145433858,-0.4389934748113155
1725630848090683400,8.559683349609376,-0.7143570608675479,-0.7625751483306288,-1.5757570328265427
1725630848100717300,8.56971728515625,-1.143289744913578,-1.1062543649177998,-2.224757532164454
1725630848110751500,8.57975146484375,-1.485484641227126,-1.0847788845602422,-2.267261625894904
1725630848120785400,8.589785400390625,-1.7286001546293497,-0.9516557046845555,-2.0619459740549324
1725630848130820400,8.5998203125,-1.8194693430781363,-0.7560854940503835,-1.9349983410090208
1725630848140854300,8.609854248046876,-1.6642144839584827,-0.55261291279383,-1.5406033018589018
1725630848150888400,8.619888427734375,-1.5278420199632643,-0.16115023730117828,-0.4200801000267267
1725630848160922400,8.62992236328125,-1.3460913681060076,0.12327383990399539,0.15647358725965022
1725630848170957300,8.639957275390625,-1.0646885018855332,0.03676693831793964,0.09531155481040478
1725630848180991500,8.649991455078125,-0.697355657184124,0.019584077120386064,0.3446557334691286
1725630848191025200,8.660025146484376,-0.34697570084929463,-0.050895453446172176,0.0976630863726139
1725630848201060400,8.670060302734376,-0.13123802371621132,-0.41631822674255814,-0.5551186850696802
1725630848211094300,8.68009423828125,0.08616028010547161,-0.4028903706969693,-0.08258826683759689
1725630848221128400,8.69012841796875,0.4991033678591251,-0.07753405218794941,0.7634814495205878
1725630848231162400,8.700162353515625,0.9655699560075998,-0.07260686145145445,0.5902151328921318
1725630848241197300,8.710197265625,1.2927186743587256,-0.386129022847116,-0.030341946771740912
1725630848251231500,8.7202314453125,1.3791846594125032,-0.2537596935460344,0.8435387365758419
1725630848261265200,8.73026513671875,1.3279670978724956,-0.00019767799656838177,1.3129074759066104
1725630848271300400,8.74030029296875,1.2330109323710203,-0.41446974933166053,0.10360942755639553
1725630848281334500,8.75033447265625,1.232076866391301,-0.72403265170753,-0.0731073217868805
1725630848291368400,8.760368408203124,1.323251759788394,-0.33686778300665315,1.6284984429329632
1725630848301402400,8.77040234375,1.514013985618949,-0.33176991187836974,1.479867385867238
1725630848311437300,8.780437255859376,1.3512912748366595,-1.0204320115298031,0.10294482616782188
1725630848321471500,8.790471435546875,0.9267676394045352,-1.1406189182691275,0.09138298318982124
1725630848331505400,8.80050537109375,0.5618038619220257,-0.6936169090472162,0.7535743880122899
1725630848341540400,8.810540283203125,0.3096159842699766,-0.36175719999354333,0.6742284640967845
1725630848351574500,8.820574462890624,-0.04714695110023021,-0.23495734138786792,0.6105985802292824
1725630848361608200,8.830608154296876,-0.4734785127371549,-0.1159235136738047,0.23714754490852355
1725630848371642400,8.840642333984375,-0.7877671649932861,-0.23233090187441557,-0.5364812046170234
1725630848381677300,8.85067724609375,-1.0227157385528087,-0.13795553193558008,-0.34977322261333466
1725630848391711500,8.86071142578125,-1.2500713727653026,0.18472616053670643,-0.18120003223717213
1725630848401745400,8.870745361328124,-1.4228992979764938,0.08777768870685249,-1.1095271760433911
1725630848411779300,8.880779296875,-1.614899541169405,-0.13528733563963324,-1.7695751390963792
1725630848421814500,8.890814453125,-1.640989091193676,-0.044937275694124396,-1.651529774430394
1725630848431848200,8.90084814453125,-1.4890034630030393,0.21717103440444915,-0.8456687343418597
1725630848441882400,8.91088232421875,-1.2491174330413342,0.42663631673716007,-0.6401438236653805
1725630848451917300,8.920917236328124,-1.0568681835234164,0.16639546274458988,-1.338840958586335
1725630848461951200,8.930951171875,-0.855250801679492,0.17888152616173028,-0.38722529365122316
1725630848471985400,8.9409853515625,-0.3295014189571142,0.6807495364286005,1.3480986162751911
1725630848482019300,8.951019287109375,0.05509995593130588,0.7208820787221193,1.0801005905508994
1725630848492054500,8.961054443359375,0.11297113014161586,0.2405482932627201,0.2439040334314108
1725630848502088200,8.971088134765624,0.06825403653681278,0.07636201273389161,0.3435375430941581
1725630848512122400,8.981122314453126,0.12541443212926387,0.06751589498799294,0.19150164602100847
1725630848522157300,8.9911572265625,0.1600438469618559,-0.08329765721596777,0.04684299971759319
1725630848532191200,9.001191162109375,0.21157120510339736,-0.17287826715894042,0.08920037845373154
1725630848542225400,9.011225341796875,0.05983575228154659,-0.21829156286697834,-0.2573579737663269
1725630848552259300,9.02125927734375,-0.14805530300438402,-0.5940867501610889,-1.7018787364423273
1725630848562294500,9.03129443359375,-0.23491759389936923,-0.45371151679791505,-0.41309389440119265
1725630848572328400,9.041328369140626,-0.20489713416695593,0.584640584162809,3.030996757915616
1725630848582362400,9.0513623046875,0.04336860160529613,0.8779884109273552,3.202919843241572
1725630848592396300,9.061396240234375,0.16013620142042637,0.11569354084283112,1.2425292868226765
1725630848602431200,9.07143115234375,-0.13752514116168021,-0.2645157000338659,1.6671090363562107
1725630848612465400,9.08146533203125,-0.05143675724864006,-0.26408574765138326,2.2337486478716135
1725630848622499600,9.09149951171875,0.3172176914453506,-1.1331073005300014,0.6071019702851772
1725630848632534300,9.1015341796875,0.6832014596253633,-1.9298652159042655,-0.9303203634500503
1725630848642568400,9.111568359375,1.132486026826501,-1.7011290871188043,-0.6669885759711265
1725630848652602400,9.121602294921875,1.711708056539297,-0.790398682540655,1.0149503652483225
1725630848662636300,9.13163623046875,2.0656261238723994,0.05435227936916053,1.556383054792881
1725630848672671200,9.141671142578126,1.9596558124035595,0.31812673258166757,0.7130524080097674
1725630848682705400,9.151705322265625,1.5504589254409074,0.29367746057771144,0.1500999605745077
1725630848692739600,9.161739501953125,1.1099363413661718,0.526169873156771,0.8501689683705568
1725630848702774300,9.171774169921875,0.5540566087961196,0.638760187287256,0.8509966513663529
1725630848712808400,9.181808349609375,-0.1114051959991455,0.06651208824031055,-0.11148761358559131
1725630848722842400,9.19184228515625,-0.7231055999904871,-0.5077864405304193,-1.2055384035557508
1725630848732876300,9.201876220703125,-1.1666665288478135,-0.8783914387702941,-2.1429782436221836
1725630848742911200,9.2119111328125,-1.517956585764885,-0.9913403570801019,-2.5736919658660886
1725630848752945400,9.2219453125,-1.7789339190721511,-0.8036556389987468,-2.575627902364731
1725630848762979300,9.231979248046875,-1.841958238261938,-0.49717652798239137,-2.9002164148390293
1725630848773013200,9.24201318359375,-1.7213193499714134,-0.2511257648458704,-2.860065021714568
1725630848783048400,9.25204833984375,-1.539679757273197,0.06960274773202836,-1.7816724041253327
1725630848793082400,9.262082275390625,-1.3602671929746866,0.6916114144437014,-0.27316286114156246
1725630848803116300,9.2721162109375,-1.3247241704285144,1.310215168082714,0.8525695997714996
1725630848813151200,9.282151123046875,-1.4591308873087168,1.434909469243884,1.293898239532113
1725630848823185400,9.292185302734374,-1.3194225568890572,0.9289020210847257,0.617829700526595
1725630848833219300,9.30221923828125,-0.9539911618947983,0.22570845152735708,-0.609756284186244
1725630848843253200,9.312253173828125,-0.48304421346187587,-0.3158830453081056,-1.4493793086230753
1725630848853288400,9.322288330078125,0.008013795107603073,-0.41613797480482606,-1.1156453666627406
1725630848863322400,9.332322265625,0.4815454993367195,0.029193361258506773,0.1734673921585083
1725630848873356300,9.342356201171874,0.907674231877923,0.5552944800280034,1.0940741708457469
1725630848883391500,9.3523916015625,1.2100836457699538,0.8036182295978069,1.4633967280596494
1725630848893425400,9.36242529296875,1.3742840278893709,0.8938087150674313,1.5313631798267364
1725630848903459300,9.372459228515625,1.4192109648525715,0.8896522529751062,1.523810572490096
1725630848913493500,9.382493408203125,1.3798779023736714,0.7086460628096014,1.114344805458188
1725630848923528400,9.392528564453125,1.3050947563290596,0.1673079927459359,0.0902472571581602
1725630848933562400,9.402562255859374,1.1229133118391037,-0.2630821235667914,-0.1916846013724804
1725630848943596300,9.41259619140625,1.0240583853334189,-0.12486724657528102,0.774460524174571
1725630848953631500,9.422631591796875,0.9723948335915803,0.11421776920184493,1.0668927339315413
1725630848963665400,9.43266552734375,0.8061129690229892,-0.2022735807303339,0.1094616607159376
1725630848973699300,9.44269921875,0.3492518290877342,-0.13938881614170967,0.5853904892146587
1725630848983733500,9.4527333984375,-0.02907587235867977,0.190134595451504,1.1478080991208552
1725630848993768400,9.4627685546875,-0.3285486482769251,-0.06073752342686057,0.08916063096523284
1725630849003802400,9.47280224609375,-0.6937228536397219,-0.4439124457087367,-0.6920382615536451
1725630849013836300,9.482836181640625,-1.0090250668525695,-0.20164755778647958,0.057305357021093364
1725630849023870500,9.492870361328125,-1.0577285997450352,-0.1870711162276566,-0.1873784286111593
1725630849033905200,9.5029052734375,-1.1842010164946317,-0.44688605469204484,-1.1168816304594278
1725630849043939300,9.512939208984376,-1.2661667675197124,-0.5294109009046107,-1.612732134002447
1725630849053973500,9.522973388671875,-1.0841548343777656,-0.26866087354719637,-1.2658978874504565
1725630849064008400,9.533008544921875,-0.7525310164391994,0.17370061639249323,-0.6042851592987776
1725630849074042400,9.54304248046875,-0.4258990154385566,0.3513032817248255,-0.42334114764928815
1725630849084076300,9.553076171875,-0.27324235611855985,0.3727222095895558,-0.08072247296571732
1725630849094110500,9.5631103515625,-0.21304712287485597,0.31515951680652793,0.05592471631765365
1725630849104145400,9.5731455078125,-0.1866612202525139,0.08657441386431455,-0.3598620704293251
1725630849114179800,9.583179931640625,-0.18602935208976268,0.07100954579003155,-0.177127083709836
1725630849124214000,9.593214111328125,-0.1264326692610979,0.3602946896929294,0.8445978902399539
1725630849134249000,9.6032490234375,-0.1611672980338335,0.3698198392115533,0.8285071716606617
1725630849144283000,9.613282958984374,-0.39463703121244903,-0.03355535586029291,-0.565247864896059
1725630849154316800,9.62331689453125,-0.5784153895050287,-0.29394882486499846,-1.1816647760152816
1725630849164351000,9.63335107421875,-0.6466682569980621,-0.12988427101969718,-1.0640233159750698
1725630849174385700,9.6433857421875,-0.3935772930264473,0.14512093005292118,-0.7065887649536132
1725630849184419800,9.653419921875,-0.017593524357676506,0.6911747035268694,0.9926128612339497
1725630849194454000,9.6634541015625,0.4144289423972368,1.2932237012714147,2.177386709180474
1725630849204488700,9.67348876953125,0.640012306240201,1.1399265520907937,1.255611471235752
1725630849214523000,9.68352294921875,0.6016384441822767,0.4039322444327175,-0.15031097297668455
1725630849224556800,9.693556884765625,0.515299300378561,0.26813063912801444,0.3832920458555221
1725630849234590700,9.7035908203125,0.6506845069020987,0.42091216693669553,0.8515835113435983
1725630849244626000,9.7136259765625,0.7534417015433311,0.2147680283833295,0.3925345059752464
1725630849254659800,9.723659912109374,0.7178185994982719,0.051918549416214224,-0.04930266782939434
1725630849264694000,9.733694091796876,0.6529828469723463,0.1958276194613427,0.1345715520530939
1725630849274728000,9.74372802734375,0.4921615858972072,0.47266858459375793,0.5290998621940612
1725630849284763000,9.753762939453125,0.3179156105816364,0.7805733810316771,1.0642810901284216
1725630849294797000,9.763797119140625,0.1449678583830595,0.8738687737140804,0.966475964936614
1725630849304830700,9.773830810546874,-0.04968494514524936,0.6573803512789309,0.1757844369292259
1725630849314866000,9.783865966796874,-0.2579430801779032,0.5887053859163075,0.17497487411201
1725630849324899800,9.79389990234375,-0.5634446148663759,0.6088980599217116,0.16192366935908795
1725630849334933800,9.803933837890625,-0.9507938271582126,0.1863656713720411,-0.7223240942239761
1725630849344968000,9.813968017578125,-1.2772557322889566,-0.21490692539736628,-1.593233652806282
1725630849355003000,9.8240029296875,-1.4368758008807896,-0.3140802702024579,-1.7339000146031378
1725630849365037000,9.834037109375,-1.3497300168693065,-0.2252575659547001,-1.4864830046147106
1725630849375070700,9.84407080078125,-0.9509633385062217,0.04322619745992124,-1.1191893228799104
1725630849385106000,9.85410595703125,-0.4591828608810901,0.5266341296676545,-0.016668226206302643
1725630849395139800,9.864139892578125,0.025905425629019735,1.2787768043763934,1.7069944720208643
1725630849405173800,9.874173828125,0.43740883596837515,1.5527417756810784,2.157190308848023
1725630849415208000,9.8842080078125,0.6734551416367291,1.0180320377159864,1.18010117996037
1725630849425243000,9.894242919921876,0.7035071655511855,0.3081157357748598,0.4281266283601522
1725630849435277000,9.904277099609375,0.7119681199043989,-0.3115344581771642,0.04652735789716243
1725630849445310700,9.914310791015625,0.6441062975555658,-0.7231905748602002,-0.3226917389422655
1725630849455345000,9.924344970703125,0.40893852828741073,-0.7777473638255149,-0.5901473283529282
1725630849465379800,9.9343798828125,0.11796002447009087,-0.6436319580420852,-0.9713894559413194
1725630849475413800,9.944413818359376,-0.1292342826783657,-0.4513165114201605,-1.674553507143259
1725630849485448000,9.954447998046875,-0.17444412823617458,-0.2171836381576955,-1.914329646989703
1725630849495483000,9.96448291015625,-0.10659633441269398,0.38233679095730183,-0.15739946993291376
1725630849505516800,9.974516845703125,0.053071080452203746,1.1311457181334494,1.410226278886199
1725630849515551000,9.984551025390624,0.23972177931070326,0.8494936994574963,0.8026537684798241
1725630849525585000,9.9945849609375,0.10948562611341475,0.1857203592058271,0.26395079616010186
1725630849535620000,10.0046201171875,-0.0811591108173132,-0.06528744181618094,0.5445002604216337
1725630849545653800,10.01465380859375,-0.17967735271453855,-0.3220387549262494,0.3384457729130983
1725630849555688000,10.02468798828125,-0.28451953693628307,-0.5947775454368442,-0.40533495083749294
1725630849565723000,10.034722900390625,-0.38631402402520176,-0.5767542513597756,-0.6972445980250835
1725630849575756800,10.0447568359375,-0.5758779799818993,-0.19390607681423425,-0.6300386092364788
1725630849585791000,10.054791015625,-0.5148749374866485,0.16100421642661095,-1.2005635377526283
1725630849595825000,10.064824951171875,-0.34263679486215115,0.7703349686771631,0.18498598051667212
1725630849605859800,10.07485986328125,-0.0559182865768671,1.8045121585734187,1.9998744255453347
1725630849615893800,10.084893798828125,0.30315584834516046,2.2733310089364647,0.8379682429671287
1725630849625928000,10.094927978515624,0.4486392550349235,1.6947566294774412,-0.3078782006919384
1725630849635963000,10.104962890625,0.36623452807068824,1.2834957957223057,0.2548223178088665
1725630849645996800,10.114996826171875,0.4112164100915193,1.1588765325587242,0.6505424680829047
1725630849656031000,10.125031005859375,0.5360919130384921,0.7887824795156717,0.47277591742575165
1725630849666065000,10.13506494140625,0.7287140875220298,0.2526263421345502,0.1775239740729332
1725630849676099800,10.145099853515624,0.7294768885880708,-0.07793415742143989,-0.16923311558961868
1725630849686133800,10.1551337890625,0.5601175162702798,-0.43735060297511513,-1.1919529457956552
1725630849696168000,10.16516796875,0.20632219853401182,-0.24166407248489558,-0.23287702798247337
1725630849706201900,10.175201904296875,-0.03645604573786258,0.5432149698514491,1.1529483846187591
1725630849716236800,10.18523681640625,-0.21686931151151656,0.678883084969595,0.46973465003371234
1725630849726271000,10.19527099609375,-0.6179314073354005,0.4021871543310582,0.2024456493616104
1725630849736304600,10.2053046875,-0.8748007208019495,0.4801739187225699,0.7917764006346464
1725630849746339800,10.21533984375,-0.9134726890236139,0.37341808289922773,0.3209498637109995
1725630849756373800,10.225373779296875,-0.9937047481238841,-0.4191248451285064,-0.9237731337636709
1725630849766408000,10.235407958984375,-1.0856003570109605,-0.8440549424696713,-1.4094570480793713
1725630849776441900,10.24544189453125,-1.0050596703529358,-0.626111718116328,-1.2323247036725282
1725630849786476800,10.255476806640624,-0.7653378910422325,-0.28854345869012177,-0.57800271705091
1725630849796511000,10.265510986328126,-0.3571136485040188,0.35025209217146036,0.9925555780887603
1725630849806545000,10.275544921875,0.16520692881345747,0.699061511253938,1.105750580114126
1725630849816579800,10.285579833984375,0.45661564074158667,0.2991920592807233,-0.3705371937006712
1725630849826614000,10.295614013671875,0.5476917499393225,0.028641280333697793,-0.27492051846385
1725630849836648000,10.30564794921875,0.6951929261922836,0.3233877583824098,0.743822224804759
1725630849846681900,10.315681884765626,0.8084154007464647,0.20888313506320116,0.42556700700521466
1725630849856716800,10.325716796875,0.6956926924079656,-0.28694303775615987,-0.4763976150542497
1725630849866751000,10.3357509765625,0.5079793327540159,-0.5317009846031665,-0.7803735476106405
1725630849876785000,10.345784912109375,0.3757096279025078,-0.4089133938461542,-0.7612351318985223
1725630849886819800,10.35581982421875,0.22431553586423394,-0.152881992508471,-0.44018940659761424
1725630849896854000,10.36585400390625,0.07168342646360397,0.27342618825286624,0.3763450031965971
1725630849906887700,10.3758876953125,-0.0010679214924573899,0.54367966475375,0.587640898489952
1725630849916921900,10.385921875,-0.11956629062294959,0.4953505911968648,0.2536702251642942
1725630849926956800,10.395956787109375,-0.3966039473712444,0.39156478416025636,0.25558161174356936
1725630849936991000,10.405990966796875,-0.7540238853454589,0.08154314169883728,0.030645898154377935
1725630849947025000,10.41602490234375,-0.7950871326178311,-0.3487920295562595,-0.49186815590858457
1725630849957058800,10.426058837890626,-0.9044844959259033,-0.6308779096048325,-1.04673432752192
1725630849967094000,10.436093994140625,-1.0787520985513925,-0.6160816878154873,-1.3445967456340788
1725630849977127700,10.446127685546875,-0.9398936629593372,-0.4866180533606559,-1.3260235625892878
1725630849987161900,10.456161865234375,-0.552569585108757,-0.1816604162905365,-0.8312175996631384
1725630849997196800,10.46619677734375,-0.3095072631984949,0.3988852267088368,1.0184878917247056
1725630850007230700,10.476230712890626,-0.09621347208619117,1.0109118304472415,2.346672431740165
1725630850017265000,10.486264892578125,0.4159884467989206,1.1838223924405873,1.9778192456036805
1725630850027298800,10.496298828125,0.4039554791778326,1.0490016879320143,1.8710668438464402
1725630850037334000,10.506333984375,0.08921323793530464,0.5982732420654967,1.771518674379587
1725630850047368000,10.516367919921874,0.1927992846161127,-0.1377101058071479,0.4606570250868797
1725630850057401900,10.52640185546875,0.3287602452009916,-0.7331087422844023,-0.631912586414814
1725630850067437000,10.53643701171875,0.42181145386397834,-0.8774423213519156,-0.9809195008307695
1725630850077470700,10.546470703125,0.4624082526683807,-0.7526406142935156,-1.0859189214408398
1725630850087505000,10.5565048828125,0.5568839411765336,-0.41336142276357857,-1.2315794382631777
1725630850097539000,10.5665390625,0.4204202917665243,0.04187052680095658,-0.5327607227891683
1725630850107574000,10.576573974609374,0.2205623208105564,0.5303793806105852,0.7412474058806896
1725630850117607700,10.586607666015626,0.15107435856461524,0.8634588041849434,0.8359773614108562
1725630850127641600,10.5966416015625,0.0563408959031105,0.7307901631437241,0.44481589735448357
1725630850137676800,10.6066767578125,-0.028915713360905645,0.3586834916366264,0.5675877060204744
1725630850147710500,10.61671044921875,0.08482464758753776,-0.0575833519785665,0.2329191135585308
1725630850157744600,10.62674462890625,0.3103887222081423,-0.42466297083757815,-0.3017939123421907
1725630850167778800,10.63677880859375,0.36673604785203934,-0.5263283151214943,-0.46031507978141306
1725630850177813500,10.6468134765625,0.3588070084184408,-0.418286348477751,-0.4170341564595699
1725630850187847700,10.65684765625,0.29155367335677146,-0.2053273240114562,-0.3263385710120201
1725630850197881600,10.666881591796875,0.06378069051504134,0.07300046387892216,0.05335691165626049
1725630850207915500,10.67691552734375,-0.13940145642757415,0.4172731163145974,0.6530196718513965
1725630850217950500,10.686950439453126,-0.05412964959442615,0.6291406374834477,0.8732862245857715
1725630850227984600,10.696984619140625,0.1741208876311779,0.4967059878611937,0.5319388850122689
1725630850238018600,10.7070185546875,-0.06418167253136635,0.18362773430813104,-0.02951251021027565
1725630850248053500,10.717053466796875,-0.546299418798089,-0.14744023984596133,-0.4865373162746429
1725630850258087700,10.727087646484375,-0.8021674462676048,-0.4317272832006216,-0.7559621599316596
1725630850268121600,10.73712158203125,-0.8327823647618293,-0.5103896087661385,-1.1522329298257827
1725630850278155500,10.747155517578125,-0.9117290602266788,-0.4251583166064694,-1.5329168390095234
1725630850288190700,10.757190673828125,-1.0413432821333408,-0.24710516756027937,-1.9114269112855196
1725630850298224600,10.767224609375,-1.2055214524209499,-0.04276683631986379,-2.0482389357417823
1725630850308258600,10.777258544921875,-1.01392920550704,0.09007781887538731,-1.7490087364077567
1725630850318293500,10.78729345703125,-0.5633060831785202,-0.05733918622545898,-1.079081184375286
1725630850328327700,10.79732763671875,-0.18140227681100368,-0.29906996727101504,-0.3337088075190782
1725630850338361600,10.807361572265625,0.1636152757078409,-0.26760895334146917,0.4216302520781755
1725630850348395500,10.8173955078125,0.5279501076370477,0.3543087471511215,1.0652525655090808
1725630850358430700,10.8274306640625,0.7122714867651462,1.026062345566973,1.6835966452986002
1725630850368464600,10.837464599609374,0.8117892610937356,1.4634785611242056,2.1606536010444164
1725630850378498600,10.84749853515625,0.8468179043769836,1.4943898322165012,2.088790141838789
1725630850388533500,10.857533447265626,0.9456196393907069,1.248818011703342,0.7900701812386512
1725630850398567700,10.867567626953125,0.9271019859254359,0.9122778532158583,-0.647927317148447
1725630850408601600,10.8776015625,0.8731815951675176,0.2941806608594954,-1.0331254888862371
1725630850418635500,10.887635498046874,0.6147714819997548,-0.3428068907320499,-0.5858242044568062
1725630850428670700,10.897670654296874,0.05267535913288593,-0.1020505076766014,-0.43630935029387474
1725630850438704600,10.90770458984375,-0.7664303624540567,0.2963822625569999,0.023481997874379157
1725630850448738600,10.917738525390625,-1.6668541848123073,0.6010136633474379,0.5635439835876226
1725630850458772700,10.927772705078125,-2.187441070204973,0.8639782980144023,0.41013095294237134
1725630850468807700,10.9378076171875,-2.071538562786579,0.7674559791747481,-0.1711538545191288
1725630850478841600,10.947841552734374,-1.5373042603135108,0.6005598551653325,-0.6058066697776318
1725630850488875500,10.95787548828125,-0.9307803821772337,0.547627452531457,0.2004670427650213
1725630850498910700,10.96791064453125,-0.36764381034672255,0.4349320705913007,0.8701888430923223
1725630850508944400,10.9779443359375,0.2801502358108759,0.27195450826510786,0.6464321101546288
1725630850518978600,10.987978515625,0.8878548481643199,0.3205030697915703,0.8053507524788379
1725630850529012700,10.9980126953125,1.2295067236423491,0.37246282800100744,1.5106430478811264
1725630850539047700,11.008047607421876,1.346570091533661,0.45541853991150855,1.4232324754536152
1725630850549081600,11.01808154296875,1.4665852949678897,0.5869600035537034,0.7650175730466843
1725630850559115800,11.02811572265625,1.5836825651288031,0.671127502406761,0.03671031275987625
1725630850569150700,11.038150634765625,1.5933470500528812,0.5918655304476619,-0.4892576811492443
1725630850579184600,11.0481845703125,1.3040472931027411,0.2838636303108185,-0.887535699212551
1725630850589218600,11.058218505859376,0.8651941035449504,-0.028141514118015763,-1.5094272423505781
1725630850599252700,11.068252685546875,0.38925475365221496,-0.14549480486661195,-2.0430963121563197
1725630850609287700,11.07828759765625,-0.26185236257612704,-0.0983145360186696,-2.2385487416297196
1725630850619321600,11.088321533203125,-0.9571662847995758,-0.05603716371618211,-2.0987591626673936
1725630850629355800,11.098355712890625,-1.292180329698324,-0.16678659922033548,-1.381430392512679
1725630850639390700,11.108390625,-1.6553303357571363,-0.24750483440235255,-0.5871639286279678
1725630850649424600,11.118424560546876,-2.2159739217281342,-0.34214499275721605,-0.409631771248579
1725630850659458600,11.12845849609375,-2.560057992789149,-0.509396506075561,-0.7425590730011463
1725630850669492700,11.13849267578125,-2.6548949158251283,-0.4926766958124935,-1.096002508559823
1725630850679527400,11.14852734375,-2.2964012111395595,-0.22207133713401853,-1.2664672117710112
1725630850689561600,11.1585615234375,-1.6021587175399064,0.16259294692277906,-0.3927753289937973
1725630850699595800,11.168595703125,-1.0701900219112634,0.3697898824647069,1.1440122139692306
1725630850709630700,11.178630615234376,-0.5304594601094722,0.31704171382393687,2.36786777998209
1725630850719664600,11.18866455078125,0.07400222479999065,0.23384569035153835,2.7514345511257647
1725630850729698600,11.198698486328125,0.745581051170826,0.23295381954573094,2.255939436891675
1725630850739732500,11.208732421875,1.4665560688734054,0.13855042908880857,1.3388883048593998
1725630850749767400,11.218767333984376,2.042582517415285,0.029771599537879227,0.5045265619516373
1725630850759801600,11.228801513671876,2.653471020501852,0.08858962614424526,-0.08266367016136646
1725630850769835800,11.238835693359375,3.492648639258742,0.3098907095581293,-0.0007815057665109634
1725630850779869400,11.248869384765625,3.7294197520703074,0.30379882242381573,0.18690788848996162
1725630850789904600,11.258904541015625,2.9166034860163927,-0.0016685542667284608,-0.9251672184705734
1725630850799938600,11.2689384765625,1.8005816872566938,-0.13474080767277627,-1.3871891021698712
1725630850809972500,11.278972412109376,0.8134685924828052,-0.016135982493124902,-0.22772212943732736
1725630850820007700,11.289007568359375,0.03670329849720001,-0.018661591980606317,0.873192116561532
1725630850830041600,11.29904150390625,-0.7953413996398448,-0.05082063464429229,0.1379822372794151
1725630850840075800,11.30907568359375,-1.5712959617644549,-0.09940547306053339,-0.6786573864549398
1725630850850109700,11.319109619140624,-2.150042190659046,-0.02603102477006614,-0.8736626566827297
1725630850860144600,11.32914453125,-2.5239304483532905,0.07707980561442673,-0.9852736043870448
1725630850870178800,11.3391787109375,-2.7233529505014418,0.17540237880907952,-1.2255424961864947
1725630850880212500,11.34921240234375,-2.6925772884875534,0.36054238084368406,-1.510063786688447
1725630850890247700,11.35924755859375,-2.3034026143342254,0.46127705668136476,-1.1904513090610505
1725630850900281600,11.369281494140624,-1.7557810070216655,0.3305345613971352,0.22310499103069303
1725630850910315500,11.3793154296875,-1.1377455547899007,0.0001625701505690813,1.0178034165918826
1725630850920349700,11.389349609375,-0.5817629463672638,-0.386937928077206,0.2614531341254711
1725630850930384600,11.399384521484375,0.1475128666907549,-0.5207813119862228,-0.15883447117209434
1725630850940418800,11.409418701171875,0.7861749273657799,-0.4666876104880124,0.21210721167623994
1725630850950452500,11.419452392578124,1.0732535011351108,-0.2866213315211236,0.4435118290185928
1725630850960487700,11.42948779296875,1.1269359914839268,-0.12139365218058228,-0.04456161078214645
1725630850970521600,11.439521484375,1.370637780341506,-0.022843699970841406,-0.3534662319123745
1725630850980555500,11.449555419921875,1.6288181764066219,0.03721278238929808,-0.10583119525909424
1725630850990589700,11.459589599609375,1.550974473747611,-0.005131663800030947,0.2287882973641157
1725630851000624600,11.469624755859375,1.2423638671278954,-0.15981822151243685,0.9776444246828555
1725630851010658600,11.479658447265624,0.7543938877016305,-0.25899083566516634,1.33025257846117
1725630851020692500,11.4896923828125,0.3101291944891214,-0.10003449167907237,0.6863701527893543
1725630851030727700,11.499727783203125,0.13954583333432674,0.14862265456356108,-0.0655558834940195
1725630851040761600,11.50976171875,0.028331191471219062,0.13771101912260056,-0.01706044039428234
1725630851050795500,11.51979541015625,-0.14222761976420878,-0.026738223191350698,0.2442863107472658
1725630851060829700,11.52982958984375,-0.18992226787507532,-0.17626330648735164,0.30366496691107747
1725630851070864600,11.53986474609375,-0.12274082900583744,-0.31671193388029933,0.07181786649823188
1725630851080898600,11.549898681640625,-0.040029228049516676,-0.3609291882041841,-0.4327975427806377
1725630851090932500,11.559932373046875,0.0419581502854824,-0.2754481955997646,-0.6578507452696561
1725630851100966700,11.569966552734375,0.13527122475504874,-0.12519406737685204,-0.13028291494846342
1725630851111001900,11.580001953125,-0.02221007824242115,-0.07776654576957226,0.4203004647791385
1725630851121034800,11.59003466796875,-0.39739071383476254,-0.019230770170688628,0.22986089503169058
1725630851131069000,11.60006884765625,-0.5897527760773896,0.09338818553239106,0.048154666838049885
1725630851141103900,11.610103759765625,-0.8096317907989025,0.08296133793368934,-0.03720014210343361
1725630851151137800,11.6201376953125,-1.0933113697797059,0.03323153073340654,-0.3728361182928085
1725630851161172000,11.630171875,-1.2940502152234314,-0.013373860836029051,-0.7874000852465629
1725630851171206000,11.640205810546876,-1.2398264576047657,0.0013844400957226752,-1.0811994917035102
1725630851181240800,11.65024072265625,-1.0069295558780431,-0.0755950469493866,-1.2119091076314448
1725630851191275000,11.66027490234375,-0.5269412228554486,-0.16632935697212814,-1.1718582522720098
1725630851201309000,11.670308837890625,0.023847908577322958,-0.40048473432734605,-0.5200286669880152
1725630851211344100,11.68034423828125,0.41977205699086184,-0.8090564751289785,0.3271586552232504
1725630851221377800,11.690377685546874,0.6324480084657669,-0.8573409058265388,0.5870505313813686
1725630851231412000,11.700411865234376,0.827930248555541,-0.5774943291373551,0.5778624317973852
1725630851241446100,11.710446044921875,1.0829863751202822,-0.31041283373609185,0.6198562379181385
1725630851251480800,11.720480712890625,1.2496955251902342,-0.11732333400174974,0.5670516994476318
1725630851261515000,11.730514892578125,1.1633569659084082,0.03127557436004281,0.4340314684897661
1725630851271549000,11.740548828125,1.0398948368906975,0.15508257129266856,0.4158446544140577
1725630851281582800,11.750582763671876,0.8374766600579023,0.24259908831268548,-0.013092705807089804
1725630851291617800,11.76061767578125,0.6559627395659685,0.30661168788745996,-0.7439817992806435
1725630851301652000,11.77065185546875,0.7537099970906972,0.013743132539838552,0.13619593838453292
1725630851311686000,11.780685791015625,0.19349545018672942,-0.06600728052332996,1.0297674106299877
1725630851321720800,11.790720947265624,-0.5153185896009207,0.17779840710014103,0.23441432055234906
1725630851331755000,11.800755126953124,-0.7174258007884026,-0.0985433763384819,-0.2735585824608803
1725630851341789000,11.810788818359375,-0.9469833289593458,-0.2758702204041183,-0.004281038320064544
1725630851351824000,11.820823974609375,-1.0826461833804846,-0.1660482019431889,0.4635451477438211
1725630851361857800,11.83085791015625,-1.1124012701749801,-0.20376228491812942,0.15930851842463015
1725630851371892000,11.84089208984375,-0.962818611472845,-0.31708208236694335,-1.1181447822630404
1725630851381926000,11.85092578125,-0.6548615003257989,-0.3780753341205418,-1.9996412013113498
1725630851391960800,11.8609609375,-0.3602186287820339,-0.23604981279969214,-2.276371984067559
1725630851401995000,11.8709951171875,-0.06987550025880336,-0.23530454739034173,-1.2162906837165355
1725630851412029000,11.88102880859375,0.3484808447152376,-0.35655601462125774,0.3973234938174486
1725630851422062800,11.891062744140624,0.314361717492342,-0.20958499972224234,0.9003285452902317
1725630851432097800,11.901097900390624,0.07657587468028068,-0.1330547177493572,1.0657850649505853
1725630851442132000,11.911132080078126,-0.1904196960031986,-0.2195151498451829,1.3038655067950486
1725630851452164900,11.921164794921875,-0.4179536093920469,-0.18677125649824738,0.7020651500493288
1725630851462199800,11.93119970703125,-0.2917909892439842,-0.18379209455698728,-0.24754209767282007
1725630851472234000,11.94123388671875,0.2562596571356058,-0.25907909847050903,-0.2716483649253845
1725630851482268000,11.951267822265624,0.6145914492577313,-0.3986771003834903,-0.33715456405878064
1725630851492302800,11.961302734375,0.8312140925318002,-0.5910895776391029,-1.1401052696585654
1725630851502337000,11.9713369140625,0.8654705823987722,-0.7191942717656493,-1.1319009204149246
1725630851512371000,11.981370849609375,0.7817810763210058,-0.7666611755352467,-0.30300854882895945
1725630851522404900,11.99140478515625,0.6662012249857187,-0.7194893091894686,-0.009616554129123687
1725630851532440000,12.001440185546874,0.6239391233175993,-0.6136841251544654,-0.024082886376976965
1725630851542473700,12.0114736328125,0.5653530788362026,-0.5466561232812702,0.38845162057578564
1725630851552508000,12.0215078125,0.13957915108203886,-0.5046879630584269,0.6388578755080699
1725630851562542800,12.03154296875,-0.5473527272433042,-0.44040451065301894,0.45854690106511115
1725630851572577000,12.041576904296875,-0.8216916464269161,-0.37855442287437613,0.34614626428782935
1725630851582611000,12.05161083984375,-0.8203361401647329,-0.26313845686390996,0.45618893976211544
1725630851592644900,12.061644775390626,-0.8963982201039791,-0.1409847800962627,0.6986468660384416
1725630851602680000,12.07168017578125,-0.926381854957342,-0.06830905465967953,0.6496779602080583
1725630851612713700,12.081713623046875,-0.8062696208894252,-0.13726086420230565,0.29434184277057646
1725630851622748000,12.091747802734375,-0.4552805927455425,-0.21545557225607334,0.3615601065188646
1725630851632782000,12.101781982421874,-0.26680150941610337,-0.1769886250872165,0.5805512324899434
1725630851642817000,12.111817138671874,-0.32434009067118164,-0.27139468242526055,-0.15499007070362567
1725630851652851000,12.121850830078126,-0.32145313705801964,-0.5980405658207834,-1.0913058751761913
1725630851662884900,12.131884765625,-0.016177812340855597,-0.7371196584261953,-0.8174825042992829
1725630851672920000,12.141920166015625,0.4182786035627126,-0.6275327638953924,-0.07347381701171397
1725630851682953700,12.15195361328125,0.6821914057999849,-0.5930465934583917,-0.08533844232857227
1725630851692988000,12.16198779296875,0.6833645412325858,-0.6194521140966565,-0.0757774177789688
1725630851703022800,12.17202294921875,0.6979103684574365,-0.4594827936757356,0.5975502980858087
1725630851713056800,12.182056884765625,0.6958259633988142,-0.11303071484174579,1.1925456509917973
1725630851723091000,12.192091064453125,0.5662748698562383,0.020383995326422155,0.982470237404108
1725630851733124900,12.202124755859375,0.5380062222272157,-0.14034341345280407,0.543587821751833
1725630851743160000,12.21216015625,0.31147067222595215,-0.24126075238101183,0.1754272940546274
1725630851753193700,12.22219384765625,0.16189210517704486,-0.34687264233361925,-0.26977731035649777
1725630851763228000,12.232227783203125,0.15272446385920047,-0.4363467596948147,-0.40919922505021095
1725630851773262000,12.242261962890625,0.25647125405967236,-0.39209260742664337,-0.3773158940553665
1725630851783296800,12.252296875,0.353452203387022,-0.3250099527567625,-0.1962888802975416
1725630851793331000,12.2623310546875,0.24965163717269895,-0.16059760838709772,0.536783986955881
1725630851803365000,12.272365234375,0.21476678627431392,-0.07103077124115079,0.9095721744537353
1725630851813400000,12.282400146484376,0.08358312309384346,-0.23598083921670912,0.5183335535079241
1725630851823434800,12.292434814453125,-0.2754956880033016,-0.5185606402620673,0.2281079138845205
1725630851833469000,12.302468994140625,-0.49941550254821776,-0.648400049226731,0.19657354245781897
1725630851843503000,12.312503173828125,-0.4575993910819292,-0.6670607644245028,-0.042242227923870085
1725630851853537800,12.322537841796875,-0.48107203660607334,-0.684722458647564,-0.45452071428894997
1725630851863572000,12.332572021484374,-0.4541869522899389,-0.7508819340579211,-0.856192466443777
1725630851873606000,12.34260595703125,-0.47811727845370766,-0.7883782826289534,-1.3217851943671703
1725630851883639800,12.352639892578125,-0.44393502286672587,-0.6459457148771732,-1.1489198597550392
1725630851893674800,12.3626748046875,-0.29572423703968526,-0.2785502167357132,-0.2585229258924723
1725630851903709000,12.372708984375,-0.11056699160933493,-0.056644317562785,-0.2694593304485082
1725630851913743000,12.3827431640625,-0.11329261718094348,-0.13793065322265027,-0.15961363885104654
1725630851923777800,12.39277783203125,-0.013681319350004195,-0.12459411045601591,0.35187574785053727
1725630851933812000,12.40281201171875,0.04829729017913341,-0.14376038228943944,0.050256023031473154
1725630851943846000,12.412845947265625,-0.23157529773414134,-0.47168972962424155,-0.8393155659228563
1725630851953879800,12.4228798828125,-0.5919295355945825,-0.442472183772549,-0.7300801151782274
1725630851963914800,12.432914794921874,-0.6392354766488075,-0.20392434361204503,-0.389969039401412
1725630851973949000,12.442948974609376,-0.6060889938503503,-0.2003400553844869,-0.8694967691749333
1725630851983982800,12.45298291015625,-0.6942875017851591,-0.46384639571271835,-1.9544523985415696
1725630851994017800,12.463017822265625,-0.7622212203264236,-0.4057574870985001,-1.2641869918793438
1725630852004052000,12.473052001953125,-0.7213532033652067,0.3412655065089464,1.2895008813560007
1725630852014086000,12.4830859375,-0.31005729829669,0.6268780993789435,1.7538900787085294
1725630852024119800,12.493119873046876,-0.10578384898602962,0.2095124824753031,1.3852549192368984
1725630852034155000,12.503155029296876,-0.16690028872787951,0.00947122737430036,1.6431436388790606
1725630852044189000,12.51318896484375,-0.06484861200749874,-0.31832291274089364,0.9293144012778997
1725630852054222800,12.523222900390625,-0.25676176143884655,-1.007792164056748,-0.49442076300084586
