time,seconds_elapsed,z,y,x
1725630839561557800,0.030557861328125,-0.20695911347866058,0.13343754410743713,0.699397623538971
1725630839571592000,0.040592041015625,-0.2631438374519348,0.17092926800251007,0.6070420742034912
1725630839581626600,0.050626708984375,-0.363180935382843,0.40587151050567627,0.5455834865570068
1725630839591660800,0.060660888671875,-0.4225635528564453,0.5149039626121521,0.5105770230293274
1725630839601694700,0.07069482421875,-0.41906094551086426,0.43176862597465515,0.42662352323532104
1725630839611730000,0.08072998046875,-0.38848066329956055,0.29023921489715576,0.32174158096313477
1725630839621763600,0.090763671875,-0.34129247069358826,0.223829448223114,0.2051229327917099
1725630839631797800,0.1007978515625,-0.27706554532051086,0.2442319244146347,0.09626676887273788
1725630839641831700,0.110831787109375,-0.2136480063199997,0.26600348949432373,-0.00526780728250742
1725630839651866600,0.12086669921875,-0.1629030704498291,0.28875619173049927,-0.07444102317094803
1725630839661900800,0.13090087890625,-0.1332738995552063,0.3501824736595154,-0.10251149535179138
1725630839671934700,0.140934814453125,-0.13648860156536102,0.43687766790390015,-0.08734878897666931
1725630839681968600,0.15096875,-0.17864808440208435,0.5252575278282166,-0.028598086908459663
1725630839692003800,0.16100390625,-0.24765244126319885,0.5804805755615234,0.07054846733808517
1725630839702037800,0.171037841796875,-0.3388378322124481,0.6169685125350952,0.25960585474967957
1725630839712071700,0.18107177734375,-0.41022226214408875,0.5976603031158447,0.4585208296775818
1725630839722105900,0.19110595703125,-0.4006454646587372,0.4950847327709198,0.5953707098960876
1725630839732140800,0.201140869140625,-0.2966919243335724,0.3020756244659424,0.47522860765457153
1725630839742175000,0.211175048828125,-0.15220674872398376,0.2868208885192871,0.14382047951221466
1725630839752208600,0.221208740234375,-0.0030987667851150036,0.5507108569145203,-0.1856575608253479
1725630839762242800,0.231242919921875,0.1728336364030838,0.8856041431427002,-0.4443892240524292
1725630839772277800,0.24127783203125,0.29221996665000916,1.173814058303833,-0.6378598213195801
1725630839782311700,0.251311767578125,0.2648046314716339,1.451753854751587,-0.7205995321273804
1725630839792345900,0.261345947265625,0.27414408326148987,1.3714464902877808,-0.7304359674453735
1725630839802379800,0.2713798828125,0.20926329493522644,1.0259649753570557,-0.7011510729789734
1725630839812414700,0.281414794921875,0.10106838494539261,0.6900144219398499,-0.6409977078437805
1725630839822448600,0.29144873046875,0.07298235595226288,0.4552910625934601,-0.5612114071846008
1725630839832482800,0.30148291015625,0.1782778948545456,0.41649678349494934,-0.46066778898239136
1725630839842516700,0.311516845703125,0.3548017144203186,0.4923025369644165,-0.37406089901924133
1725630839852551700,0.3215517578125,0.5077811479568481,0.6226426959037781,-0.3567974865436554
1725630839862585900,0.3315859375,0.5978261828422546,0.678663969039917,-0.40611401200294495
1725630839872619500,0.34161962890625,0.601756751537323,1.0160605907440186,-0.5437828898429871
1725630839882653700,0.35165380859375,0.4826327860355377,1.20967698097229,-0.7212258577346802
1725630839892688600,0.361688720703125,0.19659970700740814,1.4981255531311035,-0.9020760655403137
1725630839902722800,0.371722900390625,-0.1365991085767746,2.0335257053375244,-0.9822373986244202
1725630839912756700,0.3817568359375,-0.46448618173599243,2.7400832176208496,-0.996674656867981
1725630839922790700,0.391790771484375,-0.7065435647964478,3.328280448913574,-0.9723264575004578
1725630839932825900,0.401825927734375,-0.8283160924911499,3.5569565296173096,-0.8371771574020386
1725630839942859800,0.41185986328125,-0.8130290508270264,3.157520055770874,-0.5749545097351074
1725630839952893700,0.421893798828125,-0.6316715478897095,2.0556681156158447,-0.3157930374145508
1725630839962927900,0.431927978515625,-0.3351658880710602,0.7267996072769165,-0.14092683792114258
1725630839972962800,0.441962890625,-0.02474997192621231,-0.1813977062702179,-0.0763731449842453
1725630839982996700,0.451996826171875,0.34275174140930176,-0.3094860315322876,-0.14012190699577332
1725630839993031000,0.462031005859375,0.6663114428520203,0.16293291747570038,-0.22774364054203033
1725630840003064600,0.472064697265625,1.0118012428283691,0.8068376183509827,-0.3611179292201996
1725630840013099800,0.482099853515625,1.4539426565170288,1.4011163711547852,-0.5981400609016418
1725630840023133700,0.4921337890625,1.9517079591751099,2.251559019088745,-1.0007117986679077
1725630840033168000,0.50216796875,2.4380340576171875,3.510728359222412,-1.5490214824676514
1725630840043201800,0.512201904296875,2.8389432430267334,4.663313388824463,-2.2046167850494385
1725630840053236700,0.52223681640625,2.948347568511963,5.08167028427124,-2.8486855030059814
1725630840063271000,0.53227099609375,2.464622974395752,4.744289398193359,-3.2117648124694824
1725630840073304600,0.5423046875,1.6174277067184448,4.476112365722656,-3.149266004562378
1725630840083338800,0.5523388671875,1.0669959783554077,4.215721130371094,-2.8354969024658203
1725630840093373700,0.562373779296875,0.7008233666419983,3.271754503250122,-2.5737383365631104
1725630840103407900,0.572407958984375,0.49164578318595886,2.3799397945404053,-2.3947675228118896
1725630840113441300,0.582441162109375,0.35315635800361633,1.4465279579162598,-2.479269027709961
1725630840123476000,0.59247607421875,0.22253063321113586,0.977968692779541,-2.7070398330688477
1725630840133510100,0.60251025390625,0.19526812434196472,0.9044316411018372,-2.9176013469696045
1725630840143544300,0.61254443359375,0.2393578141927719,0.8178823590278625,-3.081007480621338
1725630840153578000,0.622577880859375,0.28600654006004333,0.5923091769218445,-3.1541378498077393
1725630840163613200,0.63261328125,0.3683527708053589,0.3637009561061859,-3.0929949283599854
1725630840173647000,0.642647216796875,0.29373791813850403,-0.04699923098087311,-3.0592381954193115
1725630840183681000,0.652680908203125,0.14343734085559845,-0.1404048353433609,-3.0901970863342285
1725630840193715200,0.662715087890625,0.030752865597605705,0.10330981761217117,-3.132930040359497
1725630840203750100,0.672750244140625,-0.12245149165391922,0.29715636372566223,-3.2074615955352783
1725630840213784300,0.682784423828125,-0.31261423230171204,0.28425708413124084,-3.243565559387207
1725630840223818000,0.69281787109375,-0.5537900328636169,0.4757000505924225,-3.2674403190612793
1725630840233852200,0.70285205078125,-0.7998131513595581,0.8608061671257019,-3.239177942276001
1725630840243887000,0.71288720703125,-0.9611594080924988,1.2392027378082275,-3.1567389965057373
1725630840253921000,0.722921142578125,-0.9983118176460266,1.5167102813720703,-3.064690351486206
1725630840263955200,0.732955078125,-0.9640538096427917,1.5132410526275635,-2.9168763160705566
1725630840273989000,0.742989013671875,-0.9875400066375732,1.476351022720337,-2.775216817855835
1725630840284024300,0.7530244140625,-0.9989190697669983,1.5549345016479492,-2.742694139480591
1725630840294058000,0.76305810546875,-0.8600224256515503,1.801975965499878,-2.808246374130249
1725630840304092200,0.773092041015625,-0.6205186247825623,2.4370815753936768,-2.9675025939941406
1725630840314126000,0.7831259765625,-0.294400155544281,2.817631483078003,-3.1831679344177246
1725630840324161000,0.7931611328125,0.022973177954554558,2.9257099628448486,-3.317310333251953
1725630840334195200,0.8031953125,0.24909286201000214,2.671757459640503,-3.32144832611084
1725630840344229000,0.81322900390625,0.3737833499908447,2.1273951530456543,-3.213114023208618
1725630840354263000,0.823262939453125,0.4010200500488281,1.58262038230896,-2.965365409851074
1725630840364298000,0.833298095703125,0.5027010440826416,0.8377811908721924,-2.62508487701416
1725630840374332200,0.843332275390625,0.8858324289321899,0.16955682635307312,-2.401912212371826
1725630840384366000,0.853365966796875,1.3707224130630493,-0.12031200528144836,-2.4766712188720703
1725630840394400000,0.86339990234375,1.8496408462524414,-0.32636183500289917,-2.649522542953491
1725630840404435200,0.873435302734375,2.2730987071990967,-0.533637523651123,-2.857086181640625
1725630840414469000,0.88346923828125,2.5238280296325684,-0.498449444770813,-3.040024757385254
1725630840424503000,0.8935029296875,2.6115305423736572,-0.30320948362350464,-3.1809744834899902
1725630840434537200,0.903537109375,2.625460147857666,0.03684929385781288,-3.406038761138916
1725630840444572200,0.913572265625,2.7444076538085938,0.31236252188682556,-3.648015022277832
1725630840454606000,0.923606201171875,2.8765430450439453,0.45446744561195374,-3.6708056926727295
1725630840464640300,0.93364013671875,2.9307875633239746,0.568523108959198,-3.4424357414245605
1725630840474674200,0.943674072265625,2.8752059936523438,0.5758313536643982,-3.1205601692199707
1725630840484709000,0.953709228515625,2.5318922996520996,0.9911279678344727,-2.161259651184082
1725630840494743000,0.963742919921875,1.97056245803833,1.6285425424575806,-1.1353956460952759
1725630840504777200,0.973777099609375,1.393210768699646,2.160696268081665,-0.5827100872993469
1725630840514812200,0.983812255859375,0.8948432207107544,2.752624034881592,-0.20185650885105133
1725630840524846000,0.99384619140625,0.37879708409309387,2.983935594558716,-0.08000185340642929
1725630840534880300,1.00388037109375,0.03609007969498634,3.037108898162842,-0.19540327787399292
1725630840544914000,1.013913818359375,-0.03848697990179062,3.177804470062256,-0.34812304377555847
1725630840554949000,1.02394921875,0.059979405254125595,3.2565858364105225,-0.4846111238002777
1725630840564983000,1.033983154296875,0.27013590931892395,3.185685634613037,-0.6357916593551636
1725630840575017200,1.044017333984375,0.4492571949958801,2.9182729721069336,-0.7741186022758484
1725630840585051100,1.054051025390625,0.5590919256210327,2.5454189777374268,-0.8823652863502502
1725630840595086000,1.064086181640625,0.5912887454032898,2.0680196285247803,-0.8867025375366211
1725630840605120300,1.074120361328125,0.6149114370346069,1.3426746129989624,-0.6558138728141785
1725630840615154000,1.08415380859375,0.7789965271949768,0.3154890239238739,-0.33880555629730225
1725630840625188000,1.09418798828125,0.9816123843193054,-0.7902989387512207,-0.03421575948596001
1725630840635223000,1.10422314453125,1.082135796546936,-1.5762025117874146,0.22055713832378387
1725630840645257200,1.11425732421875,1.0643752813339233,-1.9379112720489502,0.423366516828537
1725630840655291100,1.124291015625,0.9068904519081116,-1.9729009866714478,0.5521699786186218
1725630840665325000,1.134324951171875,0.6543915867805481,-1.8072882890701294,0.5725027322769165
1725630840675360300,1.1443603515625,0.38009077310562134,-1.418269157409668,0.5055361986160278
1725630840685394200,1.154394287109375,0.09169451147317886,-0.7984274625778198,0.43567773699760437
1725630840695428000,1.164427978515625,-0.07716028392314911,-0.08923060446977615,0.38006481528282166
1725630840705462300,1.174462158203125,-0.1704026162624359,0.5585651993751526,0.17025505006313324
1725630840715497000,1.1844970703125,-0.1351996213197708,1.1381067037582397,-0.30891045928001404
1725630840725531100,1.19453125,0.17153331637382507,0.8610727787017822,-0.4995433986186981
1725630840735565300,1.2045654296875,0.3599061667919159,-0.08045504987239838,-0.5241496562957764
1725630840745599000,1.214598876953125,0.40890011191368103,-0.9323285818099976,-0.5745546221733093
1725630840755634200,1.22463427734375,0.42449480295181274,-1.948542833328247,-0.10536099970340729
1725630840765668000,1.234668212890625,0.03863127529621124,-2.17488694190979,-0.6847605109214783
1725630840775702300,1.244702392578125,-0.5197334885597229,-2.203488826751709,-1.0477951765060425
1725630840785736200,1.254736083984375,-0.5670666694641113,-1.5663838386535645,-1.2472565174102783
1725630840795771100,1.264771240234375,-0.4103958010673523,-0.7634918689727783,-1.3370004892349243
1725630840805805300,1.274805419921875,-0.24586661159992218,-0.3618638515472412,-1.2464213371276855
1725630840815839000,1.2848388671875,-0.2848164141178131,-0.34300893545150757,-0.9388129115104675
1725630840825873200,1.294873046875,-1.1528174877166748,-0.08610036224126816,-0.5603503584861755
1725630840835908000,1.304908203125,-1.972981572151184,0.17983996868133545,-0.3399157226085663
1725630840845942000,1.31494189453125,-2.279231071472168,0.666404664516449,-0.5534250736236572
1725630840855976200,1.32497607421875,-2.2565572261810303,0.6414159536361694,-0.7392375469207764
1725630840866010000,1.335010009765625,-1.9788284301757812,0.49945297837257385,-0.5398744344711304
1725630840876045300,1.34504541015625,-1.7353435754776,0.10764206945896149,-0.31574419140815735
1725630840886079000,1.355078857421875,-1.4941768646240234,-0.4812038838863373,-0.1155085414648056
1725630840896113200,1.365113037109375,-1.1494075059890747,-1.1149648427963257,0.005492719821631908
1725630840906147000,1.37514697265625,-0.746627151966095,-1.4749778509140015,0.12130313366651535
1725630840916182000,1.38518212890625,-0.3579142987728119,-1.4667835235595703,0.22627297043800354
1725630840926216200,1.39521630859375,-0.11914612352848053,-1.1612217426300049,0.23019813001155853
1725630840936250000,1.40525,0.017502538859844208,-0.7372855544090271,0.14806437492370605
1725630840946284000,1.415283935546875,0.09397103637456894,-0.4062769412994385,0.02106393128633499
1725630840956319000,1.425319091796875,0.18389452993869781,-0.42094165086746216,-0.07319998741149902
1725630840966353200,1.435353271484375,0.30309903621673584,-0.8031933307647705,-0.01595701277256012
1725630840976387000,1.445386962890625,0.45215561985969543,-1.2288410663604736,0.2896609604358673
1725630840986422000,1.455422119140625,0.5004269480705261,-1.3389664888381958,0.7389850616455078
1725630840996456200,1.465456298828125,0.4124116003513336,-0.9492067694664001,1.0554083585739136
1725630841006490000,1.475489990234375,0.08659283071756363,-0.5004283785820007,1.169434905052185
1725630841016524000,1.48552392578125,-0.44493523240089417,-0.11729272454977036,1.081193208694458
1725630841026559200,1.495559326171875,-0.985388994216919,0.13099846243858337,0.9572335481643677
1725630841036593200,1.50559326171875,-1.5070452690124512,0.34762290120124817,0.9568761587142944
1725630841046627000,1.515626953125,-1.9646687507629395,0.6115367412567139,1.041926383972168
1725630841056661200,1.5256611328125,-2.4756743907928467,0.6270843148231506,1.1439461708068848
1725630841066696200,1.5356962890625,-2.92520809173584,0.5339636206626892,1.1242828369140625
1725630841076730000,1.545730224609375,-3.0055649280548096,0.8584175705909729,0.854736864566803
1725630841086764000,1.555763916015625,-2.8300235271453857,1.7292976379394531,0.31835514307022095
1725630841096798200,1.565798095703125,-2.598029613494873,2.285301685333252,-0.06808656454086304
1725630841106833200,1.575833251953125,-2.2682576179504395,2.53674054145813,-0.2553459107875824
1725630841116867000,1.5858671875,-1.9969807863235474,2.5796895027160645,-0.3786627948284149
1725630841126901200,1.5959013671875,-1.5938773155212402,2.494251012802124,-0.4581542909145355
1725630841136935000,1.605934814453125,-1.2816766500473022,2.2840678691864014,-0.430770605802536
1725630841146970000,1.61597021484375,-1.2016899585723877,2.1095728874206543,-0.14618223905563354
1725630841157004000,1.626004150390625,-1.1810534000396729,1.891785740852356,0.25244903564453125
1725630841167038000,1.636037841796875,-1.112318515777588,1.6689385175704956,0.6712934374809265
1725630841177072000,1.646072021484375,-1.021753191947937,1.3842759132385254,1.0267599821090698
1725630841187107000,1.656107177734375,-0.9646563529968262,1.225562572479248,1.173855185508728
1725630841197141000,1.66614111328125,-0.8654085993766785,1.0709065198898315,1.0731887817382812
1725630841207175000,1.6761748046875,-0.7016403675079346,0.91478431224823,0.9056159257888794
1725630841217209000,1.686208984375,-0.4081754982471466,0.8525854349136353,0.7362775206565857
1725630841227244000,1.696244140625,-0.06564820557832718,0.757268488407135,0.5911878943443298
1725630841237278000,1.70627783203125,0.1971631795167923,0.675964891910553,0.5301586389541626
1725630841247312100,1.71631201171875,0.40993475914001465,0.6091567277908325,0.5592127442359924
1725630841257346000,1.726345947265625,0.6551860570907593,0.5978665351867676,0.6381152868270874
1725630841267381000,1.736381103515625,0.9071592092514038,0.726044237613678,0.7770976424217224
1725630841277415000,1.746414794921875,1.0255253314971924,0.7965189814567566,0.9649437069892883
1725630841287449000,1.756448974609375,1.0098960399627686,0.679985761642456,1.1965043544769287
1725630841297483000,1.76648291015625,0.9363595247268677,0.6172360777854919,1.4641987085342407
1725630841307518000,1.77651806640625,0.9417534470558167,0.7667334079742432,1.6350442171096802
1725630841317552000,1.78655224609375,1.246437430381775,0.651016116142273,1.9095336198806763
1725630841327586000,1.7965859375,1.3250209093093872,-0.25316938757896423,2.191796064376831
1725630841337620000,1.806619873046875,1.2738333940505981,-0.4814574122428894,2.095832586288452
1725630841347655200,1.8166552734375,1.1415706872940063,0.12174233049154282,1.6960631608963013
1725630841357689000,1.826689208984375,1.0496373176574707,0.5595622658729553,1.2389776706695557
1725630841367723000,1.836722900390625,0.9334465265274048,0.7978721261024475,0.9225828647613525
1725630841377757200,1.846757080078125,0.748505711555481,0.9778885245323181,0.6665036678314209
1725630841387792100,1.856792236328125,0.6462509632110596,1.447060227394104,0.6809574365615845
1725630841397826000,1.866825927734375,0.6533299088478088,1.8404549360275269,0.8764294385910034
1725630841407860000,1.87685986328125,0.7114128470420837,1.2697460651397705,0.6974003911018372
1725630841417894100,1.88689404296875,0.9881022572517395,0.3162601590156555,0.4264077842235565
1725630841427928800,1.8969287109375,0.8837147951126099,-0.09045038372278214,0.4133650064468384
1725630841437963000,1.906962890625,0.3763967454433441,-0.10926162451505661,0.49975743889808655
1725630841447997200,1.9169970703125,0.06031852588057518,0.06409536302089691,0.6666780710220337
1725630841458030800,1.92703076171875,-0.24463577568531036,0.17978015542030334,0.11930634826421738
1725630841468066000,1.937066162109375,-0.26523247361183167,0.5930957794189453,-0.3382784128189087
1725630841478100000,1.947099853515625,0.054461926221847534,0.5186857581138611,-0.17180554568767548
1725630841488134100,1.957134033203125,0.4551618695259094,0.1353481113910675,-0.021394429728388786
1725630841498168800,1.9671689453125,0.8113415241241455,-0.019680609926581383,0.08974248170852661
1725630841508203000,1.977203125,1.0457617044448853,-0.3859812021255493,-0.0266756322234869
1725630841518237200,1.9872373046875,1.0445460081100464,-0.8874754905700684,-0.6757228970527649
1725630841528270800,1.997270751953125,0.6422410607337952,-1.3597357273101807,-1.1811792850494385
1725630841538306000,2.00730615234375,0.6241108179092407,-1.7078458070755005,-1.4958115816116333
1725630841548340000,2.017340087890625,0.5619344115257263,-1.9514567852020264,-1.5902059078216553
1725630841558374000,2.027373779296875,0.4039548635482788,-2.411989212036133,-1.5801430940628052
1725630841568408000,2.037407958984375,0.4676036536693573,-3.0031871795654297,-1.6722040176391602
1725630841578443000,2.047443115234375,0.8942718505859375,-3.4150609970092773,-1.8426845073699951
1725630841588477200,2.057477294921875,1.0887893438339233,-3.7883923053741455,-2.00461745262146
1725630841598511000,2.067510986328125,1.2385343313217163,-4.028789043426514,-2.2709271907806396
1725630841608545000,2.077544921875,1.6686623096466064,-4.195559024810791,-2.853073835372925
1725630841618580200,2.087580322265625,2.1960203647613525,-4.456415176391602,-3.608999252319336
1725630841628614000,2.09761376953125,2.6102797985076904,-4.848916053771973,-3.9966397285461426
1725630841638648000,2.10764794921875,2.6949355602264404,-5.689281940460205,-3.823028087615967
1725630841648682200,2.11768212890625,2.539508104324341,-6.0128021240234375,-3.6915664672851562
1725630841658717200,2.12771728515625,2.428925037384033,-4.218422889709473,-4.383541584014893
1725630841668751000,2.137751220703125,1.9902732372283936,-1.9473071098327637,-5.347711086273193
1725630841678785000,2.147784912109375,1.5558017492294312,-2.1943609714508057,-4.496866703033447
1725630841688819000,2.15781884765625,1.2981704473495483,-2.4838128089904785,-3.356511354446411
1725630841698854000,2.16785400390625,1.5713971853256226,-2.3755810260772705,-3.072547197341919
1725630841708888000,2.17788818359375,2.1276862621307373,-2.28143310546875,-2.9175055027008057
1725630841718922200,2.187922119140625,2.5779945850372314,-0.922031581401825,-2.7146155834198
1725630841728956000,2.197955810546875,2.46410870552063,1.272375464439392,-2.2131025791168213
1725630841738991000,2.2079912109375,2.1278488636016846,2.432417631149292,-1.2047306299209595
1725630841749025000,2.21802490234375,1.9512237310409546,2.0309391021728516,0.027839800342917442
1725630841759059000,2.228058837890625,1.9396620988845825,1.4901741743087769,0.9784303307533264
1725630841769093000,2.238093017578125,1.8907448053359985,1.3593684434890747,1.5114507675170898
1725630841779128000,2.248128173828125,1.6834542751312256,1.4300439357757568,1.571508765220642
1725630841789162000,2.258161865234375,1.458367943763733,1.5916705131530762,1.2844078540802002
1725630841799196000,2.26819580078125,1.6164158582687378,1.5399887561798096,0.9393570423126221
1725630841809230000,2.27822998046875,1.9358407258987427,0.7735607028007507,0.8525081276893616
1725630841819265000,2.28826513671875,2.100102424621582,-0.018253261223435402,0.7582796216011047
1725630841829299000,2.298298828125,2.1507437229156494,-0.7820917963981628,0.5391460061073303
1725630841839333000,2.3083330078125,1.7427573204040527,-0.9595555663108826,0.18389146029949188
1725630841849367000,2.318366943359375,0.998337984085083,-0.7980220317840576,-0.1331954300403595
1725630841859402000,2.328402099609375,0.41243618726730347,-0.8935447931289673,-0.3010512590408325
1725630841869436000,2.338435791015625,0.08524040877819061,-0.8927525877952576,-0.31279444694519043
1725630841879470000,2.348469970703125,-0.1478133499622345,-0.8390400409698486,-0.10484709590673447
1725630841889504000,2.35850390625,-0.220902219414711,-1.0632833242416382,0.2226165533065796
1725630841899539000,2.3685390625,-0.0516388826072216,-1.2633320093154907,0.599226713180542
1725630841909573000,2.378572998046875,0.22426028549671173,-1.253268837928772,0.9270961880683899
1725630841919607000,2.38860693359375,0.3127051889896393,-1.1359623670578003,1.061144471168518
1725630841929642000,2.39864208984375,0.3362294137477875,-0.8407679796218872,1.1108697652816772
1725630841939676200,2.40867626953125,0.1791449934244156,-0.7595003247261047,0.9120520353317261
1725630841949710000,2.4187099609375,0.14438627660274506,-0.6828765869140625,0.5180827975273132
1725630841959744000,2.428743896484375,0.27992281317710876,-0.7326291799545288,0.24889498949050903
1725630841969779000,2.438779052734375,0.4265061020851135,-0.8798162937164307,0.2012321799993515
1725630841979813000,2.448813232421875,0.49539223313331604,-1.0895264148712158,0.16984443366527557
1725630841989847000,2.458846923828125,0.5415714979171753,-1.2229660749435425,0.10201388597488403
1725630841999881000,2.468880859375,0.6091409921646118,-1.1730860471725464,0.059951119124889374
1725630842009916200,2.478916259765625,0.8853275179862976,-1.0001111030578613,0.026303695514798164
1725630842019950000,2.4889501953125,1.0780181884765625,-1.074695348739624,0.08288335800170898
1725630842029984000,2.49898388671875,1.1127734184265137,-1.236699104309082,0.12830446660518646
1725630842040018200,2.50901806640625,1.0406196117401123,-1.470712423324585,0.13531257212162018
1725630842050053000,2.51905322265625,0.921654224395752,-1.7093570232391357,0.1072019562125206
1725630842060087000,2.529087158203125,0.7843797206878662,-1.8810834884643555,0.07841052114963531
1725630842070121000,2.539120849609375,0.6420857310295105,-2.0152950286865234,0.06545550376176834
1725630842080155100,2.549155029296875,0.5016838312149048,-2.0643765926361084,0.06470396369695663
1725630842090189800,2.55918994140625,0.42326322197914124,-1.7840299606323242,-0.025111794471740723
1725630842100224000,2.56922412109375,0.37274545431137085,-1.3475128412246704,-0.23639607429504395
1725630842110258700,2.5792587890625,0.27105504274368286,-0.7903151512145996,-0.48335471749305725
1725630842120292400,2.589292236328125,0.15497823059558868,-0.18036389350891113,-0.6573177576065063
1725630842130327600,2.59932763671875,0.06005585193634033,0.48484140634536743,-0.8215398192405701
1725630842140361500,2.609361572265625,-0.011313136667013168,0.9910319447517395,-0.9960301518440247
1725630842150395600,2.619395751953125,-0.03706265985965729,1.3413060903549194,-1.1270407438278198
1725630842160429600,2.6294296875,-0.05819511041045189,1.3236080408096313,-1.1607991456985474
1725630842170464500,2.639464599609375,-0.10481297969818115,0.9318782687187195,-1.0986132621765137
1725630842180498700,2.649498779296875,-0.1455303132534027,0.40145015716552734,-0.8827963471412659
1725630842190532400,2.659532470703125,-0.17066507041454315,-0.024039210751652718,-0.5464080572128296
1725630842200566500,2.66956640625,-0.14157375693321228,-0.3471246063709259,-0.18500512838363647
1725630842210601500,2.6796015625,-0.08489982038736343,-0.4257727861404419,0.11279776692390442
1725630842220635600,2.6896357421875,-0.03413917496800423,-0.19311077892780304,0.3261987566947937
1725630842230669600,2.699669677734375,-0.035499732941389084,0.11405877768993378,0.42775413393974304
1725630842240704500,2.70970458984375,-0.11689472198486328,0.3770235776901245,0.4272177815437317
1725630842250738700,2.71973876953125,-0.16817420721054077,0.7323150038719177,0.3655185103416443
1725630842260772400,2.7297724609375,-0.18591885268688202,1.1260987520217896,0.2520747780799866
1725630842270806500,2.739806640625,-0.19889028370380402,1.4266234636306763,0.11236156523227692
1725630842280841500,2.749841552734375,-0.21012084186077118,1.6204822063446045,-0.0061831846833229065
1725630842290875400,2.75987548828125,-0.21523591876029968,1.730851650238037,-0.09222518652677536
1725630842300909600,2.76990966796875,-0.1978529393672943,1.7379692792892456,-0.13068976998329163
1725630842310943500,2.779943603515625,-0.17221029102802277,1.6543527841567993,-0.13259033858776093
1725630842320978700,2.789978759765625,-0.1610812097787857,1.462071180343628,-0.10374298691749573
1725630842331012600,2.8000126953125,-0.15673945844173431,1.2530615329742432,-0.0555885024368763
1725630842341046500,2.810046630859375,-0.17644710838794708,1.002175211906433,-0.018031805753707886
1725630842351080400,2.82008056640625,-0.1973324716091156,0.7890703678131104,-0.020298324525356293
1725630842361115400,2.830115478515625,-0.2017192244529724,0.6705037951469421,-0.037525247782468796
1725630842371149600,2.840149658203125,-0.19756309688091278,0.6189880967140198,-0.0604071319103241
1725630842381183700,2.850183837890625,-0.16257289052009583,0.7103492021560669,-0.07440177351236343
1725630842391217400,2.860217529296875,-0.1303911954164505,0.8911384344100952,-0.0851258635520935
1725630842401252600,2.870252685546875,-0.10208471119403839,1.1866670846939087,-0.0805705264210701
1725630842411286500,2.88028662109375,-0.14274829626083374,1.5059806108474731,-0.073115773499012
1725630842421320400,2.890320556640625,-0.19983553886413574,1.758941411972046,-0.06529992818832397
1725630842431354600,2.900354736328125,-0.21471631526947021,2.023895502090454,-0.05103971064090729
1725630842441389600,2.9103896484375,-0.2210160195827484,2.264819383621216,-0.04158415645360947
1725630842451423700,2.920423828125,-0.19187726080417633,2.5127108097076416,-0.04758478328585625
1725630842461457400,2.93045751953125,-0.16102880239486694,2.6858551502227783,-0.09235358238220215
1725630842471491600,2.94049169921875,-0.14046965539455414,2.8033413887023926,-0.15157891809940338
1725630842481526500,2.950526611328125,-0.11710893362760544,2.973172426223755,-0.1993112862110138
1725630842491560400,2.960560546875,-0.11005795001983643,3.296119213104248,-0.22320756316184998
1725630842501594600,2.9705947265625,-0.16277442872524261,3.6337039470672607,-0.2332940250635147
1725630842511628500,2.980628662109375,-0.23048435151576996,4.029118537902832,-0.21722787618637085
1725630842521663500,2.99066357421875,-0.2953789532184601,4.473379611968994,-0.20162734389305115
1725630842531697400,3.000697509765625,-0.36152443289756775,4.917081356048584,-0.2566159665584564
1725630842541731600,3.010731689453125,-0.48239466547966003,5.260956764221191,-0.36828258633613586
1725630842551766500,3.0207666015625,-0.8422360420227051,5.302188873291016,-0.5730363726615906
1725630842561800400,3.030800537109375,-1.2342723608016968,4.88829231262207,-0.7253937125205994
1725630842571834600,3.040834716796875,-1.6685723066329956,3.344890832901001,-0.8011450171470642
1725630842581868500,3.05086865234375,-1.843681812286377,1.874988079071045,-0.360461950302124
1725630842591903500,3.060903564453125,-1.8276755809783936,1.2175432443618774,0.47000837326049805
1725630842601937400,3.0709375,-1.5352879762649536,0.8577027916908264,0.9263274669647217
1725630842611971600,3.0809716796875,-1.0589876174926758,0.7040449976921082,1.0275715589523315
1725630842622005500,3.091005615234375,-0.7112541198730469,0.6260292530059814,0.9805501103401184
1725630842632040400,3.10104052734375,-0.5406910181045532,0.4440990388393402,0.8510904312133789
1725630842642074600,3.11107470703125,-0.42769840359687805,0.18194304406642914,0.6730448007583618
1725630842652108500,3.121108642578125,-0.36070483922958374,0.01265641674399376,0.5349392890930176
1725630842662142500,3.131142578125,-0.3316974341869354,-0.1450573056936264,0.43144962191581726
1725630842672177700,3.141177734375,-0.283221572637558,-0.2429455816745758,0.3727152645587921
1725630842682211600,3.151211669921875,-0.2417723685503006,-0.2605256140232086,0.3698779344558716
1725630842692245500,3.16124560546875,-0.23588907718658447,-0.15487073361873627,0.3932545483112335
1725630842702279700,3.17127978515625,-0.2763954997062683,0.024010058492422104,0.40157079696655273
1725630842712314600,3.181314697265625,-0.3734811842441559,0.11760404706001282,0.3471023440361023
1725630842722348500,3.1913486328125,-0.45136240124702454,0.14656274020671844,0.2339310646057129
1725630842732382500,3.201382568359375,-0.4901231825351715,0.19302310049533844,0.1256784051656723
1725630842742416600,3.211416748046875,-0.42381155490875244,0.3412538468837738,0.07335076481103897
1725630842752451300,3.221451416015625,-0.32434558868408203,0.39203134179115295,0.03720758855342865
1725630842762485500,3.231485595703125,-0.2811294198036194,0.20535549521446228,-0.04416849464178085
1725630842772519700,3.241519775390625,-0.2292490303516388,-0.06373605877161026,-0.14589494466781616
1725630842782553300,3.25155322265625,-0.10058053582906723,-0.17445671558380127,-0.17372764647006989
1725630842792588500,3.261588623046875,0.08408260345458984,-0.21477021276950836,-0.1460508406162262
1725630842802622500,3.27162255859375,0.242660254240036,-0.26518064737319946,-0.19895747303962708
1725630842812656600,3.28165673828125,0.3748180866241455,-0.25742974877357483,-0.3695095479488373
1725630842822691300,3.29169140625,0.4978491961956024,-0.15252754092216492,-0.49792397022247314
1725630842832725500,3.3017255859375,0.5592780709266663,-0.08415234833955765,-0.5461145639419556
1725630842842759700,3.311759765625,0.5953626036643982,-0.051927562803030014,-0.6197032928466797
1725630842852793300,3.32179345703125,0.6683987975120544,-0.10190652310848236,-0.7508184909820557
1725630842862828500,3.33182861328125,0.8037316203117371,-0.23979727923870087,-0.9155222177505493
1725630842872862500,3.341862548828125,0.9688940048217773,-0.32753315567970276,-1.0585113763809204
1725630842882896400,3.351896484375,1.0579549074172974,-0.2668114900588989,-1.1267218589782715
1725630842892930600,3.3619306640625,1.097496747970581,-0.12037763744592667,-1.1121021509170532
1725630842902965500,3.371965576171875,1.134270429611206,0.06372907757759094,-0.974185585975647
1725630842912999700,3.381999755859375,1.1994885206222534,0.2528548240661621,-0.7067328691482544
1725630842923033600,3.39203369140625,1.1591283082962036,0.485012412071228,-0.4243065118789673
1725630842933067500,3.402067626953125,0.9833794832229614,0.6959137916564941,-0.20728552341461182
1725630842943102700,3.412102783203125,0.7232286334037781,0.7360657453536987,-0.05687418952584267
1725630842953136400,3.422136474609375,0.45852914452552795,0.6286344528198242,-0.003029975574463606
1725630842963170600,3.432170654296875,0.1951582133769989,0.40475741028785706,-0.05438317731022835
1725630842973204700,3.442204833984375,-0.03505943715572357,0.10429145395755768,-0.16575725376605988
1725630842983239700,3.45223974609375,-0.20499494671821594,-0.14283576607704163,-0.28251180052757263
1725630842993273600,3.462273681640625,-0.31330448389053345,-0.4186403453350067,-0.29574334621429443
1725630843003307500,3.4723076171875,-0.2798573076725006,-0.758319079875946,-0.18394383788108826
1725630843013341400,3.482341552734375,-0.12786202132701874,-1.0942192077636719,-0.023543396964669228
1725630843023376400,3.49237646484375,0.06591623276472092,-1.1617218255996704,0.10901197791099548
1725630843033410600,3.50241064453125,0.2537304759025574,-1.0154240131378174,0.20998798310756683
1725630843043444700,3.51244482421875,0.43038061261177063,-0.8020856976509094,0.30726367235183716
1725630843053479400,3.5224794921875,0.5734681487083435,-0.5824388861656189,0.37514132261276245
1725630843063513600,3.532513671875,0.6558040380477905,-0.30683284997940063,0.3869873285293579
1725630843073547500,3.542547607421875,0.6423725485801697,0.036658599972724915,0.3494989275932312
1725630843083581400,3.55258154296875,0.58802729845047,0.31258365511894226,0.29327934980392456
1725630843093616400,3.562616455078125,0.5156627297401428,0.4335012137889862,0.22007551789283752
1725630843103650600,3.572650634765625,0.4030400514602661,0.5032147765159607,0.1079002395272255
1725630843113684700,3.582684814453125,0.31365764141082764,0.440369188785553,-0.01137766893953085
1725630843123718700,3.59271875,0.25418898463249207,0.21814145147800446,-0.08934278041124344
1725630843133753900,3.60275390625,0.18757988512516022,0.06111959367990494,-0.13918857276439667
1725630843143787800,3.612787841796875,0.06135723367333412,0.060553669929504395,-0.1876296103000641
1725630843153821700,3.62282177734375,-0.06491701304912567,0.03754536062479019,-0.2107563018798828
1725630843163856000,3.63285595703125,-0.12925738096237183,-0.076869897544384,-0.18607066571712494
1725630843173890800,3.642890869140625,-0.14035241305828094,-0.18766169250011444,-0.1304398626089096
1725630843183924700,3.6529248046875,-0.14142459630966187,-0.15883004665374756,-0.0836060419678688
1725630843193958700,3.662958740234375,-0.1457739621400833,-0.022861968725919724,-0.03514384105801582
1725630843203992800,3.672992919921875,-0.1560220718383789,0.11899689584970474,0.020582005381584167
1725630843214027500,3.683027587890625,-0.16164182126522064,0.21272720396518707,0.056963641196489334
1725630843224061700,3.693061767578125,-0.1499215066432953,0.23117651045322418,0.04718504473567009
1725630843234095900,3.703095947265625,-0.10156048089265823,0.10320721566677094,0.050465427339076996
1725630843244129500,3.713129638671875,-0.06412389129400253,-0.016804145649075508,0.022398902103304863
1725630843254164700,3.723164794921875,-0.05220508202910423,0.027697382494807243,-0.09018101543188095
1725630843264198700,3.73319873046875,-0.06236690655350685,-0.00178887031506747,-0.17219598591327667
1725630843274232600,3.743232666015625,-0.05750482529401779,-0.14399583637714386,-0.18507155776023865
1725630843284267800,3.753267822265625,-0.033446893095970154,-0.19530616700649261,-0.20458747446537018
1725630843294301700,3.7633017578125,-0.030256330966949463,-0.14389190077781677,-0.23530949652194977
1725630843304336000,3.7733359375,-0.04552369937300682,-0.09440450370311737,-0.25157076120376587
1725630843314369800,3.783369873046875,-0.060999296605587006,-0.05488315969705582,-0.24418506026268005
1725630843324404700,3.79340478515625,-0.03455330803990364,-0.014831346459686756,-0.209127739071846
1725630843334439000,3.80343896484375,0.023576997220516205,-0.02132718823850155,-0.12917418777942657
1725630843344472600,3.81347265625,0.08869101852178574,-0.07896651327610016,-0.0163006279617548
1725630843354506800,3.8235068359375,0.10685645043849945,-0.08170795440673828,0.058508604764938354
1725630843364541700,3.833541748046875,0.06243358924984932,-0.09652205556631088,0.10006590187549591
1725630843374575900,3.843575927734375,0.024340525269508362,-0.17238274216651917,0.14161336421966553
1725630843384609800,3.85360986328125,-0.05719428136944771,-0.21921683847904205,0.1383235603570938
1725630843394643700,3.863643798828125,-0.1514747589826584,-0.19698266685009003,0.05198923498392105
1725630843404679000,3.873678955078125,-0.19881990551948547,-0.2011995166540146,-0.04243367537856102
1725630843414712600,3.883712646484375,-0.19383911788463593,-0.16673624515533447,-0.10632939636707306
1725630843424746800,3.893746826171875,-0.18928778171539307,-0.0779872015118599,-0.13161823153495789
1725630843434781000,3.903781005859375,-0.18996374309062958,0.023102914914488792,-0.12893988192081451
1725630843444814600,3.913814697265625,-0.19078342616558075,0.07369901239871979,-0.10630518943071365
1725630843454849800,3.923849853515625,-0.15630774199962616,-0.004567026160657406,-0.026758959516882896
1725630843464883700,3.9338837890625,-0.10783768445253372,-0.10865749418735504,0.0715138390660286
1725630843474917600,3.943917724609375,-0.014523448422551155,-0.13243845105171204,0.14833538234233856
1725630843484951800,3.953951904296875,0.033564984798431396,-0.07011409848928452,0.1681186705827713
1725630843494986800,3.96398681640625,0.0860028937458992,-0.08212628215551376,0.17151446640491486
1725630843505021000,3.97402099609375,0.09326929599046707,-0.13394372165203094,0.1635681688785553
1725630843515054600,3.9840546875,0.1020185798406601,-0.1345629096031189,0.14485546946525574
1725630843525089800,3.99408984375,0.06639601290225983,-0.05883362144231796,0.0899323895573616
1725630843535123700,4.004123779296875,0.031050536781549454,-0.01603342592716217,0.051502179354429245
1725630843545157600,4.01415771484375,0.03825781121850014,-0.015292853116989136,0.060260843485593796
1725630843555191800,4.02419189453125,0.01781298778951168,0.02596084214746952,0.08973964303731918
1725630843565226800,4.034226806640625,-0.0116565627977252,0.19860363006591797,0.056100018322467804
1725630843575260700,4.0442607421875,-0.027826476842164993,0.3140511214733124,-0.0028700917027890682
1725630843585294800,4.054294921875,-0.017770202830433846,0.2724263668060303,-0.03433581069111824
1725630843595328800,4.064328857421875,-0.0147901251912117,0.173867866396904,-0.040189702063798904
1725630843605364000,4.074364013671875,-0.0341636948287487,0.20168042182922363,-0.08858584612607956
1725630843615397600,4.084397705078125,-0.08287716656923294,0.3274359703063965,-0.20249724388122559
1725630843625431800,4.094431884765625,-0.15145421028137207,0.39321377873420715,-0.3146260678768158
1725630843635466000,4.104466064453125,-0.25969332456588745,0.3289448022842407,-0.3193981945514679
1725630843645500700,4.114500732421875,-0.34311360120773315,0.1931939572095871,-0.21617117524147034
1725630843655534800,4.124534912109375,-0.37222594022750854,0.11324798315763474,-0.09528444707393646
1725630843665568800,4.13456884765625,-0.3672388195991516,0.1780499815940857,0.006344351917505264
1725630843675602700,4.144602783203125,-0.3127702474594116,0.3056776821613312,0.09891396760940552
1725630843685637600,4.1546376953125,-0.2434055209159851,0.22500714659690857,0.15784808993339539
1725630843695671800,4.164671875,-0.21625486016273499,0.19804716110229492,0.19883626699447632
1725630843705705700,4.174705810546875,-0.2906981408596039,0.32355934381484985,0.2125900536775589
1725630843715739600,4.18473974609375,-0.38358041644096375,0.47620055079460144,0.16008344292640686
1725630843725774800,4.19477490234375,-0.4122920632362366,0.455204576253891,0.04053191840648651
1725630843735808800,4.204808837890625,-0.39308348298072815,0.347910612821579,-0.11198385059833527
1725630843745842700,4.2148427734375,-0.35106509923934937,0.2135383039712906,-0.27406638860702515
1725630843755877600,4.224877685546875,-0.23079514503479004,0.10937647521495819,-0.40567848086357117
1725630843765911800,4.234911865234375,-0.02632015198469162,0.2668501138687134,-0.34726056456565857
1725630843775945700,4.24494580078125,0.10430630296468735,0.5840240716934204,-0.12798039615154266
1725630843785979600,4.254979736328125,0.12642209231853485,0.7575423717498779,0.08990657329559326
1725630843796014800,4.265014892578125,0.022365989163517952,0.7671798467636108,0.2828997075557709
1725630843806048500,4.275048583984375,-0.07913513481616974,0.5981521606445312,0.41911250352859497
1725630843816083700,4.285083740234375,-0.21275950968265533,0.3934011459350586,0.5196214914321899
1725630843826117600,4.29511767578125,-0.3295556306838989,0.21341566741466522,0.5756711959838867
1725630843836151800,4.30515185546875,-0.36301690340042114,0.1363493800163269,0.6212069988250732
1725630843846185700,4.315185791015625,-0.396820068359375,0.06857899576425552,0.5907924771308899
1725630843856220700,4.325220703125,-0.47310975193977356,-0.025357350707054138,0.4512295424938202
1725630843866254800,4.3352548828125,-0.5281018614768982,-0.04511452466249466,0.2586052119731903
1725630843876288800,4.345288818359375,-0.4891938865184784,0.11049824208021164,0.11564353108406067
1725630843886323700,4.35532373046875,-0.3937021791934967,0.4040076732635498,0.09092695266008377
1725630843896358000,4.36535791015625,-0.27331772446632385,0.5655659437179565,0.17792204022407532
1725630843906391800,4.375391845703125,-0.14393283426761627,0.557621419429779,0.2388080507516861
1725630843916425700,4.38542578125,0.01659238710999489,0.5425764322280884,0.17968082427978516
1725630843926460700,4.395460693359375,0.21114122867584229,0.57163405418396,0.16177783906459808
1725630843936494800,4.405494873046875,0.338182270526886,0.48644381761550903,0.20938396453857422
1725630843946528800,4.41552880859375,0.4139672815799713,0.29294463992118835,0.14335089921951294
1725630843956562700,4.425562744140625,0.47117918729782104,0.06299266964197159,0.06541509181261063
1725630843966598000,4.435597900390625,0.5087368488311768,-0.10212372988462448,0.11942680180072784
1725630843976631600,4.445631591796875,0.448776513338089,-0.16875842213630676,0.1731845885515213
1725630843986665700,4.455665771484375,0.3444336950778961,-0.2196553498506546,0.1661074310541153
1725630843996700700,4.46570068359375,0.31476500630378723,-0.22891756892204285,0.17222896218299866
1725630844006734800,4.47573486328125,0.3379336893558502,-0.20439597964286804,0.20138099789619446
1725630844016768800,4.485768798828125,0.40343520045280457,-0.1252465695142746,0.25448310375213623
1725630844026802700,4.495802734375,0.49510565400123596,-0.1407100111246109,0.2725391387939453
1725630844036838000,4.505837890625,0.5833889245986938,-0.18957901000976562,0.25749093294143677
1725630844046871600,4.51587158203125,0.6342098712921143,-0.13727150857448578,0.24546854197978973
1725630844056905700,4.52590576171875,0.6263591647148132,-0.08393850922584534,0.22930635511875153
1725630844066940000,4.53593994140625,0.6041734218597412,-0.13150596618652344,0.1898462325334549
1725630844076974600,4.545974609375,0.5215938687324524,-0.13610738515853882,0.14534561336040497
1725630844087008800,4.5560087890625,0.4043191075325012,0.008888877928256989,0.15354420244693756
1725630844097042700,4.566042724609375,0.31961408257484436,0.12108838558197021,0.22293740510940552
1725630844107076600,4.57607666015625,0.2713856101036072,0.16183531284332275,0.2844089865684509
1725630844117111300,4.586111328125,0.23846228420734406,0.13383883237838745,0.2990894019603729
1725630844127145000,4.59614501953125,0.23801343142986298,0.08330924808979034,0.29534217715263367
1725630844137179100,4.60617919921875,0.31006258726119995,0.015115012414753437,0.3094630539417267
1725630844147213300,4.61621337890625,0.431792676448822,-0.09054382890462875,0.32889115810394287
1725630844157248000,4.626248046875,0.47331324219703674,-0.08630833774805069,0.3325479030609131
1725630844167282200,4.6362822265625,0.39998626708984375,0.018347730860114098,0.3229754865169525
1725630844177316000,4.646316162109375,0.2935224175453186,0.16568951308727264,0.3890993893146515
1725630844187351300,4.656351318359375,0.23362211883068085,0.3420744836330414,0.5603756904602051
1725630844197385000,4.666385009765625,0.1937500685453415,0.5740355253219604,0.7684814929962158
1725630844207419100,4.676419189453125,0.14562185108661652,0.6211272478103638,0.880133330821991
1725630844217453000,4.686453125,0.10685287415981293,0.5446639060974121,0.8345272541046143
1725630844227488000,4.696488037109375,0.10128727555274963,0.3702198565006256,0.7354984879493713
1725630844237522200,4.706522216796875,0.1793740838766098,0.12407585233449936,0.6379882097244263
1725630844247556000,4.71655615234375,0.2960268259048462,-0.07331322878599167,0.5867863893508911
1725630844257590000,4.726590087890625,0.38220271468162537,-0.15576469898223877,0.5757419466972351
1725630844267625200,4.736625244140625,0.40462252497673035,-0.09429440647363663,0.5788663625717163
1725630844277659100,4.7466591796875,0.3799094557762146,0.06981836259365082,0.5699493288993835
1725630844287693000,4.756693115234375,0.3235012888908386,0.22554346919059753,0.5466049313545227
1725630844297727200,4.766727294921875,0.2696457803249359,0.3403047025203705,0.5004789233207703
1725630844307762200,4.77676220703125,0.22757340967655182,0.4552623927593231,0.4515170156955719
1725630844317796400,4.78679638671875,0.22050565481185913,0.53113853931427,0.4118273854255676
1725630844327830000,4.796830078125,0.24652253091335297,0.5519974231719971,0.3525282144546509
1725630844337865200,4.806865234375,0.23858018219470978,0.6438892483711243,0.30970299243927
1725630844347899100,4.816899169921875,0.29150962829589844,0.7978914976119995,0.29096055030822754
1725630844357933000,4.82693310546875,0.48976439237594604,0.8916419744491577,0.35210591554641724
1725630844367967200,4.83696728515625,0.7271644473075867,0.9589834809303284,0.46125978231430054
1725630844378002200,4.847002197265625,0.7452904582023621,1.1788386106491089,0.5074205994606018
1725630844388036000,4.8570361328125,0.5560020804405212,1.3086844682693481,0.5044282674789429
1725630844398070000,4.867070068359375,0.3557259440422058,1.2284364700317383,0.4812646508216858
1725630844408104200,4.877104248046875,0.20211495459079742,0.9316025972366333,0.4725983440876007
1725630844418139100,4.88713916015625,0.03654169291257858,0.6187266707420349,0.4349825084209442
1725630844428173000,4.897173095703125,-0.18316896259784698,0.40553975105285645,0.3321353495121002
1725630844438207200,4.907207275390625,-0.3151078224182129,0.21582598984241486,0.21395093202590942
1725630844448241200,4.9172412109375,-0.2954272925853729,0.048321451991796494,0.12988583743572235
1725630844458276000,4.927276123046875,-0.21406212449073792,-0.015479899011552334,0.1171063780784607
1725630844468310000,4.93731005859375,-0.1044686883687973,-0.028049111366271973,0.1672525256872177
1725630844478344200,4.94734423828125,0.09091838449239731,-0.09336286783218384,0.2545184791088104
1725630844488379000,4.95737890625,0.2806421220302582,-0.23220741748809814,0.3680102229118347
1725630844498413000,4.9674130859375,0.2822924852371216,-0.2746722996234894,0.40859735012054443
1725630844508447200,4.977447265625,0.21353821456432343,-0.29905807971954346,0.4221818447113037
1725630844518481000,4.98748095703125,0.2510027587413788,-0.3522360920906067,0.4756104648113251
1725630844528516000,4.99751611328125,0.20745991170406342,-0.24976202845573425,0.5027258396148682
1725630844538550000,5.007550048828125,0.030624158680438995,-0.0730740949511528,0.4662056565284729
1725630844548584200,5.017584228515625,-0.13058434426784515,0.019070036709308624,0.415935218334198
1725630844558618000,5.0276181640625,-0.22688451409339905,0.10201925039291382,0.39057257771492004
1725630844568653000,5.037653076171875,-0.2560366988182068,0.20724588632583618,0.4134586453437805
1725630844578687200,5.047687255859375,-0.20485633611679077,0.2763224244117737,0.48048481345176697
1725630844588721200,5.05772119140625,-0.13855484127998352,0.31243276596069336,0.5431881546974182
1725630844598755000,5.067755126953125,-0.17902690172195435,0.43359115719795227,0.5262531042098999
1725630844608790300,5.077790283203125,-0.13078860938549042,0.36803680658340454,0.5233244895935059
1725630844618824000,5.087823974609375,0.09624241292476654,0.16503576934337616,0.5731762051582336
1725630844628858000,5.097858154296875,0.278747022151947,0.017850361764431,0.63247150182724
1725630844638893000,5.10789306640625,0.29860541224479675,-0.04978913813829422,0.6087086200714111
1725630844648927200,5.11792724609375,0.2999752461910248,-0.21787013113498688,0.5603062510490417
1725630844658961200,5.127961181640625,0.3480519652366638,-0.4300428330898285,0.5507886409759521
1725630844668995000,5.1379951171875,0.3335835337638855,-0.5165566802024841,0.5521689653396606
1725630844679030300,5.1480302734375,0.22526957094669342,-0.5285744667053223,0.5537442564964294
1725630844689064000,5.15806396484375,0.1101217046380043,-0.5501545667648315,0.5578662753105164
1725630844699098000,5.16809814453125,0.037035781890153885,-0.5729504227638245,0.5778179168701172
1725630844709132300,5.17813232421875,-0.0868549644947052,-0.48998063802719116,0.5595645308494568
1725630844719167200,5.188167236328125,-0.19056963920593262,-0.4311058819293976,0.5239554047584534
1725630844729201200,5.198201171875,-0.18151400983333588,-0.4993783235549927,0.5165964365005493
1725630844739235000,5.208235107421875,-0.13453371822834015,-0.5213475823402405,0.5252477526664734
1725630844749269000,5.21826904296875,-0.15963025391101837,-0.4500555098056793,0.557279109954834
1725630844759304000,5.228303955078125,-0.22583352029323578,-0.37892860174179077,0.5443601608276367
1725630844769338000,5.238338134765625,-0.28164172172546387,-0.34242019057273865,0.5175004005432129
1725630844779372300,5.248372314453125,-0.32566481828689575,-0.3889751732349396,0.47704270482063293
1725630844789407000,5.258406982421875,-0.4091179072856903,-0.40306809544563293,0.38580015301704407
1725630844799441200,5.268441162109375,-0.5563313364982605,-0.12374378740787506,0.2232799381017685
1725630844809475000,5.27847509765625,-0.6673614382743835,0.4379108250141144,-0.013842133805155754
1725630844819509000,5.288509033203125,-0.7341689467430115,0.9178577065467834,-0.23247461020946503
1725630844829544200,5.298544189453125,-0.8020636439323425,1.1014143228530884,-0.28514382243156433
1725630844839578000,5.308578125,-0.876510739326477,0.7767103314399719,-0.11309348791837692
1725630844849612300,5.3186123046875,-0.9563403129577637,0.4352070093154907,0.1520143747329712
1725630844859646200,5.328646240234375,-0.9802443385124207,0.44481757283210754,0.3053799569606781
1725630844869681200,5.33868115234375,-0.9320529699325562,0.4288240671157837,0.30674928426742554
1725630844879715300,5.34871533203125,-0.8817866444587708,0.08972720801830292,0.25746533274650574
1725630844889749000,5.3587490234375,-0.8643825650215149,-0.34948205947875977,0.2507282793521881
1725630844899784200,5.3687841796875,-0.867813229560852,-0.6819047331809998,0.2663533091545105
1725630844909818000,5.378818115234375,-0.948453962802887,-0.8848543167114258,0.25997522473335266
1725630844919852000,5.38885205078125,-1.08235764503479,-0.9613927602767944,0.22399726510047913
1725630844929886200,5.39888623046875,-1.2123686075210571,-1.0153452157974243,0.05441482365131378
1725630844939921200,5.408921142578125,-1.3175128698349,-0.8129768371582031,-0.14186973869800568
1725630844949955300,5.418955322265625,-1.3162237405776978,-0.45435482263565063,-0.3441213071346283
1725630844959989000,5.428989013671875,-1.2967864274978638,-0.048921849578619,-0.48766517639160156
1725630844970023200,5.439023193359375,-1.261470079421997,0.23910818994045258,-0.5694735646247864
1725630844980058000,5.44905810546875,-1.231149673461914,0.6385184526443481,-0.4270347058773041
1725630844990092000,5.459092041015625,-0.9931578636169434,0.5769177079200745,-0.2787925899028778
1725630845000126200,5.469126220703125,-0.6471160054206848,0.4960434138774872,-0.21069850027561188
1725630845010160000,5.47916015625,-0.396755576133728,0.5046119689941406,-0.19446690380573273
1725630845020195000,5.489195068359375,-0.3149123787879944,0.6411035060882568,-0.22787466645240784
1725630845030229000,5.49922900390625,-0.33793169260025024,0.7698388695716858,-0.3008817434310913
1725630845040263200,5.50926318359375,-0.3656134009361267,0.878244161605835,-0.35798388719558716
1725630845050298000,5.519298095703125,-0.33101582527160645,0.9165037870407104,-0.3863706886768341
1725630845060332000,5.52933203125,-0.25819143652915955,0.8397919535636902,-0.34419286251068115
1725630845070366200,5.5393662109375,-0.19924354553222656,0.6457718014717102,-0.24774079024791718
1725630845080400100,5.549400146484375,-0.14538750052452087,0.31571850180625916,-0.21296922862529755
1725630845090435000,5.55943505859375,-0.08048885315656662,-0.06412356346845627,-0.24012954533100128
1725630845100469000,5.569468994140625,-0.03658424690365791,-0.43018412590026855,-0.2517593204975128
1725630845110502700,5.579502685546875,-0.03605300933122635,-0.7086282968521118,-0.2596946656703949
1725630845120536800,5.589536865234375,-0.02841692790389061,-0.9116954207420349,-0.29918667674064636
1725630845130571800,5.59957177734375,0.010714865289628506,-1.0185096263885498,-0.34303203225135803
1725630845140605700,5.609605712890625,0.035048969089984894,-0.9767888188362122,-0.3892911374568939
1725630845150639900,5.619639892578125,0.0429375097155571,-0.8224480152130127,-0.48253315687179565
1725630845160674800,5.6296748046875,0.04900951683521271,-0.5704037547111511,-0.6071755290031433
1725630845170708700,5.639708740234375,0.06028798222541809,-0.32343313097953796,-0.7433016896247864
1725630845180742700,5.64974267578125,0.08432567119598389,-0.13170602917671204,-0.8798083662986755
1725630845190776800,5.65977685546875,0.13976038992404938,-0.006375883240252733,-1.0144675970077515
1725630845200811800,5.669811767578125,0.22993609309196472,0.05486936494708061,-1.1395291090011597
1725630845210845700,5.679845703125,0.27334660291671753,0.07567387819290161,-1.2696051597595215
1725630845220880000,5.6898798828125,0.30771124362945557,0.07044875621795654,-1.4170732498168945
1725630845230913500,5.69991357421875,0.36383211612701416,0.1751297414302826,-1.5066969394683838
1725630845240948700,5.70994873046875,0.4138028621673584,0.3815460205078125,-1.5825453996658325
1725630845250982700,5.719982666015625,0.520136296749115,0.5516847372055054,-1.6963790655136108
1725630845261016800,5.730016845703125,0.6561607122421265,0.5440502762794495,-1.7901078462600708
1725630845271051500,5.740051513671875,0.8090552687644958,0.49277281761169434,-1.7756203413009644
1725630845281085700,5.750085693359375,0.9332647919654846,0.6371763348579407,-1.6553528308868408
1725630845291119900,5.760119873046875,1.024968147277832,0.9411820769309998,-1.5040555000305176
1725630845301153500,5.770153564453125,1.143937349319458,1.2126740217208862,-1.3835508823394775
1725630845311188700,5.780188720703125,1.2431306838989258,1.3864519596099854,-1.3064123392105103
1725630845321222700,5.79022265625,1.2049369812011719,1.6034015417099,-1.2305830717086792
1725630845331256600,5.800256591796875,0.9964673519134521,1.8517528772354126,-1.0901538133621216
1725630845341290800,5.810290771484375,0.751023530960083,1.8702101707458496,-0.9202885627746582
1725630845351325700,5.82032568359375,0.5297042727470398,1.6591668128967285,-0.7693745493888855
1725630845361360000,5.83035986328125,0.3789089322090149,1.3443270921707153,-0.652919590473175
1725630845371393800,5.840393798828125,0.3183593153953552,0.9809712171554565,-0.6026343703269958
1725630845381427700,5.850427734375,0.33629652857780457,0.6738080978393555,-0.661059558391571
1725630845391463000,5.860462890625,0.3727773427963257,0.4215090870857239,-0.7599872946739197
1725630845401496600,5.87049658203125,0.42696815729141235,0.2230258285999298,-0.8528469204902649
1725630845411530800,5.88053076171875,0.4830152988433838,0.054073408246040344,-0.9275567531585693
1725630845421565700,5.890565673828125,0.5444565415382385,-0.14630654454231262,-0.9738307595252991
1725630845431599900,5.900599853515625,0.576995313167572,-0.3332740366458893,-0.9944050312042236
1725630845441633800,5.9106337890625,0.5331916213035583,-0.41611140966415405,-0.9893620610237122
1725630845451667700,5.920667724609375,0.41049882769584656,-0.4086507260799408,-0.9741432070732117
1725630845461703000,5.930702880859375,0.24881194531917572,-0.30752676725387573,-0.908058226108551
1725630845471736600,5.940736572265625,0.06887919455766678,-0.12561769783496857,-0.8126035928726196
1725630845481770800,5.950770751953125,-0.07252294570207596,0.04136116802692413,-0.7352283596992493
1725630845491805000,5.960804931640625,-0.14114828407764435,0.22920650243759155,-0.714533805847168
1725630845501839600,5.970839599609375,-0.18632960319519043,0.38403046131134033,-0.7708479762077332
1725630845511873800,5.980873779296875,-0.16298642754554749,0.5317032933235168,-0.8624892234802246
1725630845521907700,5.99090771484375,-0.05613721162080765,0.7030255198478699,-0.9199926853179932
1725630845531943000,6.00094287109375,0.1223049908876419,0.8241112232208252,-0.938898503780365
1725630845541976600,6.0109765625,0.2908335328102112,0.889284610748291,-0.949804961681366
1725630845552010800,6.0210107421875,0.34644925594329834,0.8959934711456299,-0.9605898261070251
1725630845562045000,6.031044921875,0.26715338230133057,0.7991361618041992,-0.9586763381958008
1725630845572079600,6.04107958984375,0.15432235598564148,0.5881311893463135,-0.9257343411445618
1725630845582113800,6.05111376953125,0.07894983887672424,0.31761983036994934,-0.8416926860809326
1725630845592147700,6.061147705078125,-0.05029497295618057,0.12094110995531082,-0.7408856153488159
1725630845602181600,6.071181640625,-0.22815604507923126,-0.006029355805367231,-0.687614917755127
1725630845612216800,6.081216796875,-0.34056803584098816,-0.06138046085834503,-0.676705539226532
1725630845622250800,6.091250732421875,-0.37573346495628357,-0.04487818107008934,-0.6628073453903198
1725630845632284700,6.10128466796875,-0.3554537892341614,0.001605435274541378,-0.6256045699119568
1725630845642319600,6.111319580078125,-0.21427111327648163,0.058855943381786346,-0.5585418939590454
1725630845652353800,6.121353759765625,-0.09028417617082596,0.10418903827667236,-0.46212321519851685
1725630845662388000,6.131387939453125,-0.06471889466047287,0.1359616219997406,-0.3602626323699951
1725630845672421600,6.141421630859375,-0.007512425538152456,0.1429682970046997,-0.2572679817676544
1725630845682456800,6.151456787109375,0.13724608719348907,0.17991407215595245,-0.14834390580654144
1725630845692490800,6.16149072265625,0.12247071415185928,0.2441807985305786,-0.07654814422130585
1725630845702524700,6.171524658203125,-0.018074944615364075,0.23548585176467896,-0.037191953510046005
1725630845712558800,6.181558837890625,-0.0859387144446373,0.16937871277332306,-0.015216844156384468
1725630845722593800,6.19159375,-0.04129774495959282,0.12505625188350677,-0.008477183058857918
1725630845732627700,6.201627685546875,0.0044712405651807785,0.10992085933685303,-0.0013621740508824587
1725630845742661600,6.21166162109375,-0.0002300380583619699,0.020092172548174858,0.010328304022550583
1725630845752695800,6.22169580078125,-0.009578859433531761,-0.11021927744150162,0.03805159404873848
1725630845762730800,6.231730712890625,-0.055873118340969086,-0.25196337699890137,0.07504929602146149
1725630845772764700,6.2417646484375,-0.16764843463897705,-0.3361866772174835,0.09838157147169113
1725630845782798800,6.251798828125,-0.25511595606803894,-0.37360888719558716,0.12042561918497086
1725630845792833800,6.261833740234375,-0.304497092962265,-0.4140439033508301,0.13764959573745728
1725630845802867700,6.27186767578125,-0.3460210859775543,-0.42144617438316345,0.12884224951267242
1725630845812901600,6.281901611328125,-0.3988427519798279,-0.39201560616493225,0.11094209551811218
1725630845822935800,6.291935791015625,-0.42225193977355957,-0.3651925027370453,0.11343321949243546
1725630845832970800,6.301970703125,-0.4338854253292084,-0.3302358388900757,0.13059569895267487
1725630845843004700,6.312004638671875,-0.4481583833694458,-0.2571752071380615,0.1520698368549347
1725630845853038800,6.322038818359375,-0.4362204074859619,-0.2267000377178192,0.17023727297782898
1725630845863072500,6.332072509765625,-0.38503286242485046,-0.21601969003677368,0.18518880009651184
1725630845873107700,6.342107666015625,-0.28709572553634644,-0.1554216742515564,0.18398194015026093
1725630845883141600,6.3521416015625,-0.23544611036777496,-0.032733578234910965,0.15279552340507507
1725630845893175800,6.36217578125,-0.265716552734375,0.09356534481048584,0.10900319367647171
1725630845903210800,6.372210693359375,-0.3010774552822113,0.17191313207149506,0.09855108708143234
1725630845913244700,6.38224462890625,-0.30261677503585815,0.22457104921340942,0.08385282009840012
1725630845923278800,6.39227880859375,-0.32603901624679565,0.33059176802635193,0.05860791727900505
1725630845933312800,6.402312744140625,-0.36386165022850037,0.4091087579727173,0.043904248625040054
1725630845943347700,6.41234765625,-0.4403555989265442,0.48266953229904175,0.0741276666522026
1725630845953382000,6.4223818359375,-0.5689852237701416,0.5801814198493958,0.15582464635372162
1725630845963415800,6.432415771484375,-0.687609076499939,0.6168339848518372,0.21001438796520233
1725630845973449700,6.44244970703125,-0.7792768478393555,0.5462419390678406,0.2480495721101761
1725630845983484700,6.452484619140625,-0.7973411083221436,0.4802674353122711,0.25998398661613464
1725630845993518800,6.462518798828125,-0.8258780837059021,0.5722802877426147,0.22086551785469055
1725630846003552800,6.472552734375,-0.8291372656822205,0.672749936580658,0.17532917857170105
1725630846013587700,6.482587646484375,-0.7951854467391968,0.6579150557518005,0.19491702318191528
1725630846023622000,6.492621826171875,-0.6721737384796143,0.5344732403755188,0.2872120440006256
1725630846033655600,6.502655517578125,-0.49783945083618164,0.46708813309669495,0.37431493401527405
1725630846043689700,6.512689697265625,-0.29871034622192383,0.5193449258804321,0.3938252627849579
1725630846053724700,6.522724609375,-0.1409655660390854,0.586016058921814,0.38717037439346313
1725630846063758800,6.5327587890625,-0.05802994593977928,0.6186341643333435,0.3616173565387726
1725630846073792800,6.542792724609375,-0.01984718255698681,0.6075042486190796,0.30048269033432007
1725630846083826700,6.55282666015625,-0.06470733135938644,0.7320869565010071,0.2782396972179413
1725630846093862000,6.56286181640625,-0.1397576779127121,0.9473645091056824,0.4700842797756195
1725630846103895600,6.5728955078125,-0.21595391631126404,0.7205893993377686,0.6403819918632507
1725630846113930500,6.582930419921875,-0.2562468945980072,0.46102485060691833,0.7237989902496338
1725630846123965200,6.592965087890625,-0.23522576689720154,0.36878520250320435,0.8168665766716003
1725630846133999400,6.602999267578125,-0.18754233419895172,0.21567265689373016,0.9035894870758057
1725630846144033500,6.613033447265625,-0.1551303267478943,0.05366164818406105,0.9351303577423096
1725630846154067200,6.623067138671875,-0.12902043759822845,-0.03271879255771637,0.8862621784210205
1725630846164102400,6.633102294921875,-0.089731365442276,-0.14618729054927826,0.7295388579368591
1725630846174136300,6.64313623046875,-0.000049939873861148953,-0.18523001670837402,0.5793887376785278
1725630846184170500,6.65317041015625,0.113365039229393,-0.19616656005382538,0.4828779399394989
1725630846194204400,6.663204345703125,0.25455915927886963,-0.16716980934143066,0.42934709787368774
1725630846204239400,6.6732392578125,0.3196564018726349,-0.14758679270744324,0.364926815032959
1725630846214273500,6.6832734375,0.2578739523887634,-0.18707381188869476,0.27664870023727417
1725630846224307200,6.69330712890625,0.15780113637447357,-0.21286173164844513,0.17689625918865204
1725630846234342400,6.70334228515625,0.17768998444080353,-0.14859023690223694,0.12251441180706024
1725630846244376300,6.713376220703125,0.2356014996767044,-0.03323594108223915,0.0792849138379097
1725630846254410200,6.72341015625,0.2516286373138428,0.10067898035049438,0.03161273151636124
1725630846264444400,6.7334443359375,0.2988342344760895,0.31321442127227783,-0.04453636705875397
1725630846274479400,6.743479248046875,0.3282386064529419,0.505996823310852,-0.12472347170114517
1725630846284513500,6.753513427734375,0.3610474169254303,0.6342405080795288,-0.22871485352516174
1725630846294547200,6.763547119140625,0.3889469802379608,0.731437087059021,-0.37228161096572876
1725630846304581400,6.773581298828125,0.37683117389678955,0.8144214749336243,-0.595747172832489
1725630846314616300,6.7836162109375,0.37839627265930176,0.8961636424064636,-0.8522194027900696
1725630846324650200,6.793650146484375,0.42129287123680115,1.0091429948806763,-1.0632892847061157
1725630846334684400,6.803684326171875,0.4742760956287384,1.1098763942718506,-1.2293199300765991
1725630846344719400,6.81371923828125,0.5234881639480591,1.1863232851028442,-1.3139432668685913
1725630846354753300,6.823753173828125,0.6380109190940857,1.2013587951660156,-1.3301746845245361
1725630846364787500,6.833787353515625,0.7948032021522522,1.2095147371292114,-1.2516905069351196
1725630846374821400,6.8438212890625,0.8949947953224182,1.1415634155273438,-1.0350735187530518
1725630846384856600,6.853856689453125,0.8956581950187683,0.8711905479431152,-0.7850620150566101
1725630846394890200,6.86389013671875,0.8323293328285217,0.4864916205406189,-0.5747746229171753
1725630846404924400,6.87392431640625,0.718584418296814,0.15693610906600952,-0.38642871379852295
1725630846414958600,6.88395849609375,0.5610215067863464,-0.1435500830411911,-0.20259296894073486
1725630846424993300,6.8939931640625,0.394201397895813,-0.4964764416217804,-0.10741425305604935
1725630846435027500,6.90402734375,0.26976847648620605,-0.7995078563690186,-0.09954553842544556
1725630846445061400,6.914061279296875,0.21932636201381683,-0.9678630232810974,-0.1331210732460022
1725630846455096600,6.9240966796875,0.242357075214386,-1.0208077430725098,-0.19292816519737244
1725630846465130200,6.934130126953125,0.32971593737602234,-1.042384386062622,-0.23986825346946716
1725630846475164400,6.944164306640625,0.4170684814453125,-1.0501097440719604,-0.26204603910446167
1725630846485198300,6.9541982421875,0.474904328584671,-1.0212098360061646,-0.2785709500312805
1725630846495233300,6.9642333984375,0.49767205119132996,-0.9710307717323303,-0.2742314338684082
1725630846505267500,6.974267333984375,0.4655013084411621,-0.8492825031280518,-0.24399228394031525
1725630846515301400,6.98430126953125,0.38358110189437866,-0.6594846844673157,-0.2296907752752304
1725630846525335300,6.994335205078125,0.3443545997142792,-0.4396476447582245,-0.2801766097545624
1725630846535370200,7.004370361328125,0.3661854565143585,-0.17517107725143433,-0.3049955368041992
1725630846545404400,7.014404296875,0.3771001696586609,0.1537972241640091,-0.26611924171447754
1725630846555438300,7.024438232421875,0.3476475775241852,0.4782313108444214,-0.0978965237736702
1725630846565473300,7.034473388671875,0.37005648016929626,0.6600184440612793,0.10271354019641876
1725630846575507500,7.044507568359375,0.43275415897369385,0.6751148104667664,0.2255958467721939
1725630846585541400,7.054541259765625,0.4264605939388275,0.5809704661369324,0.24246057868003845
1725630846595575300,7.0645751953125,0.32160329818725586,0.3595668077468872,0.2125086933374405
1725630846605610500,7.074610595703125,0.23706015944480896,0.1696338653564453,0.16045747697353363
1725630846615644400,7.08464453125,0.20287372171878815,0.09343606233596802,0.09037742018699646
1725630846625678300,7.09467822265625,0.1623276323080063,0.088570736348629,0.02448628842830658
1725630846635712500,7.10471240234375,0.20930632948875427,0.08414749056100845,-0.04315587133169174
1725630846645747500,7.11474755859375,0.34895771741867065,0.05940379947423935,-0.07986408472061157
1725630846655781400,7.124781494140625,0.47008320689201355,0.09094961732625961,-0.08604595810174942
1725630846665815300,7.134815185546875,0.5532470941543579,0.14725710451602936,-0.07992468029260635
1725630846675850500,7.1448505859375,0.6003589630126953,0.16798877716064453,-0.05180972442030907
1725630846685884400,7.154884521484375,0.5399757623672485,0.20661579072475433,-0.05356448143720627
1725630846695918300,7.16491845703125,0.39384526014328003,0.23165009915828705,-0.06733281165361404
1725630846705952500,7.174952392578125,0.20612755417823792,0.25963807106018066,-0.04294385015964508
1725630846715987500,7.184987548828125,0.011614568531513214,0.3332851827144623,0.00046562450006604195
1725630846726021400,7.195021484375,-0.14034220576286316,0.3904043734073639,0.04219656065106392
1725630846736055300,7.20505517578125,-0.22759927809238434,0.4122850000858307,0.0726286992430687
1725630846746089500,7.21508935546875,-0.20998381078243256,0.3771483302116394,0.10421698540449142
1725630846756124200,7.225124267578125,-0.17799274623394012,0.30326324701309204,0.14739763736724854
1725630846766158300,7.235158447265625,-0.16243456304073334,0.16628864407539368,0.2068825364112854
1725630846776192500,7.245192626953125,-0.10881994664669037,0.036248981952667236,0.2477896362543106
1725630846786227500,7.2552275390625,-0.024820908904075623,-0.06675383448600769,0.28554341197013855
1725630846796261400,7.265261474609375,-0.050454724580049515,-0.08529908210039139,0.298488050699234
1725630846806295300,7.27529541015625,-0.0888306051492691,-0.12489815801382065,0.3260749578475952
1725630846816329500,7.28532958984375,-0.07806284725666046,-0.16765755414962769,0.3686782717704773
1725630846826364200,7.2953642578125,-0.018103379756212234,-0.12918153405189514,0.4000425934791565
1725630846836398300,7.3053984375,0.05987275019288063,-0.06307325512170792,0.41944465041160583
1725630846846432500,7.3154326171875,0.06960739940404892,-0.08473940193653107,0.41923800110816956
1725630846856466200,7.325466064453125,-0.03151734173297882,-0.15454860031604767,0.399254709482193
1725630846866501400,7.33550146484375,-0.05890608951449394,-0.23095522820949554,0.39977481961250305
1725630846876535300,7.345535400390625,0.0639934241771698,-0.25372204184532166,0.4004659354686737
1725630846886569200,7.3555693359375,0.13323986530303955,-0.21878458559513092,0.38099342584609985
1725630846896604400,7.3656044921875,0.14103387296199799,-0.2400646209716797,0.33214524388313293
1725630846906638300,7.375638427734375,0.20483681559562683,-0.3494361340999603,0.3115542232990265
1725630846916672500,7.385672607421875,0.251803994178772,-0.3589441776275635,0.30516961216926575
1725630846926706400,7.39570654296875,0.23499543964862823,-0.33650490641593933,0.31885504722595215
1725630846936741400,7.405741455078125,0.18907643854618073,-0.3331516981124878,0.3309502899646759
1725630846946775600,7.415775634765625,0.08798044919967651,-0.30325958132743835,0.33776000142097473
1725630846956809200,7.425809326171875,-0.0032448815181851387,-0.237974151968956,0.34047070145606995
1725630846966843400,7.435843505859375,-0.019377246499061584,-0.18880288302898407,0.336654931306839
1725630846976878300,7.44587841796875,-0.031756095588207245,-0.11638131737709045,0.28253594040870667
1725630846986912300,7.455912353515625,-0.0956525206565857,-0.08426492661237717,0.22833871841430664
1725630846996946400,7.465946533203125,-0.15776066482067108,-0.11814624816179276,0.229230135679245
1725630847006981400,7.4759814453125,-0.15604905784130096,-0.13415265083312988,0.26357269287109375
1725630847017015600,7.486015625,-0.20108439028263092,-0.10446902364492416,0.26630130410194397
1725630847027049200,7.49604931640625,-0.2982218563556671,-0.12635141611099243,0.2486296445131302
1725630847037083400,7.50608349609375,-0.38036009669303894,-0.25753551721572876,0.23549115657806396
1725630847047118300,7.516118408203125,-0.42211446166038513,-0.3860173225402832,0.18712922930717468
1725630847057152300,7.52615234375,-0.4381602108478546,-0.47391432523727417,0.1305721402168274
1725630847067186400,7.5361865234375,-0.47459837794303894,-0.5585530400276184,0.0870177373290062
1725630847077221400,7.546221435546875,-0.4849449694156647,-0.7100916504859924,0.06607378274202347
1725630847087255600,7.556255615234375,-0.4645747244358063,-0.8520600199699402,0.08445625007152557
1725630847097289200,7.566289306640625,-0.44963338971138,-0.8836288452148438,0.12845838069915771
1725630847107323400,7.576323486328125,-0.43150949478149414,-0.8572747707366943,0.16006290912628174
1725630847117358300,7.5863583984375,-0.396476686000824,-0.8309131860733032,0.1689717173576355
1725630847127392300,7.596392333984375,-0.36984801292419434,-0.7452448606491089,0.15250912308692932
1725630847137426400,7.606426513671875,-0.39116981625556946,-0.5639803409576416,0.13356474041938782
1725630847147460400,7.61646044921875,-0.4309438467025757,-0.37158533930778503,0.11748404800891876
1725630847157495300,7.626495361328125,-0.4424666464328766,-0.22623886168003082,0.10210571438074112
1725630847167529500,7.636529541015625,-0.4641210734844208,-0.015379362739622593,0.09363579750061035
1725630847177563400,7.6465634765625,-0.47097882628440857,0.17110653221607208,0.08349190652370453
1725630847187598600,7.6565986328125,-0.4561586081981659,0.25440487265586853,0.1209079921245575
1725630847197632300,7.66663232421875,-0.4293430745601654,0.3831891119480133,0.18891696631908417
1725630847207666400,7.67666650390625,-0.4090929329395294,0.5900259613990784,0.21290725469589233
1725630847217700600,7.68670068359375,-0.4128633737564087,0.7132506966590881,0.19433964788913727
1725630847227735300,7.6967353515625,-0.4384337067604065,0.7072674036026001,0.1641646921634674
1725630847237769500,7.70676953125,-0.4943442642688751,0.6910908818244934,0.15013399720191956
1725630847247803400,7.716803466796875,-0.5629705190658569,0.7651084065437317,0.27029743790626526
1725630847257837300,7.72683740234375,-0.6145910620689392,0.6671929955482483,0.439921110868454
1725630847267872300,7.736872314453125,-0.6606485843658447,0.36915144324302673,0.5343829393386841
1725630847277906400,7.746906494140625,-0.6631519794464111,0.0436335951089859,0.556817352771759
1725630847287940400,7.7569404296875,-0.5443387627601624,-0.09215059876441956,0.6619365811347961
1725630847297975300,7.766975341796875,-0.44581547379493713,-0.3090350925922394,0.7701392769813538
1725630847308009500,7.777009521484375,-0.45354530215263367,-0.6853362917900085,0.8120020627975464
1725630847318043400,7.78704345703125,-0.5013952851295471,-1.0555896759033203,0.8409521579742432
1725630847328077300,7.797077392578125,-0.5502533912658691,-1.3359707593917847,0.8934688568115234
1725630847338112300,7.8071123046875,-0.6021679043769836,-1.5310766696929932,0.929081380367279
1725630847348146400,7.817146484375,-0.6112743020057678,-1.590100646018982,0.9235308170318604
1725630847358180400,7.827180419921875,-0.5289315581321716,-1.4439996480941772,0.9198946356773376
1725630847368214300,7.83721435546875,-0.42069992423057556,-1.192041277885437,0.9187062978744507
1725630847378249500,7.84724951171875,-0.30433982610702515,-0.8402294516563416,0.9118573069572449
1725630847388283100,7.857283203125,-0.24222956597805023,-0.3704710006713867,0.8599592447280884
1725630847398317300,7.8673173828125,-0.28408488631248474,0.12430278211832047,0.7305956482887268
1725630847408352300,7.877352294921875,-0.30507802963256836,0.7374972105026245,0.578990638256073
1725630847418386400,7.887386474609375,-0.29212766885757446,1.2869676351547241,0.47878846526145935
1725630847428420400,7.89742041015625,-0.26260387897491455,1.624222993850708,0.39369356632232666
1725630847438454300,7.907454345703125,-0.21872049570083618,1.8180351257324219,0.2740035653114319
1725630847448488400,7.917488525390625,-0.11702956259250641,1.8457529544830322,0.19580356776714325
1725630847458522400,7.9275224609375,-0.010828723199665546,1.6609539985656738,0.13284660875797272
1725630847468557300,7.937557373046875,0.03189956769347191,1.2284380197525024,0.05993031710386276
1725630847478591500,7.947591552734375,0.008581993170082569,0.6814598441123962,-0.03966311737895012
1725630847488625400,7.95762548828125,0.017069220542907715,0.08270297944545746,-0.08024569600820541
1725630847498659300,7.967659423828125,0.04834671691060066,-0.39734911918640137,-0.0887177437543869
1725630847508694500,7.977694580078125,0.004567810334265232,-0.724484384059906,-0.13786958158016205
1725630847518728200,7.987728271484375,-0.06565330177545547,-0.8972244262695312,-0.2085168957710266
1725630847528762400,7.997762451171875,-0.035750798881053925,-0.926155149936676,-0.2669346332550049
1725630847538797300,8.00779736328125,0.01718645915389061,-0.7851691842079163,-0.3240874409675598
1725630847548831500,8.01783154296875,0.06460616737604141,-0.4745815396308899,-0.4269925355911255
1725630847558865400,8.027865478515626,0.0632089152932167,-0.07531046122312546,-0.5702962279319763
1725630847568899300,8.0378994140625,0.09658630937337875,0.26122361421585083,-0.6955921053886414
1725630847578934500,8.0479345703125,0.15642470121383667,0.5035300850868225,-0.8475998640060425
1725630847588968200,8.05796826171875,0.24809975922107697,0.634398341178894,-1.0424226522445679
1725630847599002400,8.06800244140625,0.34563690423965454,0.6309939622879028,-1.2670726776123047
1725630847609036500,8.07803662109375,0.4081229269504547,0.6113848686218262,-1.4361127614974976
1725630847619071500,8.088071533203125,0.4752346873283386,0.5398635864257812,-1.495652675628662
1725630847629105400,8.09810546875,0.5681856274604797,0.501171350479126,-1.4160276651382446
1725630847639139300,8.108139404296875,0.6558402180671692,0.5432251691818237,-1.2158137559890747
1725630847649174500,8.118174560546874,0.72788006067276,0.6283477544784546,-0.9990898966789246
1725630847659208200,8.128208251953126,0.7810003757476807,0.729465663433075,-0.8563581109046936
1725630847669242400,8.138242431640625,0.813264787197113,0.714080810546875,-0.7918899059295654
1725630847679276500,8.148276611328125,0.8230190277099609,0.5966169834136963,-0.7363887429237366
1725630847689311200,8.158311279296875,0.778337836265564,0.3852224051952362,-0.7030962705612183
1725630847699345400,8.168345458984374,0.6728940606117249,0.14823949337005615,-0.6656051874160767
1725630847709379300,8.17837939453125,0.5248749852180481,-0.07336108386516571,-0.6020861268043518
1725630847719413200,8.188413330078125,0.3785586357116699,-0.22944168746471405,-0.5272403955459595
1725630847729448200,8.1984482421875,0.23186959326267242,-0.2842615246772766,-0.4881606698036194
1725630847739482400,8.208482421875,0.12326222658157349,-0.2572231590747833,-0.4975406527519226
1725630847749516500,8.2185166015625,0.07606834918260574,-0.24039067327976227,-0.546526312828064
1725630847759551200,8.22855126953125,0.07790696620941162,-0.28476911783218384,-0.6157857775688171
1725630847769585400,8.23858544921875,0.10727977007627487,-0.29421159625053406,-0.677128791809082
1725630847779619300,8.248619384765625,0.14784064888954163,-0.21332432329654694,-0.6943374276161194
1725630847789653200,8.2586533203125,0.15650416910648346,-0.20718547701835632,-0.6845093369483948
1725630847799688400,8.2686884765625,0.13967901468276978,-0.24572601914405823,-0.6642670631408691
1725630847809722400,8.278722412109374,0.11964832991361618,-0.25942665338516235,-0.5999615788459778
1725630847819757600,8.288757568359374,0.11803115159273148,-0.2480497509241104,-0.5055084824562073
1725630847829791200,8.298791259765625,0.09998450428247452,-0.20401304960250854,-0.4126285910606384
1725630847839826400,8.308826416015625,0.07459825277328491,-0.1421099454164505,-0.35210511088371277
1725630847849860400,8.3188603515625,0.05992024019360542,-0.1025199294090271,-0.3175426125526428
1725630847859894300,8.328894287109375,0.07439152896404266,-0.03649701923131943,-0.26803117990493774
1725630847869928400,8.338928466796874,0.10835082828998566,0.09095042198896408,-0.17447808384895325
1725630847879963400,8.34896337890625,0.13663718104362488,0.19757471978664398,-0.1122148334980011
1725630847889997600,8.35899755859375,0.1596471667289734,0.21018452942371368,-0.15199527144432068
1725630847900031200,8.36903125,0.1913602352142334,0.16535940766334534,-0.2682860493659973
1725630847910066400,8.37906640625,0.21412865817546844,0.13074204325675964,-0.3692536950111389
1725630847920100400,8.389100341796874,0.29147931933403015,0.1551962047815323,-0.41516655683517456
1725630847930134300,8.39913427734375,0.43333980441093445,0.20713530480861664,-0.3742167055606842
1725630847940168400,8.40916845703125,0.5257042050361633,0.2848411798477173,-0.3249731659889221
1725630847950203400,8.419203369140625,0.5436879992485046,0.32705068588256836,-0.30477359890937805
1725630847960237300,8.4292373046875,0.5406400561332703,0.3327884376049042,-0.2953398525714874
1725630847970271200,8.439271240234374,0.4762764871120453,0.3709331750869751,-0.27871134877204895
1725630847980306400,8.449306396484374,0.3004651367664337,0.4045780599117279,-0.24837838113307953
1725630847990340400,8.45934033203125,0.07810315489768982,0.37081342935562134,-0.2090275138616562
1725630848000374300,8.469374267578125,-0.07602021843194962,0.3240562379360199,-0.17215672135353088
1725630848010408400,8.479408447265625,-0.18468837440013885,0.2831423580646515,-0.13663308322429657
1725630848020443400,8.489443359375,-0.23619444668293,0.2130202353000641,-0.1210637092590332
1725630848030477300,8.499477294921874,-0.21923011541366577,0.12415453791618347,-0.12244881689548492
1725630848040511500,8.509511474609376,-0.19203537702560425,0.026739981025457382,-0.1144229918718338
1725630848050545400,8.51954541015625,-0.14395226538181305,-0.06719742715358734,-0.0981564000248909
1725630848060580400,8.529580322265625,-0.0686783567070961,-0.1376969814300537,-0.08687491714954376
1725630848070614300,8.5396142578125,0.023126665502786636,-0.22604681551456451,-0.0929407998919487
1725630848080648400,8.5496484375,0.047094687819480896,-0.33986833691596985,-0.1157495453953743
1725630848090683400,8.559683349609376,0.010403252206742764,-0.4221533536911011,-0.13156658411026
1725630848100717300,8.56971728515625,-0.04316622391343117,-0.4634930491447449,-0.1303439438343048
1725630848110751500,8.57975146484375,-0.088816799223423,-0.45889005064964294,-0.12523892521858215
1725630848120785400,8.589785400390625,-0.12524642050266266,-0.41787388920783997,-0.12867017090320587
1725630848130820400,8.5998203125,-0.17271725833415985,-0.3158383369445801,-0.1530013531446457
1725630848140854300,8.609854248046876,-0.16785353422164917,-0.19521522521972656,-0.18940438330173492
1725630848150888400,8.619888427734375,-0.1310289353132248,-0.03902268782258034,-0.2106710523366928
1725630848160922400,8.62992236328125,-0.11162275075912476,0.10485616326332092,-0.21042868494987488
1725630848170957300,8.639957275390625,-0.07746957242488861,0.2153475284576416,-0.2122843861579895
1725630848180991500,8.649991455078125,-0.06416779011487961,0.28839999437332153,-0.21802572906017303
1725630848191025200,8.660025146484376,-0.1047905832529068,0.344292014837265,-0.22625568509101868
1725630848201060400,8.670060302734376,-0.13650451600551605,0.4211175739765167,-0.222482830286026
1725630848211094300,8.68009423828125,-0.1305536925792694,0.5198298096656799,-0.20561490952968597
1725630848221128400,8.69012841796875,-0.12395735085010529,0.5786446332931519,-0.18555113673210144
1725630848231162400,8.700162353515625,-0.18432322144508362,0.5332297682762146,-0.18003574013710022
1725630848241197300,8.710197265625,-0.20289036631584167,0.38419219851493835,-0.1537744551897049
1725630848251231500,8.7202314453125,-0.16461887955665588,0.21517468988895416,-0.11419881880283356
1725630848261265200,8.73026513671875,-0.16716404259204865,0.022564483806490898,-0.09522566199302673
1725630848271300400,8.74030029296875,-0.20872800052165985,-0.08590100705623627,-0.12190387398004532
1725630848281334500,8.75033447265625,-0.1724487841129303,-0.10016725957393646,-0.1407439112663269
1725630848291368400,8.760368408203124,-0.16798372566699982,-0.09146511554718018,-0.15828321874141693
1725630848301402400,8.77040234375,-0.2825738489627838,-0.16746525466442108,-0.18160860240459442
1725630848311437300,8.780437255859376,-0.3848528265953064,-0.20360462367534637,-0.18937571346759796
1725630848321471500,8.790471435546875,-0.4091753363609314,-0.17986449599266052,-0.17935574054718018
1725630848331505400,8.80050537109375,-0.4037659168243408,-0.16015364229679108,-0.18526263535022736
1725630848341540400,8.810540283203125,-0.3638066053390503,-0.19026851654052734,-0.20988477766513824
1725630848351574500,8.820574462890624,-0.3084613084793091,-0.19146454334259033,-0.23538348078727722
1725630848361608200,8.830608154296876,-0.29889628291130066,-0.17441917955875397,-0.2518046200275421
1725630848371642400,8.840642333984375,-0.2812216877937317,-0.14533185958862305,-0.258949339389801
1725630848381677300,8.85067724609375,-0.2508751451969147,-0.15142348408699036,-0.24752870202064514
1725630848391711500,8.86071142578125,-0.26922324299812317,-0.14710012078285217,-0.25154900550842285
1725630848401745400,8.870745361328124,-0.302120178937912,-0.11932893097400665,-0.23461398482322693
1725630848411779300,8.880779296875,-0.3178307116031647,-0.08977716416120529,-0.20334021747112274
1725630848421814500,8.890814453125,-0.2801835536956787,-0.04380180686712265,-0.1778736561536789
1725630848431848200,8.90084814453125,-0.22278790175914764,0.02089276723563671,-0.17626270651817322
1725630848441882400,8.91088232421875,-0.21717947721481323,0.060107141733169556,-0.18195688724517822
1725630848451917300,8.920917236328124,-0.1694476455450058,0.04153984785079956,-0.15196064114570618
1725630848461951200,8.930951171875,-0.039298076182603836,0.08404798060655594,-0.1312200427055359
1725630848471985400,8.9409853515625,0.05264276638627052,0.09296637773513794,-0.1568918377161026
1725630848482019300,8.951019287109375,0.06152333319187164,0.06586896628141403,-0.1740918606519699
1725630848492054500,8.961054443359375,0.08449576050043106,-0.0023612261284142733,-0.13689814507961273
1725630848502088200,8.971088134765624,0.09189105778932571,0.009939612820744514,-0.09795896708965302
1725630848512122400,8.981122314453126,0.0840216800570488,0.01731790043413639,-0.06602846086025238
1725630848522157300,8.9911572265625,0.08981631696224213,0.0050674802623689175,-0.05952994525432587
1725630848532191200,9.001191162109375,0.09088903665542603,0.001764095388352871,-0.05323076993227005
1725630848542225400,9.011225341796875,0.03376083821058273,-0.025514325127005577,-0.03681298717856407
1725630848552259300,9.02125927734375,0.014325357973575592,-0.03177808225154877,-0.01934504695236683
1725630848562294500,9.03129443359375,0.2143193781375885,0.032175540924072266,-0.0037926724180579185
1725630848572328400,9.041328369140626,0.4182770550251007,0.16808810830116272,-0.04902379959821701
1725630848582362400,9.0513623046875,0.4188975691795349,0.2012799084186554,-0.1407548040151596
1725630848592396300,9.061396240234375,0.37592771649360657,0.19368776679039001,-0.17457588016986847
1725630848602431200,9.07143115234375,0.35485196113586426,0.3986312747001648,-0.10625191777944565
1725630848612465400,9.08146533203125,0.26033079624176025,0.593397319316864,-0.04409133642911911
1725630848622499600,9.09149951171875,0.08858960121870041,0.6810458898544312,0.004739389754831791
1725630848632534300,9.1015341796875,-0.09037669003009796,0.688302755355835,0.051913294941186905
1725630848642568400,9.111568359375,-0.15319128334522247,0.6081117987632751,0.0581948421895504
1725630848652602400,9.121602294921875,-0.1140526831150055,0.4089808464050293,0.025546886026859283
1725630848662636300,9.13163623046875,-0.09328926354646683,0.11437670886516571,-0.008454037830233574
1725630848672671200,9.141671142578126,-0.08413863927125931,-0.18867850303649902,0.002261723391711712
1725630848682705400,9.151705322265625,-0.009929819032549858,-0.35228756070137024,0.017805159091949463
1725630848692739600,9.161739501953125,0.08165149390697479,-0.4672847390174866,0.024923788383603096
1725630848702774300,9.171774169921875,0.11169858276844025,-0.5438029170036316,0.017144184559583664
1725630848712808400,9.181808349609375,0.08839938789606094,-0.5974346995353699,0.022491812705993652
1725630848722842400,9.19184228515625,-0.005101912189275026,-0.5963456630706787,0.05061011388897896
1725630848732876300,9.201876220703125,-0.11893659830093384,-0.567337691783905,0.08419311046600342
1725630848742911200,9.2119111328125,-0.2067994326353073,-0.5179699063301086,0.11430581659078598
1725630848752945400,9.2219453125,-0.3014492392539978,-0.4679368734359741,0.14126206934452057
1725630848762979300,9.231979248046875,-0.4004843533039093,-0.420604407787323,0.14508916437625885
1725630848773013200,9.24201318359375,-0.4174444079399109,-0.41872793436050415,0.12130419909954071
1725630848783048400,9.25204833984375,-0.2920418679714203,-0.40494483709335327,0.06499577313661575
1725630848793082400,9.262082275390625,-0.09844470769166946,-0.3034118115901947,0.008883766829967499
1725630848803116300,9.2721162109375,0.11668843775987625,-0.1813782900571823,-0.010382664389908314
1725630848813151200,9.282151123046875,0.30180129408836365,-0.01852891407907009,-0.026622621342539787
1725630848823185400,9.292185302734374,0.3688025176525116,0.16832736134529114,-0.05764799565076828
1725630848833219300,9.30221923828125,0.3126537799835205,0.332121342420578,-0.06881489604711533
1725630848843253200,9.312253173828125,0.1952219009399414,0.5146098732948303,-0.051729604601860046
1725630848853288400,9.322288330078125,0.1311768740415573,0.6305561661720276,-0.009701196104288101
1725630848863322400,9.332322265625,0.1342935711145401,0.6803396940231323,0.021070819348096848
1725630848873356300,9.342356201171874,0.18688566982746124,0.664811372756958,0.03171840310096741
1725630848883391500,9.3523916015625,0.26520901918411255,0.6321911811828613,0.03259320184588432
1725630848893425400,9.36242529296875,0.338735967874527,0.5556503534317017,0.034169793128967285
1725630848903459300,9.372459228515625,0.3912259042263031,0.4356169104576111,0.044458840042352676
1725630848913493500,9.382493408203125,0.38799548149108887,0.2998809218406677,0.042590100318193436
1725630848923528400,9.392528564453125,0.3440695106983185,0.16029848158359528,0.05599677562713623
1725630848933562400,9.402562255859374,0.3210344910621643,0.07369408756494522,0.07591216266155243
1725630848943596300,9.41259619140625,0.32117584347724915,0.023885194212198257,0.07633085548877716
1725630848953631500,9.422631591796875,0.26566198468208313,-0.06409233063459396,0.03283184766769409
1725630848963665400,9.43266552734375,0.22934797406196594,-0.17940077185630798,0.015523930080235004
1725630848973699300,9.44269921875,0.2700781226158142,-0.2617443799972534,0.019590044394135475
1725630848983733500,9.4527333984375,0.28525012731552124,-0.3299441933631897,0.016474932432174683
1725630848993768400,9.4627685546875,0.22684408724308014,-0.38438719511032104,0.005379670299589634
1725630849003802400,9.47280224609375,0.18602678179740906,-0.36738646030426025,0.036936622112989426
1725630849013836300,9.482836181640625,0.1361159384250641,-0.26619672775268555,0.05550870671868324
1725630849023870500,9.492870361328125,0.04744423180818558,-0.17980289459228516,0.04415742680430412
1725630849033905200,9.5029052734375,-0.05694156140089035,-0.10162580013275146,0.04294382408261299
1725630849043939300,9.512939208984376,-0.12732116878032684,-0.022526198998093605,0.058574970811605453
1725630849053973500,9.522973388671875,-0.1354411542415619,0.026653863489627838,0.06277690082788467
1725630849064008400,9.533008544921875,-0.12495700269937515,0.04094048961997032,0.03433000296354294
1725630849074042400,9.54304248046875,-0.09416979551315308,-0.02092607319355011,0.006114877760410309
1725630849084076300,9.553076171875,-0.0483260452747345,-0.09903916716575623,-0.021575698629021645
1725630849094110500,9.5631103515625,-0.04882751777768135,-0.14080844819545746,-0.04730529710650444
1725630849104145400,9.5731455078125,-0.0749121680855751,-0.16173586249351501,-0.05316527560353279
1725630849114179800,9.583179931640625,-0.056146468967199326,-0.1400603950023651,-0.05303344875574112
1725630849124214000,9.593214111328125,0.0045516774989664555,-0.11741432547569275,-0.0713186115026474
1725630849134249000,9.6032490234375,-0.015064368024468422,-0.1345062255859375,-0.07293115556240082
1725630849144283000,9.613282958984374,-0.07936032116413116,-0.12633247673511505,-0.04466698691248894
1725630849154316800,9.62331689453125,-0.12252510339021683,-0.06347788125276566,0.013132132589817047
1725630849164351000,9.63335107421875,-0.147125244140625,0.0462036095559597,0.0636693462729454
1725630849174385700,9.6433857421875,-0.06965895742177963,0.14869002997875214,0.06340302526950836
1725630849184419800,9.653419921875,0.09991569817066193,0.2195996642112732,0.01647038757801056
1725630849194454000,9.6634541015625,0.22053106129169464,0.24644725024700165,-0.07105599343776703
1725630849204488700,9.67348876953125,0.2249974012374878,0.22696803510189056,-0.12361530214548111
1725630849214523000,9.68352294921875,0.2414538711309433,0.20890460908412933,-0.09633201360702515
1725630849224556800,9.693556884765625,0.26848235726356506,0.21361951529979706,-0.042051248252391815
1725630849234590700,9.7035908203125,0.24835766851902008,0.18242697417736053,-0.02456839568912983
1725630849244626000,9.7136259765625,0.18666820228099823,0.09689106047153473,-0.018609855324029922
1725630849254659800,9.723659912109374,0.1294504553079605,0.023008577525615692,0.004701061639934778
1725630849264694000,9.733694091796876,0.1209559217095375,-0.05352601036429405,0.03664899244904518
1725630849274728000,9.74372802734375,0.19035230576992035,-0.13653726875782013,0.0674085021018982
1725630849284763000,9.753762939453125,0.2886929214000702,-0.22733940184116364,0.07246989756822586
1725630849294797000,9.763797119140625,0.3376428782939911,-0.3164844512939453,0.07842925190925598
1725630849304830700,9.773830810546874,0.3662511110305786,-0.38000667095184326,0.08986032754182816
1725630849314866000,9.783865966796874,0.3836716413497925,-0.45076608657836914,0.11045321822166443
1725630849324899800,9.79389990234375,0.3480052649974823,-0.512563943862915,0.1431293934583664
1725630849334933800,9.803933837890625,0.2573017477989197,-0.5110206604003906,0.20163345336914062
1725630849344968000,9.813968017578125,0.1521032750606537,-0.4349675476551056,0.26983848214149475
1725630849355003000,9.8240029296875,0.07289128005504608,-0.32213714718818665,0.33212611079216003
1725630849365037000,9.834037109375,0.012516899965703487,-0.17138995230197906,0.358256995677948
1725630849375070700,9.84407080078125,-0.007312730886042118,0.01963592693209648,0.33180782198905945
1725630849385106000,9.85410595703125,0.07454845309257507,0.18075892329216003,0.2712564766407013
1725630849395139800,9.864139892578125,0.2195591777563095,0.2708885371685028,0.2060857117176056
1725630849405173800,9.874173828125,0.3121993839740753,0.32573607563972473,0.15064693987369537
1725630849415208000,9.8842080078125,0.3453879654407501,0.24871614575386047,0.14946556091308594
1725630849425243000,9.894242919921876,0.3344651758670807,0.1209314614534378,0.16536764800548553
1725630849435277000,9.904277099609375,0.272244930267334,0.012759452685713768,0.15822984278202057
1725630849445310700,9.914310791015625,0.16247858107089996,-0.04379298537969589,0.13460804522037506
1725630849455345000,9.924344970703125,0.03190726414322853,-0.04683351516723633,0.1226254254579544
1725630849465379800,9.9343798828125,-0.10279028117656708,-0.008281227201223373,0.14745426177978516
1725630849475413800,9.944413818359376,-0.21973662078380585,0.06871794909238815,0.17829100787639618
1725630849485448000,9.954447998046875,-0.18777912855148315,0.07970599830150604,0.17039890587329865
1725630849495483000,9.96448291015625,-0.0033608160447329283,0.02512584999203682,0.10903247445821762
1725630849505516800,9.974516845703125,0.12939311563968658,-0.034196190536022186,0.01564725674688816
1725630849515551000,9.984551025390624,0.16319715976715088,-0.13632841408252716,-0.04771973192691803
1725630849525585000,9.9945849609375,0.1715773195028305,-0.18434973061084747,-0.06148800626397133
1725630849535620000,10.0046201171875,0.13896505534648895,-0.13603439927101135,-0.06960426270961761
1725630849545653800,10.01465380859375,0.023103196173906326,-0.07853009551763535,-0.0829421877861023
1725630849555688000,10.02468798828125,-0.15855075418949127,-0.007079609669744968,-0.1008913666009903
1725630849565723000,10.034722900390625,-0.31208714842796326,0.08653601258993149,-0.08476928621530533
1725630849575756800,10.0447568359375,-0.45200803875923157,0.1771138608455658,-0.052697643637657166
1725630849585791000,10.054791015625,-0.4751007556915283,0.2544132471084595,-0.029150057584047318
1725630849595825000,10.064824951171875,-0.26206010580062866,0.2605435848236084,-0.03035833314061165
1725630849605859800,10.07485986328125,-0.08983322978019714,0.25228458642959595,-0.054719582200050354
1725630849615893800,10.084893798828125,-0.05449707806110382,0.21706239879131317,-0.10581526160240173
1725630849625928000,10.094927978515624,0.03715100139379501,0.11286479234695435,-0.11248532682657242
1725630849635963000,10.104962890625,0.17928417026996613,0.09323463588953018,-0.09600968658924103
1725630849645996800,10.114996826171875,0.2796476483345032,0.11181162297725677,-0.047208428382873535
1725630849656031000,10.125031005859375,0.30671653151512146,0.10979533940553665,-0.004123007878661156
1725630849666065000,10.13506494140625,0.28719866275787354,0.04395392909646034,0.041383046656847
1725630849676099800,10.145099853515624,0.17121002078056335,-0.04343663528561592,0.09346702694892883
1725630849686133800,10.1551337890625,0.10805750638246536,-0.12344135344028473,0.1493980884552002
1725630849696168000,10.16516796875,0.2232203185558319,-0.2352038323879242,0.1781194806098938
1725630849706201900,10.175201904296875,0.32183706760406494,-0.3179022967815399,0.15762895345687866
1725630849716236800,10.18523681640625,0.3607564866542816,-0.379393070936203,0.1420140415430069
1725630849726271000,10.19527099609375,0.44394904375076294,-0.3941279351711273,0.16898131370544434
1725630849736304600,10.2053046875,0.47487154603004456,-0.29660987854003906,0.19996772706508636
1725630849746339800,10.21533984375,0.38809648156166077,-0.18448194861412048,0.21683640778064728
1725630849756373800,10.225373779296875,0.23015105724334717,-0.08633273839950562,0.24584674835205078
1725630849766408000,10.235407958984375,0.05104105547070503,0.057928912341594696,0.31748756766319275
1725630849776441900,10.24544189453125,-0.07595657557249069,0.20314043760299683,0.38904377818107605
1725630849786476800,10.255476806640624,-0.04271598532795906,0.2656771242618561,0.42955276370048523
1725630849796511000,10.265510986328126,0.06097631901502609,0.27915993332862854,0.41272103786468506
1725630849806545000,10.275544921875,0.0689966157078743,0.1967315375804901,0.38853615522384644
1725630849816579800,10.285579833984375,0.051183268427848816,0.020451048389077187,0.3926219940185547
1725630849826614000,10.295614013671875,0.12165863066911697,-0.14665284752845764,0.41605234146118164
1725630849836648000,10.30564794921875,0.18649116158485413,-0.24624627828598022,0.3999814987182617
1725630849846681900,10.315681884765626,0.17962680757045746,-0.35999900102615356,0.36507147550582886
1725630849856716800,10.325716796875,0.12725920975208282,-0.46061110496520996,0.34328094124794006
1725630849866751000,10.3357509765625,0.05734905228018761,-0.5276775360107422,0.35755160450935364
1725630849876785000,10.345784912109375,-0.00317368027754128,-0.5577033758163452,0.37978872656822205
1725630849886819800,10.35581982421875,0.003387145698070526,-0.6082779765129089,0.39014506340026855
1725630849896854000,10.36585400390625,0.043988633900880814,-0.6281033158302307,0.37834540009498596
1725630849906887700,10.3758876953125,0.07705193758010864,-0.5970744490623474,0.3205687701702118
1725630849916921900,10.385921875,0.10392376780509949,-0.5916929841041565,0.2782628536224365
1725630849926956800,10.395956787109375,0.08224155008792877,-0.5699821710586548,0.29459506273269653
1725630849936991000,10.405990966796875,0.03172777593135834,-0.5375411510467529,0.31334424018859863
1725630849947025000,10.41602490234375,-0.04233357682824135,-0.5472094416618347,0.3407909572124481
1725630849957058800,10.426058837890626,-0.14711591601371765,-0.514240562915802,0.3504505157470703
1725630849967094000,10.436093994140625,-0.2614487111568451,-0.43168237805366516,0.3475469648838043
1725630849977127700,10.446127685546875,-0.36197957396507263,-0.32674717903137207,0.3270113170146942
1725630849987161900,10.456161865234375,-0.3562146723270416,-0.2089846134185791,0.31236690282821655
1725630849997196800,10.46619677734375,-0.22142410278320312,-0.06750444322824478,0.29132312536239624
1725630850007230700,10.476230712890626,-0.12119340151548386,0.1410338133573532,0.25060874223709106
1725630850017265000,10.486264892578125,-0.0789431482553482,0.3285650908946991,0.24184800684452057
1725630850027298800,10.496298828125,-0.04790349677205086,0.3760750889778137,0.30230605602264404
1725630850037334000,10.506333984375,-0.07641743123531342,0.37523990869522095,0.3479483723640442
1725630850047368000,10.516367919921874,-0.18953175842761993,0.3377550542354584,0.3443525731563568
1725630850057401900,10.52640185546875,-0.33223482966423035,0.21987423300743103,0.3049420714378357
1725630850067437000,10.53643701171875,-0.466678649187088,0.17120234668254852,0.2378852516412735
1725630850077470700,10.546470703125,-0.5983983278274536,0.14112646877765656,0.17368656396865845
1725630850087505000,10.5565048828125,-0.6766161918640137,0.03440932556986809,0.10448592901229858
1725630850097539000,10.5665390625,-0.6309754848480225,-0.09505625069141388,0.09714838862419128
1725630850107574000,10.576573974609374,-0.5206452012062073,-0.18773236870765686,0.11854927986860275
1725630850117607700,10.586607666015626,-0.44419464468955994,-0.19367974996566772,0.1427914947271347
1725630850127641600,10.5966416015625,-0.3470635712146759,-0.17127782106399536,0.1724274456501007
1725630850137676800,10.6066767578125,-0.2881121039390564,-0.1675935983657837,0.18658240139484406
1725630850147710500,10.61671044921875,-0.28888627886772156,-0.1453300267457962,0.1436855047941208
1725630850157744600,10.62674462890625,-0.3154614269733429,-0.11849814653396606,0.05845663323998451
1725630850167778800,10.63677880859375,-0.36834922432899475,-0.07330575585365295,-0.0215973649173975
1725630850177813500,10.6468134765625,-0.4486483037471771,-0.010184312239289284,-0.05504640191793442
1725630850187847700,10.65684765625,-0.5177265405654907,0.005576431285589933,-0.0014901298563927412
1725630850197881600,10.666881591796875,-0.5448907613754272,-0.08528076857328415,0.11792787164449692
1725630850207915500,10.67691552734375,-0.5359901189804077,-0.184659942984581,0.2677963078022003
1725630850217950500,10.686950439453126,-0.5072607398033142,-0.2745909094810486,0.33615487813949585
1725630850227984600,10.696984619140625,-0.4656825065612793,-0.3756352961063385,0.34053322672843933
1725630850238018600,10.7070185546875,-0.4437828063964844,-0.46281734108924866,0.3359677791595459
1725630850248053500,10.717053466796875,-0.4306923747062683,-0.5197936296463013,0.3236246109008789
1725630850258087700,10.727087646484375,-0.39648085832595825,-0.5103896856307983,0.284914493560791
1725630850268121600,10.73712158203125,-0.34500008821487427,-0.3862200975418091,0.22987015545368195
1725630850278155500,10.747155517578125,-0.29378992319107056,-0.2991142272949219,0.20332828164100647
1725630850288190700,10.757190673828125,-0.23367278277873993,-0.3190687596797943,0.20861627161502838
1725630850298224600,10.767224609375,-0.22194528579711914,-0.3762071430683136,0.22528766095638275
1725630850308258600,10.777258544921875,-0.2765694260597229,-0.40445294976234436,0.18455705046653748
1725630850318293500,10.78729345703125,-0.37433168292045593,-0.3183082044124603,0.09745224565267563
1725630850328327700,10.79732763671875,-0.5353506207466125,-0.16019392013549805,0.027980195358395576
1725630850338361600,10.807361572265625,-0.6591532230377197,-0.0629616379737854,-0.07964294403791428
1725630850348395500,10.8173955078125,-0.6669497489929199,0.1305464804172516,-0.15928788483142853
1725630850358430700,10.8274306640625,-0.5644555687904358,0.3532240092754364,-0.1702726185321808
1725630850368464600,10.837464599609374,-0.3796045482158661,0.5371677875518799,-0.08982593566179276
1725630850378498600,10.84749853515625,-0.12089285254478455,0.5647450685501099,0.03303127363324165
1725630850388533500,10.857533447265626,0.09568872302770615,0.47994545102119446,0.14207147061824799
1725630850398567700,10.867567626953125,0.06197257339954376,0.013721301220357418,0.1557587832212448
1725630850408601600,10.8776015625,-0.08324437588453293,-0.42689481377601624,0.0800580084323883
1725630850418635500,10.887635498046874,-0.15012779831886292,-0.5272549986839294,0.004364578519016504
1725630850428670700,10.897670654296874,-0.16764585673809052,-0.6444112062454224,-0.06821638345718384
1725630850438704600,10.90770458984375,-0.11622899025678635,-0.6815415024757385,-0.07624661177396774
1725630850448738600,10.917738525390625,-0.03061298467218876,-0.49319273233413696,-0.010090667754411697
1725630850458772700,10.927772705078125,0.06682968139648438,-0.15815961360931396,0.05019344761967659
1725630850468807700,10.9378076171875,0.10738053172826767,0.2347535341978073,0.035779133439064026
1725630850478841600,10.947841552734374,0.10371575504541397,0.5568940043449402,-0.031791120767593384
1725630850488875500,10.95787548828125,0.11512917280197144,0.7716925144195557,-0.08268057554960251
1725630850498910700,10.96791064453125,0.1652727574110031,0.9105848670005798,-0.11406459659337997
1725630850508944400,10.9779443359375,0.20181934535503387,0.9566959142684937,-0.14156201481819153
1725630850518978600,10.987978515625,0.24134545028209686,0.8756570219993591,-0.1730208694934845
1725630850529012700,10.9980126953125,0.2748177945613861,0.762794017791748,-0.15443961322307587
1725630850539047700,11.008047607421876,0.30035164952278137,0.6061524748802185,-0.07376047968864441
1725630850549081600,11.01808154296875,0.3212423622608185,0.3428332805633545,0.02775966189801693
1725630850559115800,11.02811572265625,0.33632251620292664,0.03474203124642372,0.10178648680448532
1725630850569150700,11.038150634765625,0.3468014895915985,-0.20775555074214935,0.1484466791152954
1725630850579184600,11.0481845703125,0.35377606749534607,-0.37115541100502014,0.18394820392131805
1725630850589218600,11.058218505859376,0.34719088673591614,-0.49543261528015137,0.20628784596920013
1725630850599252700,11.068252685546875,0.32708749175071716,-0.6753320693969727,0.21909259259700775
1725630850609287700,11.07828759765625,0.2894802689552307,-0.8860921859741211,0.2516632378101349
1725630850619321600,11.088321533203125,0.2728389799594879,-0.9722486138343811,0.27763092517852783
1725630850629355800,11.098355712890625,0.2999439835548401,-0.9141702055931091,0.23375599086284637
1725630850639390700,11.108390625,0.30836835503578186,-0.8272081613540649,0.16361339390277863
1725630850649424600,11.118424560546876,0.2682674527168274,-0.6000665426254272,0.09844648092985153
1725630850659458600,11.12845849609375,0.20280852913856506,-0.18984195590019226,0.06119578704237938
1725630850669492700,11.13849267578125,0.13888922333717346,0.28846871852874756,0.05929933860898018
1725630850679527400,11.14852734375,0.094178207218647,0.7375363111495972,0.05824606120586395
1725630850689561600,11.1585615234375,0.08580968528985977,1.1000574827194214,0.03407101705670357
1725630850699595800,11.168595703125,0.13087595999240875,1.4714664220809937,-0.003217232646420598
1725630850709630700,11.178630615234376,0.21478135883808136,1.8633657693862915,-0.042486727237701416
1725630850719664600,11.18866455078125,0.2474873661994934,2.134361743927002,-0.07842715084552765
1725630850729698600,11.198698486328125,0.22106434404850006,2.168179988861084,-0.08476713299751282
1725630850739732500,11.208732421875,0.18915115296840668,1.9324184656143188,-0.01948452554643154
1725630850749767400,11.218767333984376,0.1833895891904831,1.456192970275879,0.11426456272602081
1725630850759801600,11.228801513671876,0.17605498433113098,0.8519132137298584,0.2175784409046173
1725630850769835800,11.238835693359375,0.15643060207366943,0.21315741539001465,0.22829560935497284
1725630850779869400,11.248869384765625,0.09836490452289581,-0.354160338640213,0.2523450255393982
1725630850789904600,11.258904541015625,0.04427999258041382,-0.8068339228630066,0.2912360727787018
1725630850799938600,11.2689384765625,0.011425107717514038,-1.1949368715286255,0.31784796714782715
1725630850809972500,11.278972412109376,0.0030560544691979885,-1.4215586185455322,0.29799309372901917
1725630850820007700,11.289007568359375,0.0015399169642478228,-1.4680430889129639,0.25917354226112366
1725630850830041600,11.29904150390625,-0.008951305411756039,-1.4117698669433594,0.23092029988765717
1725630850840075800,11.30907568359375,-0.03661142662167549,-1.2972723245620728,0.2109804004430771
1725630850850109700,11.319109619140624,-0.0687786266207695,-1.095711588859558,0.19424770772457123
1725630850860144600,11.32914453125,-0.06271807104349136,-0.7543118596076965,0.20662420988082886
1725630850870178800,11.3391787109375,-0.034384723752737045,-0.3474484980106354,0.25448206067085266
1725630850880212500,11.34921240234375,-0.004071028437465429,0.06590739637613297,0.2893630564212799
1725630850890247700,11.35924755859375,0.027482807636260986,0.39435335993766785,0.2753799557685852
1725630850900281600,11.369281494140624,0.05506543442606926,0.6279613375663757,0.21821147203445435
1725630850910315500,11.3793154296875,0.061703119426965714,0.810463011264801,0.17984648048877716
1725630850920349700,11.389349609375,0.019765526056289673,0.9104878306388855,0.16305844485759735
1725630850930384600,11.399384521484375,-0.03753058984875679,0.8705275654792786,0.1439250409603119
1725630850940418800,11.409418701171875,-0.05636259913444519,0.738551914691925,0.15434493124485016
1725630850950452500,11.419452392578124,-0.05172939598560333,0.49541693925857544,0.20470254123210907
1725630850960487700,11.42948779296875,-0.08010005205869675,0.29048001766204834,0.27218517661094666
1725630850970521600,11.439521484375,-0.11483608931303024,0.12497158348560333,0.2825479805469513
1725630850980555500,11.449555419921875,-0.13417889177799225,0.005980217829346657,0.2690795660018921
1725630850990589700,11.459589599609375,-0.16297480463981628,-0.09093991667032242,0.2637771666049957
1725630851000624600,11.469624755859375,-0.1803966760635376,-0.11247636377811432,0.27066490054130554
1725630851010658600,11.479658447265624,-0.17189176380634308,-0.08155213296413422,0.31619924306869507
1725630851020692500,11.4896923828125,-0.1525883674621582,-0.07115302234888077,0.37086060643196106
1725630851030727700,11.499727783203125,-0.12918564677238464,-0.07632151991128922,0.40708714723587036
1725630851040761600,11.50976171875,-0.0987611636519432,-0.07390443980693817,0.44433119893074036
1725630851050795500,11.51979541015625,-0.07450422644615173,-0.05416101962327957,0.48503831028938293
1725630851060829700,11.52982958984375,-0.06704418361186981,0.019766734912991524,0.5138452053070068
1725630851070864600,11.53986474609375,-0.07595786452293396,0.08885359764099121,0.5460394620895386
1725630851080898600,11.549898681640625,-0.08525282889604568,0.10930667817592621,0.5908746123313904
1725630851090932500,11.559932373046875,-0.1169559508562088,-0.011036863550543785,0.6331325769424438
1725630851100966700,11.569966552734375,-0.13159427046775818,-0.16227565705776215,0.6540873646736145
1725630851111001900,11.580001953125,-0.12865498661994934,-0.21682947874069214,0.7053889632225037
1725630851121034800,11.59003466796875,-0.14457882940769196,-0.22164712846279144,0.7477771639823914
1725630851131069000,11.60006884765625,-0.1581219732761383,-0.21011978387832642,0.7493025660514832
1725630851141103900,11.610103759765625,-0.16378092765808105,-0.12627016007900238,0.7314037680625916
1725630851151137800,11.6201376953125,-0.14237907528877258,0.01992819644510746,0.71334308385849
1725630851161172000,11.630171875,-0.10733267664909363,0.14651116728782654,0.6967089772224426
1725630851171206000,11.640205810546876,-0.0842011496424675,0.250266432762146,0.6683765649795532
1725630851181240800,11.65024072265625,-0.07703565061092377,0.32708504796028137,0.6241808533668518
1725630851191275000,11.66027490234375,-0.10810977220535278,0.3518856465816498,0.5607390999794006
1725630851201309000,11.670308837890625,-0.165174663066864,0.3254005014896393,0.49430498480796814
1725630851211344100,11.68034423828125,-0.17622323334217072,0.2821996212005615,0.44238153100013733
1725630851221377800,11.690377685546874,-0.18584923446178436,0.18547813594341278,0.4166306257247925
1725630851231412000,11.700411865234376,-0.15879689157009125,0.11072154343128204,0.3478183150291443
1725630851241446100,11.710446044921875,-0.12418511509895325,0.0730588510632515,0.23933018743991852
1725630851251480800,11.720480712890625,-0.08648154884576797,0.07189091295003891,0.1164209172129631
1725630851261515000,11.730514892578125,-0.07146131992340088,0.07312369346618652,0.03829788416624069
1725630851271549000,11.740548828125,-0.03904091194272041,0.026887880638241768,0.0034217701759189367
1725630851281582800,11.750582763671876,0.03547114133834839,-0.054471153765916824,0.03524814173579216
1725630851291617800,11.76061767578125,0.013691756874322891,-0.16516758501529694,0.015058235265314579
1725630851301652000,11.77065185546875,-0.0509926974773407,-0.2757132947444916,-0.06906196475028992
1725630851311686000,11.780685791015625,0.0009420716669410467,-0.2598813772201538,-0.11752104759216309
1725630851321720800,11.790720947265624,0.07448100298643112,-0.1512518674135208,-0.18075567483901978
1725630851331755000,11.800755126953124,0.1001313105225563,-0.06758002936840057,-0.2441275417804718
1725630851341789000,11.810788818359375,0.10497213900089264,0.031514063477516174,-0.289765864610672
1725630851351824000,11.820823974609375,0.13512836396694183,0.12536828219890594,-0.32659968733787537
1725630851361857800,11.83085791015625,0.14729289710521698,0.23477652668952942,-0.37224599719047546
1725630851371892000,11.84089208984375,0.14132460951805115,0.35392332077026367,-0.4389447569847107
1725630851381926000,11.85092578125,0.11070545762777328,0.3909052908420563,-0.49191370606422424
1725630851391960800,11.8609609375,-0.009410873055458069,0.2539612352848053,-0.5137555599212646
1725630851401995000,11.8709951171875,-0.08120463788509369,0.11595383286476135,-0.5543903708457947
1725630851412029000,11.88102880859375,-0.07323679327964783,0.05836076661944389,-0.6276633739471436
1725630851422062800,11.891062744140624,-0.10908560454845428,0.011830818839371204,-0.6893067955970764
1725630851432097800,11.901097900390624,-0.12183751165866852,0.07619473338127136,-0.7612617611885071
1725630851442132000,11.911132080078126,-0.08984469622373581,0.22737626731395721,-0.8154901266098022
1725630851452164900,11.921164794921875,-0.05862412229180336,0.4112990200519562,-0.8312244415283203
1725630851462199800,11.93119970703125,-0.03691349923610687,0.5967767834663391,-0.870257556438446
1725630851472234000,11.94123388671875,-0.020861390978097916,0.6901090145111084,-0.9214133620262146
1725630851482268000,11.951267822265624,-0.03365335240960121,0.6250623464584351,-0.9591929316520691
1725630851492302800,11.961302734375,-0.05127726122736931,0.46399393677711487,-0.9566931128501892
1725630851502337000,11.9713369140625,-0.055888257920742035,0.27532443404197693,-0.8869273662567139
1725630851512371000,11.981370849609375,-0.028077159076929092,0.052802924066782,-0.7630858421325684
1725630851522404900,11.99140478515625,-0.031271085143089294,-0.1841060370206833,-0.6366996765136719
1725630851532440000,12.001440185546874,-0.043191730976104736,-0.36818456649780273,-0.5819476842880249
1725630851542473700,12.0114736328125,-0.08258307725191116,-0.4583243131637573,-0.5897310376167297
1725630851552508000,12.0215078125,-0.10379941761493683,-0.43123704195022583,-0.5826374292373657
1725630851562542800,12.03154296875,-0.09588876366615295,-0.324601411819458,-0.5457087159156799
1725630851572577000,12.041576904296875,-0.08786280453205109,-0.18682228028774261,-0.5587443709373474
1725630851582611000,12.05161083984375,-0.065780408680439,-0.06613793969154358,-0.5841479897499084
1725630851592644900,12.061644775390626,-0.048540886491537094,0.03217913955450058,-0.6041384935379028
1725630851602680000,12.07168017578125,-0.03780115768313408,0.12831205129623413,-0.6184287667274475
1725630851612713700,12.081713623046875,-0.020379263907670975,0.25514405965805054,-0.6590327024459839
1725630851622748000,12.091747802734375,0.022443566471338272,0.3568587005138397,-0.7048771381378174
1725630851632782000,12.101781982421874,0.06318515539169312,0.3457227349281311,-0.7057134509086609
1725630851642817000,12.111817138671874,0.05183769017457962,0.2731095254421234,-0.6522176861763
1725630851652851000,12.121850830078126,0.03330123797059059,0.20743562281131744,-0.5938776731491089
1725630851662884900,12.131884765625,0.021920220926404,0.1569511443376541,-0.5773172974586487
1725630851672920000,12.141920166015625,-0.000794842024333775,0.10688488930463791,-0.588337242603302
1725630851682953700,12.15195361328125,-0.056728947907686234,0.03631377965211868,-0.571299135684967
1725630851692988000,12.16198779296875,-0.08217702060937881,-0.047181371599435806,-0.5013174414634705
1725630851703022800,12.17202294921875,-0.07802009582519531,-0.10871077328920364,-0.40788790583610535
1725630851713056800,12.182056884765625,-0.09677610546350479,-0.20957310497760773,-0.31285256147384644
1725630851723091000,12.192091064453125,-0.12407323718070984,-0.2817354202270508,-0.2716209888458252
1725630851733124900,12.202124755859375,-0.14521975815296173,-0.3023495674133301,-0.26248931884765625
1725630851743160000,12.21216015625,-0.1709357649087906,-0.29143327474594116,-0.254289448261261
1725630851753193700,12.22219384765625,-0.18342843651771545,-0.26385149359703064,-0.2512057423591614
1725630851763228000,12.232227783203125,-0.17191585898399353,-0.1739484965801239,-0.2469867616891861
1725630851773262000,12.242261962890625,-0.13703684508800507,-0.13092821836471558,-0.25467702746391296
1725630851783296800,12.252296875,-0.055482055991888046,-0.08804572373628616,-0.2745964229106903
1725630851793331000,12.2623310546875,0.03832898661494255,-0.0963812991976738,-0.32064977288246155
1725630851803365000,12.272365234375,0.08021251857280731,-0.10145621746778488,-0.3760315477848053
1725630851813400000,12.282400146484376,0.09505009651184082,-0.13077837228775024,-0.3897063732147217
1725630851823434800,12.292434814453125,0.10960347205400467,-0.1613304316997528,-0.35142982006073
1725630851833469000,12.302468994140625,0.08662883192300797,-0.1304865926504135,-0.31914398074150085
1725630851843503000,12.312503173828125,0.025988122448325157,-0.06676700711250305,-0.3027176260948181
1725630851853537800,12.322537841796875,-0.04520205780863762,-0.015050148591399193,-0.2840045094490051
1725630851863572000,12.332572021484374,-0.10129009187221527,0.053658343851566315,-0.26455649733543396
1725630851873606000,12.34260595703125,-0.14461944997310638,0.09568864107131958,-0.2322571575641632
1725630851883639800,12.352639892578125,-0.10158782452344894,0.10310554504394531,-0.21024905145168304
1725630851893674800,12.3626748046875,-0.0718141570687294,0.09166944772005081,-0.2093910425901413
1725630851903709000,12.372708984375,-0.032365284860134125,0.08515562117099762,-0.20445780456066132
1725630851913743000,12.3827431640625,0.01931948959827423,0.023462986573576927,-0.18830734491348267
1725630851923777800,12.39277783203125,0.036908600479364395,-0.06698568165302277,-0.1783900111913681
1725630851933812000,12.40281201171875,-0.01304905116558075,-0.1369519680738449,-0.17170950770378113
1725630851943846000,12.412845947265625,-0.043827738612890244,-0.15576133131980896,-0.13172081112861633
1725630851953879800,12.4228798828125,-0.0291475597769022,-0.13460300862789154,-0.11241346597671509
