time,seconds_elapsed,z,y,x
1725629304402290700,0.028290771484375,1.8828928907185791,0.4369973325580358,0.09969619963541626
1725629304412244500,0.038244384765625,1.900931820756197,0.7625649191975593,-0.38059878818355497
1725629304422197500,0.048197509765625,1.002632735466957,0.05038637141287326,-0.3954015858441591
1725629304432150500,0.058150634765625,0.7911234896838665,0.19046295062303542,-0.7394520468965172
1725629304442103600,0.068103515625,0.4584621453911066,0.7176555178910493,-1.2463465070232749
1725629304452057600,0.0780576171875,0.1474947465121746,0.7321259417921304,-1.8700104666613042
1725629304462010600,0.0880107421875,0.15322890625,0.5122819983839988,-2.078968420526385
1725629304471963400,0.09796337890625,0.5156926836103201,0.4332435329824686,-1.7282184618353842
1725629304481917700,0.107917724609375,1.1595242558777332,0.5737906523138284,-0.9161371589925139
1725629304491870500,0.117870361328125,2.1567478257775305,1.063342347973585,0.009160042533278465
1725629304501823500,0.127823486328125,2.3483342274725434,1.0676315696001053,1.0579872506812213
1725629304511776500,0.137776611328125,1.9981389800548552,0.9165560419917106,2.6608418415307997
1725629304521730300,0.147730224609375,1.788514817366004,1.3329746969014404,4.116247570836544
1725629304531683300,0.157683349609375,1.4604612591296433,1.8652829997479914,4.278817721405625
1725629304541636400,0.16763623046875,0.886584682098031,1.989026868316531,2.101500716460496
1725629304551590400,0.17759033203125,0.35162031178474423,1.400065534877777,-1.6169399609558284
1725629304561543400,0.18754345703125,0.3795850080311298,0.493171055200696,-3.621386662852764
1725629304571496400,0.197496337890625,-0.8950514816701411,-0.2972638676971197,-3.014754063645005
1725629304581449500,0.207449462890625,-1.204506722420454,0.7008925991386175,-1.1383655863843858
1725629304591403500,0.217403564453125,-1.3543980086803435,1.7201234181851148,0.29794410504624247
1725629304601356500,0.2273564453125,-1.181053950640559,1.5766589501023291,2.4459737868390974
1725629304611309600,0.2373095703125,-0.18609014236629007,1.2212491829067469,4.35624349091351
1725629304621263600,0.247263671875,0.5378717821925878,0.9362094214886426,3.79593951216042
1725629304631216600,0.257216552734375,0.9397405182242393,0.8751759838551283,1.4928068008087574
1725629304641169700,0.267169677734375,1.44629361756742,0.6300479615867137,0.13119798396676777
1725629304651122700,0.277122802734375,1.1709282779455183,0.8361451191931962,0.044735359913855785
1725629304661076500,0.287076416015625,1.0791881518810986,2.4674136113613843,-0.06473185376003385
1725629304671029500,0.297029541015625,0.5577139622598886,3.2510055364966393,1.0198724779509007
1725629304680982500,0.306982421875,-2.6140362512141464,3.9266900446206328,2.9938486382603644
1725629304690936600,0.3169365234375,-4.543371159633994,4.338005823433399,2.3381547787636516
1725629304700889600,0.3268896484375,-3.2681706063091753,6.302331381213665,1.5512126664176582
1725629304710842600,0.336842529296875,-2.413662731951475,3.683058398389816,1.013203521580994
1725629304720795600,0.346795654296875,-0.6885878288388252,-0.023514731100201604,0.857205150617659
1725629304730749700,0.356749755859375,1.0261807843148707,1.3743091623306274,0.14449965634942055
1725629304740702700,0.36670263671875,1.620341439962387,3.4063580107718705,0.6625558542206883
1725629304750655500,0.376655517578125,1.2528975361019372,4.935386025649309,1.7104036959424613
1725629304760609500,0.386609619140625,0.49491000782251354,5.9348529905617236,2.538397657383978
1725629304770562300,0.396562255859375,0.1615676955282688,6.041752691835165,3.7962396641507743
1725629304780515300,0.406515380859375,0.6464245113700627,5.683673413169384,4.458473446810245
1725629304790468400,0.41646826171875,1.1683803470283747,3.5594133140206337,3.9564372403696177
1725629304800422400,0.42642236328125,1.4258172312498092,1.7052245397388934,3.1252886142894623
1725629304810375400,0.43637548828125,2.451722121232748,3.0268454834550615,1.852607058048248
1725629304820328400,0.446328369140625,4.3886908855319025,4.687788398396968,0.3756049984842539
1725629304830281500,0.456281494140625,5.4220893461406225,4.486850815510749,0.04636369176805019
1725629304840235500,0.466235595703125,4.899848263800144,4.038376395648718,0.7877291710704565
1725629304850188500,0.4761884765625,3.9276305403411387,4.443849878174066,1.9742162526756524
1725629304860141600,0.4861416015625,3.877918122667074,5.185111897101998,2.9088252532303334
1725629304870095600,0.496095703125,4.19971437407434,6.575950169429182,2.241414652454853
1725629304880048600,0.506048583984375,4.08906321131289,6.645009677129983,1.2895944048583508
1725629304890001400,0.51600146484375,4.047728161361813,6.120053490611911,0.37318800047039985
1725629304899955500,0.52595556640625,3.3107121094405647,5.928894958940148,0.12753390850126742
1725629304909908500,0.535908447265625,3.2887703267455097,5.45687775092721,-1.307061672487855
1725629304919861500,0.545861572265625,3.0561990037113427,4.273566669009625,-4.520560192888975
1725629304929814500,0.555814453125,1.9665315433919428,2.804747039118409,-7.859514646473526
1725629304939768600,0.5657685546875,1.483535845246911,1.855610331517458,-11.317606351613998
1725629304949721600,0.5757216796875,2.029693809747696,-0.17417027973085641,-13.22337918266058
1725629304959674600,0.585674560546875,3.4739380935698745,-1.430273772267252,-12.586168489837645
1725629304969627600,0.595627685546875,5.461662647116184,-1.3823919310212134,-10.730892504841089
1725629304979581700,0.605581787109375,6.517813622280955,-1.6487985959008336,-9.173538559189439
1725629304989534700,0.61553466796875,5.41871899292469,-1.705426053660363,-8.332550676140189
1725629304999487700,0.62548779296875,2.823862658476829,-1.498044993723184,-7.853798022392391
1725629305009441500,0.635441650390625,1.039185300381854,-1.0089473985064774,-7.992123374021053
1725629305019394600,0.64539453125,1.5344015246093272,0.19891868081185965,-7.310683078849316
1725629305029347300,0.655347412109375,2.073046775392443,0.5799943292595445,-4.216090339335799
1725629305039300400,0.66530029296875,3.1175919223070143,0.12970774540901184,-2.8665409397304056
1725629305049254400,0.67525439453125,4.281975893175602,0.021482056228816507,-1.697019021451473
1725629305059207400,0.68520751953125,3.6707916220128536,-0.14075754721164702,-0.8201222051531076
1725629305069160400,0.695160400390625,1.0580173535585402,-1.565286492216587,-1.5742361068695783
1725629305079114500,0.705114501953125,-1.557962432938814,2.98469970164299,-0.46066345482766624
1725629305089067500,0.715067626953125,-5.320465539443493,4.264180708765983,4.8640948133736845
1725629305099021800,0.725021728515625,-8.846164799910783,5.35335074095726,5.280647908318042
1725629305108974800,0.734974853515625,-13.451076177656649,3.6515371787056323,3.280289498648047
1725629305118929000,0.744928955078125,-13.252331720900536,7.834865942907333,-1.8097540047496556
1725629305128882000,0.7548818359375,-15.330678794658184,7.362403913736343,-9.131074212947487
1725629305138835000,0.7648349609375,-14.258984797924755,4.693409745410085,-10.558064579629898
1725629305148789000,0.7747890625,-11.817165646547078,1.437071031191945,-9.344416519376635
1725629305158742000,0.784741943359375,-8.514490128567815,1.343449913686514,-8.111746363267303
1725629305168695000,0.794695068359375,-5.687120338752865,2.2265999451607463,-4.88821803176105
1725629305178648000,0.80464794921875,-4.56161876398623,3.4033588289558887,-2.0678695188850162
1725629305188601900,0.814601806640625,-5.272306780952215,3.9619858144074676,-1.539690863189101
1725629305198555000,0.824554931640625,-7.31440356067717,4.622316101533174,-1.2424983071625233
1725629305208508000,0.8345078125,-9.41186333118379,6.587666326186061,-2.2237176677227017
1725629305218462000,0.8444619140625,-10.804410160994529,6.60986120685935,-5.525204268178343
1725629305228415000,0.8544150390625,-13.977581931704282,7.365399588420987,-0.7171124970555305
1725629305238368000,0.864367919921875,-13.411737854480743,9.314415348866582,-5.024458393809199
1725629305248321000,0.874321044921875,-4.220679420691728,4.197838643330336,-10.894069973653554
1725629305258275000,0.884275146484375,23.274878387987613,-7.043916056224703,-18.30605537216067
1725629305268228000,0.89422802734375,-1.2351684026658534,-5.138917716681957,-10.982708042049408
1725629305278180900,0.904180908203125,-5.894813241118192,-2.00241943385303,-12.259973711210488
1725629305288135200,0.91413525390625,-5.413546558722853,0.3205389448225498,-8.843687596142292
1725629305298088000,0.924087890625,-3.880381590171158,1.241307051551342,-5.6713177894651885
1725629305308041000,0.934041015625,-2.914811049641669,1.2664017453193663,-4.246145870381594
1725629305317994000,0.943993896484375,-3.486934353265166,1.4256827912151813,-3.6595600339025256
1725629305327947800,0.95394775390625,-4.5043528621926905,1.1062550225049257,-2.6245070840850473
1725629305337900800,0.96390087890625,-4.306939946301282,0.9555360532492398,-1.8718463037863373
1725629305347853800,0.973853759765625,-4.106021068115532,0.07334113054275512,-2.5130159633681175
1725629305357807900,0.983807861328125,-3.611861294138431,-0.9930161813378333,-3.0202696121960875
1725629305367761000,0.993760986328125,-3.9737165842115876,-1.2533973023176193,-2.8069933567404743
1725629305377714000,1.0037138671875,-1.8715438137084244,-2.1862147432804107,-3.951394277766347
1725629305387667000,1.0136669921875,0.2857639840394258,-4.5646974407792085,-5.241352839761972
1725629305397621000,1.02362109375,-4.175032060499489,-3.8711522817939517,-3.9525925476402044
1725629305407574000,1.033573974609375,-7.632491020694375,-2.9834470712333916,-4.4082378820449115
1725629305417527000,1.043527099609375,-0.18535598287284374,-5.64280013551116,-5.860437508785724
1725629305427480800,1.053480712890625,9.184470872092247,-10.211293461441993,-8.124943113970756
1725629305437433900,1.063433837890625,4.3493452558323735,-10.734849718034267,-6.8477499255239955
1725629305447387000,1.073386962890625,6.145913908055424,-8.608100140157342,-6.529930176532268
1725629305457340000,1.08333984375,5.040082079398632,-7.288584059765935,-3.4320670370459556
1725629305467294000,1.0932939453125,3.4802193657964464,-6.180726278239488,-4.070537959063053
1725629305477247000,1.1032470703125,2.0584400117605925,-6.723077836194634,-5.806839189589024
1725629305487200000,1.113199951171875,1.0188698767796158,-6.356933909016847,-6.399976931929588
1725629305497154000,1.123154052734375,-1.0817483577579259,-4.051325893592834,-3.8396544429853554
1725629305507107000,1.133107177734375,-0.5594613904491067,-3.3414608834475277,-0.8265352870658039
1725629305517060000,1.14306005859375,2.0011150732561944,-4.4392280635923145,0.04684183067381382
1725629305527012900,1.153012939453125,3.7798251204445954,-4.945826171121001,0.08668781111091375
1725629305536967000,1.162966796875,6.359813263845443,-6.349371364808082,-0.2232910516547039
1725629305546920000,1.172919921875,6.53589522241652,-7.05649146015942,-0.9472060317993164
1725629305556873000,1.182873046875,-4.134685729324818,4.049692154911161,6.916705972850322
1725629305566826000,1.192825927734375,-3.5857261514067647,4.83349743053615,5.588215143364668
1725629305576779800,1.20277978515625,0.11502689362764358,2.9026982947826383,-0.5897627860147505
1725629305586732800,1.21273291015625,-1.4417688336193561,4.203458236777783,-0.8664574014790356
1725629305596685800,1.222685791015625,-1.9683917843058705,5.398499796238541,0.23778226261548696
1725629305606639900,1.232639892578125,-0.8054816853821277,5.103406258317828,0.3807979640174657
1725629305616593000,1.242593017578125,0.16763824761360882,3.686536303633451,-0.029025384280458092
1725629305626546000,1.2525458984375,0.6059501699015498,2.557585465195775,0.08358297696337104
1725629305636499000,1.2624990234375,1.1025956232145429,0.7241226680785418,0.5285933009114117
1725629305646453000,1.272452880859375,0.6188961607143283,-0.5715431656479835,1.425735398185253
1725629305656406000,1.282406005859375,-1.5005793345063925,-0.7430535785198211,1.3490950799666344
1725629305666359000,1.292359130859375,-3.158661599320173,-1.3552180928915738,0.481859679852426
1725629305676312800,1.302312744140625,-3.9663983701527115,-1.4878022705197333,0.20925679068118333
1725629305686265900,1.312265869140625,-4.514336788329482,-0.8643722657680512,0.16243395696878432
1725629305696219000,1.322218994140625,-3.1742204029798504,-1.1194389137268066,-0.3060056848183274
1725629305706172000,1.332171875,-0.7663488216504454,-1.469111598575115,-0.8923416381895541
1725629305716126000,1.3421259765625,2.8250889854013916,-3.0653450177192685,0.7937608524501323
1725629305726079000,1.352078857421875,4.635685870715975,-3.464965098041296,0.5829471877157688
1725629305736032000,1.362031982421875,3.9891812798470254,-4.748238483184576,0.49904696149677036
1725629305745986000,1.371986083984375,0.10462065042555331,-2.8263147278040646,-0.44337797350585456
1725629305755939000,1.38193896484375,-3.482654776249826,0.21196809546649456,-1.094984709819406
1725629305765892000,1.39189208984375,-2.0387971536576748,0.782629217582941,-3.7331899182587858
1725629305775845000,1.40184521484375,1.1968971241995692,1.4280138645112515,-3.8100019397825
1725629305785799000,1.411798828125,2.544936996024847,2.0450579676181078,-3.6835610872149465
1725629305795752000,1.421751953125,2.193828725415468,1.7847177631706,-3.677088091808557
1725629305805705000,1.431705078125,-0.08406798400133848,1.9384668939024208,-3.747110307061672
1725629305815659000,1.441658935546875,-1.135723693573475,1.418814659011364,-3.3579812256157395
1725629305825611800,1.45161181640625,-0.049769408558309074,0.9846960967600346,-2.7652140701532364
1725629305835564800,1.461564697265625,0.3675204762279987,0.7215045945346354,-1.5896981721565127
1725629305845517800,1.471517822265625,0.32613048121929167,0.1721066251993179,-1.4434893738016485
1725629305855471900,1.481471923828125,0.2741135859951377,-0.7697948704510926,-0.5608069598391652
1725629305865425000,1.4914248046875,2.2637641391679644,-2.6459201667308805,0.3703466395646334
1725629305875378000,1.5013779296875,3.7131361412674186,-4.529948198959231,0.19110723987594247
1725629305885331000,1.5113310546875,-0.07236965516209602,-2.4876760626673695,-0.7718291527576744
1725629305895285000,1.521284912109375,-2.0656641177952286,-1.989745245718956,-0.8359761923670769
1725629305905238000,1.531238037109375,-0.9262684577107428,-2.84515971352756,-1.0242419252067805
1725629305915191000,1.54119091796875,0.10286606184318661,-2.925039890450239,-0.7464546191349625
1725629305925144800,1.551144775390625,-1.159071251413226,-0.24482699349522588,-0.056960781367123126
1725629305935097900,1.561097900390625,1.4042945507496594,-0.994111575359106,-1.4353209726542233
1725629305945051000,1.57105078125,1.4198247128367423,2.465791563117504,-0.12357085008919239
1725629305955004000,1.58100390625,2.3884447040647268,1.1486726069957016,-1.849838177856803
1725629305964958000,1.5909580078125,-0.6395838516950607,7.88332456112802,-0.2988455839306116
1725629305974911000,1.600910888671875,-0.00016425978415645658,7.592378206014633,0.6217150175273418
1725629305984864000,1.610864013671875,-2.2982161516070363,7.087554706943035,1.70888656937778
1725629305994818000,1.620818115234375,-1.098792431539297,4.222086364880204,0.3089671649724245
1725629306004771000,1.63077099609375,1.1127747796624898,1.8884148690104483,0.6418938822031021
1725629306014724000,1.64072412109375,0.19721476297080515,2.1533722118645904,-0.22405367005765436
1725629306024677000,1.650677001953125,-0.1256552734141238,6.7558315202832215,1.5479858133256434
1725629306034631000,1.660630859375,0.5785550902366637,6.661338880640268,0.8660413680240512
1725629306044584000,1.670583984375,0.5474912589311599,2.4618062928736206,-0.5140785264119505
1725629306054536700,1.68053662109375,0.10459259337484836,1.1739058324515819,0.2984092383399606
1725629306064491000,1.690490966796875,0.49857788268029685,-0.3722136024802923,0.15924918945282696
1725629306074444000,1.700444091796875,0.9711702602326869,-1.21230950512588,-0.14577742120027543
1725629306084396800,1.710396728515625,0.4080021242201328,-2.007980575111508,0.04782587327510118
1725629306094349800,1.720349853515625,-0.14166821404946967,-1.7288737108737229,0.371544617177546
1725629306104303000,1.73030322265625,0.0890320361495018,-1.2085177116274832,0.5514639619544148
1725629306114256100,1.740256103515625,0.41882630057334896,-1.0596510922402143,0.618396686759591
1725629306124209200,1.750209228515625,0.46380409094095226,-0.6159352650821208,0.5998123977988958
1725629306134163200,1.7601630859375,0.7671066542804241,0.1392325296014547,1.0385074741855262
1725629306144116200,1.7701162109375,1.4426046999216078,0.718280956313014,0.8449985799953341
1725629306154069000,1.780069091796875,1.2623054159164429,-0.6164063897252082,0.18308657663613556
1725629306164022000,1.79002197265625,0.6448118154764175,-1.768372777569294,-0.014778174676001071
1725629306173976000,1.79997607421875,0.1420130636980757,-1.7590934925705193,0.2557794724032283
1725629306183929000,1.80992919921875,-0.4681705425221473,-2.3558915109843013,0.33810324308574197
1725629306193882000,1.819882080078125,-0.7218086189825087,-2.3245365877777338,0.5392760960325599
1725629306203836000,1.8298359375,-0.5059283185083419,-2.124444808065891,0.5418880320966244
1725629306213789000,1.839788818359375,-0.10989588741473853,-1.7961323066323995,-0.16396131266653538
1725629306223742000,1.849741943359375,-0.19915354901365934,-0.9577291793793439,-0.3852373347043991
1725629306233695000,1.859695068359375,-0.5374632013916969,-0.20456863286495208,-0.5383753478005529
1725629306243649000,1.86964892578125,-0.573230095821619,-0.5909843636989593,-0.3401139983862638
1725629306253602000,1.87960205078125,-0.7177646773539483,-0.33952129319012164,-0.6936459890112281
1725629306263555000,1.88955517578125,-1.0566903427384793,0.3414554761230945,-0.8008622088879347
1725629306273508000,1.899508056640625,-0.4407574157439172,-1.434243698811531,-1.2129554018139839
1725629306283462100,1.909462158203125,-0.06818214034438133,-2.297647996330261,-0.9683788759484887
1725629306293415200,1.919415283203125,-0.18754151021838186,-2.9994694007515905,-1.002517000132799
1725629306303368200,1.9293681640625,-0.3367490519978106,-3.8914281771034,-0.8400096856668591
1725629306313322000,1.939322021484375,-0.42356195079311726,-4.321168085879087,-0.5298664626523852
1725629306323275000,1.94927490234375,-0.45486097909398376,-4.230588820287585,-0.9192924812182783
1725629306333228000,1.95922802734375,-0.32390915190801023,-3.0259535030514,-0.7259794018611312
1725629306343181000,1.96918115234375,-0.3231796685896814,-1.906571287947893,-1.0866703243300317
1725629306353135000,1.979135009765625,-0.19690218989029526,-0.6178320386141538,-1.462416484850645
1725629306363088100,1.989088134765625,-0.955726022863388,-1.5969547191560267,-2.34790255805701
1725629306373041200,1.999041259765625,-3.0900083343327043,-5.12598633891642,-3.4836271284133193
1725629306382995200,2.0089951171875,-1.53821962159276,-1.3782120149880648,-2.6556670692414044
1725629306392948200,2.0189482421875,-0.9983736167177557,-1.637729212614894,-0.9423360876753926
1725629306402901200,2.0289013671875,-1.5628911215126513,-1.7091648017972707,-0.6066355218172073
1725629306412854000,2.03885400390625,-1.19423301955685,-0.9226274708598852,-0.317811857946217
1725629306422808000,2.04880810546875,-1.0148808071434496,1.1100298648685216,-1.2847146699927747
1725629306432760800,2.0587607421875,-1.1006899357236921,1.6964339150398968,-1.2355465883284806
1725629306442713900,2.0687138671875,-1.639698466861248,1.635179528132081,-1.5663279640935361
1725629306452668000,2.07866796875,-1.377870069682598,2.3893138881146907,-1.3844614307716487
1725629306462621000,2.088620849609375,-1.0954163061697035,1.8541443506181239,-1.0534409855537117
1725629306472574000,2.098573974609375,-0.3768798407256603,2.5433506036162377,-1.5269332345552742
1725629306482528000,2.108528076171875,-0.1801239274382591,3.9957928069412705,-0.49018349075727163
1725629306492481000,2.11848095703125,-0.11656542830653488,4.793549451029301,-0.18461532057337462
1725629306502434000,2.12843408203125,0.11315876166820525,4.425840758752822,0.9706920482616871
1725629306512387000,2.138386962890625,0.4681833654711023,3.94607279048264,2.167634253711998
1725629306522341000,2.148341064453125,0.41892333120703695,3.1645109098702666,2.2655054298773405
1725629306532294100,2.158294189453125,0.37969723623394963,3.0569512833833694,2.2423270911246536
1725629306542247200,2.1682470703125,0.07661914756642654,2.258627068540454,1.745633853147179
1725629306552201000,2.178200927734375,-0.023618191474676132,1.3678759144127368,0.9505551230315118
1725629306562154000,2.188154052734375,-0.1558113239586353,1.2554682633727787,0.3058962330944836
1725629306572107000,2.19810693359375,-0.10386544814407825,1.242052901482582,0.0030074381876736877
1725629306582060000,2.20806005859375,-0.5754542016118764,0.9070201518833637,0.3585888356231153
1725629306592014000,2.21801416015625,-0.8606108674079179,0.35242169129550455,0.6986205625534058
1725629306601967000,2.227967041015625,-0.661495239251852,0.11398118396699428,0.6637240942824632
1725629306611920100,2.237920166015625,-0.8248363741934299,0.5357756866961717,1.0367403183825314
1725629306621874200,2.247874267578125,-0.663744479483366,2.5109131458699703,2.8572634082973
1725629306631827200,2.2578271484375,-0.1138841168006882,0.8109411198318004,2.5619185259640216
1725629306641780200,2.2677802734375,0.4757973841387778,0.5958119299858808,1.9181760932847856
1725629306651734000,2.277734130859375,0.6357465385545045,1.2436767032921314,1.8359017147019505
1725629306661687000,2.28768701171875,0.5774644454557448,-0.03497136013805866,0.9270746595270931
1725629306671640000,2.29764013671875,0.2264795089650899,-0.9127420366615057,1.1012722656562923
1725629306681593000,2.307593017578125,0.36266295319423075,-0.3037298488408327,1.3419682968266307
1725629306691547100,2.317547119140625,-0.35734979534745215,0.262301859909296,0.6249009540870786
1725629306701500200,2.327500244140625,-0.561247397083044,0.1441658943504095,0.3288544993557036
1725629306711453000,2.337452880859375,-0.3664017013311386,0.1223456922084093,-0.06828326263129711
1725629306721407200,2.3474072265625,0.010623685345053672,0.2238730527937412,-0.1823616233624518
1725629306731360000,2.357360107421875,-0.0973228946328163,0.16878186469078063,-0.11239040764421224
1725629306741313000,2.36731298828125,0.17013021055981517,0.02776654332578182,0.2058729934617877
1725629306751266000,2.37726611328125,0.7679341911457479,-0.0668371554762125,0.22215397391617298
1725629306761220000,2.38722021484375,0.723240040025115,-0.2678495571643114,0.2714928821027279
1725629306771173000,2.397173095703125,0.415831941062957,-0.3831839093059301,0.05948357784301042
1725629306781126100,2.407126220703125,0.5576565329842269,-0.3489046230852604,0.022743162205815314
1725629306791080000,2.417079833984375,0.8615046013772487,-0.3313227891653776,0.003589548924565315
1725629306801033000,2.427032958984375,0.8128316097535192,-0.6015431671142578,0.14076456147432326
1725629306810986000,2.436986083984375,1.2185673964768649,-0.23887831422388553,0.009560440027713776
1725629306820940000,2.44693994140625,0.9776103762827814,-0.5471779551982879,-0.08051555221676826
1725629306830893000,2.45689306640625,0.7916770319133997,-0.9998848980635404,0.14971826778054237
1725629306840846000,2.46684619140625,0.6529984829328954,-1.1703162835270167,0.1319745212972164
1725629306850799000,2.476799072265625,1.0115903872959315,-1.2451496984541415,0.07398615044802427
1725629306860753200,2.486753173828125,0.6724462568551302,-0.9156734139382838,-0.4474389393344521
1725629306870706200,2.4967060546875,0.5574881906799972,-0.8170826913267374,-0.7104679444745182
1725629306880659200,2.5066591796875,0.14913272297754882,-0.4878232644319534,-0.6143494571954011
1725629306890613000,2.516613037109375,-0.2885129904866218,-0.39084173058271404,-0.9278884601280093
1725629306900566000,2.52656591796875,-0.5880120698899031,-0.491772294318676,-0.7692731846645474
1725629306910519000,2.53651904296875,-0.577993364700675,-0.38353579148352146,-0.30015608200728894
1725629306920473000,2.54647314453125,-0.3690238665282726,-0.4586398400455713,-0.3595966974914074
1725629306930426000,2.556426025390625,-0.4399257872253656,-0.6695885293364524,-0.4424029909938574
1725629306940379100,2.566379150390625,-0.5023201379485428,-0.6179132871568203,-0.3218918207362294
1725629306950332200,2.576332275390625,-0.3165080818712711,-0.7343406952321528,-0.028951076935231683
1725629306960286200,2.5862861328125,0.0666278966397047,-1.0807090778380632,0.5667942175552249
1725629306970239200,2.5962392578125,-0.08520707103386521,-0.8258557803690433,0.8196522495537996
1725629306980192000,2.60619189453125,-0.35166648901402947,-0.44415831022858615,0.6326718803495168
1725629306990146000,2.61614599609375,-0.32431919401362536,-0.17820143494307994,0.4367231917917728
1725629307000098800,2.626098876953125,-0.33711540109217164,0.04868249010443687,0.2616132931232452
1725629307010051800,2.6360517578125,-0.45574397247359155,0.31704818009734154,0.23571838888823984
1725629307020006100,2.646006103515625,-0.34756372987031936,0.7007786173701286,0.5833879172205925
1725629307029959000,2.655958984375,-0.5492487701229751,0.757498283457756,0.6317109263628721
1725629307039912000,2.665911865234375,-0.7092137066297233,0.2915250317841768,0.2861912695407867
1725629307049865000,2.675864990234375,-0.5983136836737394,-0.302770648419857,0.2753478039652109
1725629307059819000,2.685819091796875,-0.6171615920066833,-0.5387041413635015,0.5580845491379499
1725629307069772000,2.69577197265625,-0.7432472013957798,-0.6578524988353252,0.48937838491946456
1725629307079725000,2.70572509765625,-0.8698626798778771,-0.7711474541038275,0.422099330894649
1725629307089679000,2.71567919921875,-0.733756757864356,-0.6400000312805175,0.2733724122390151
1725629307099631600,2.725631591796875,-0.60307300703004,-0.3636450960993767,0.314372823408246
1725629307109584600,2.735584716796875,-0.7193656828097998,-0.08455167586505413,0.11502616297528147
1725629307119538400,2.745538330078125,-0.5934871403001248,0.23845102872252463,-0.31274580672830343
1725629307129491500,2.755491455078125,-0.8946661356143653,0.4357563925862312,-0.28142200931236144
1725629307139444500,2.765444580078125,-1.0501705855809151,0.6526642825424671,-0.44769832092300055
1725629307149397500,2.7753974609375,-0.9624659986428916,0.5836544592022895,-0.5478272128872573
1725629307159351600,2.7853515625,-0.9274677504979073,0.45889878324270245,-0.5617771200455725
1725629307169304600,2.7953046875,-1.1471953740499914,0.36736148627400395,-0.2743528015784919
1725629307179257600,2.805257568359375,-0.9285532807122916,0.27535481822788715,0.13840221625715493
1725629307189211600,2.815211669921875,-0.6741781952142715,0.046757074999809266,0.3530300324521959
1725629307199164700,2.82516455078125,-0.5580412945181131,-0.13909984313249588,0.08771598511487246
1725629307209117400,2.835117431640625,-0.9251057706069201,-0.2510527361422777,0.20459464408904313
1725629307219071700,2.84507177734375,-1.1651554666977375,-0.04873275898694992,0.3371753145858645
1725629307229024500,2.8550244140625,-0.9500251808732747,-0.015127426505088805,0.46418987538814543
1725629307238977500,2.8649775390625,-0.7000408776801079,0.057334583115577695,-0.04495046396926045
1725629307248931300,2.874931396484375,-0.8442155398588627,0.09133563691675663,-0.13141454932689667
1725629307258884400,2.88488427734375,-1.2154384508013725,0.025762217766046522,0.003198942171782255
1725629307268837400,2.89483740234375,-0.9521492603551596,0.0045627778708934785,-0.23536183053553103
1725629307278790400,2.904790283203125,-0.8999597119778394,-0.2411579495936632,-0.23058190278261897
1725629307288744400,2.914744384765625,-1.0898029963325708,-0.12896715617477894,-0.0008321399752050638
1725629307298697500,2.924697509765625,-1.058895816893503,0.0514653988212347,-0.1454736159481108
1725629307308650500,2.934650390625,-0.7852613927174359,0.16013620142042637,-0.7453400820218026
1725629307318604500,2.9446044921875,-0.7638146269977092,0.020149054059386252,-0.9825144418720155
1725629307328557600,2.9545576171875,-0.7557124960195273,0.16471476138234137,-0.9775450559616088
1725629307338510600,2.964510498046875,-0.9930068289875984,0.2001408795505762,-1.0611015102442354
1725629307348463600,2.974463623046875,-0.5682242503583431,0.31381928117871283,-1.3072574873209
1725629307358417400,2.98441748046875,-0.886771144580841,0.01097322943508625,-1.3060109943911433
1725629307368370400,2.994370361328125,-0.7085685405939817,-0.2845546082496643,-1.0100148085422813
1725629307378323500,3.004323486328125,-0.5352437352439389,0.24653262836933135,-0.9660988021872937
1725629307388277500,3.014277587890625,-0.7480360431075096,0.12116846512258052,-1.0536045786175876
1725629307398230500,3.02423046875,-0.6945891150802374,0.32587972132861615,-0.8993405571661889
1725629307408183600,3.03418359375,-0.7505868966341018,0.3999824838936329,-0.49462329983562225
1725629307418137600,3.0441376953125,-0.49452305433154103,0.35255613133013247,-0.5388681362861767
1725629307428090600,3.054090576171875,-0.14567453621453605,0.9201818312734364,0.087956004415825
1725629307438043600,3.064043701171875,-0.2732265740275383,0.7663941220968962,0.0493706184990704
1725629307447997700,3.073997802734375,-1.03621585611701,0.8886842847257852,0.07321249919440596
1725629307457950700,3.08395068359375,-0.8707242651432752,0.6697989572167397,-0.13421218068879098
1725629307467903500,3.093903564453125,-0.8470102120786904,0.8165718191951513,0.5937102084662765
1725629307477856500,3.1038564453125,-0.7185854922175406,1.4206898052334784,1.7517668029442428
1725629307487810600,3.113810546875,-0.4337678491175174,0.24703648623824118,1.4907210805758833
1725629307497763600,3.123763671875,-0.5498468821465968,-0.6669990973651408,1.12402251519002
1725629307507716400,3.13371630859375,0.24443361026346683,0.028882980135083197,0.6054386036502197
1725629307517670700,3.143670654296875,-0.20191607252955435,-0.5940320608317852,0.21966975588500498
1725629307527623400,3.15362353515625,-0.2714005093778483,-0.32189678917229175,0.7055537228174508
1725629307537576400,3.163576416015625,0.2927016743481159,-0.43373277780413627,0.6560420153472573
1725629307547529500,3.173529541015625,0.3423743445336819,0.2443646366804838,0.37958804023843257
1725629307557483500,3.1834833984375,-0.11632219413518904,0.172089674064517,0.5235992189511657
1725629307567436500,3.1934365234375,0.5175415263473987,0.02508651046156883,1.080183957985416
1725629307577389600,3.2033896484375,0.7317454180419445,-1.1292974599182606,0.37793892132453616
1725629307587343400,3.21334326171875,0.2866998218511231,-0.0721960521608591,0.42628545747287566
1725629307597296400,3.22329638671875,0.6612392186641692,-0.6005249299824238,1.3543123762235045
1725629307607249400,3.23324951171875,0.5408581045269966,-0.2695563610821962,0.914694412838295
1725629307617203500,3.243203369140625,0.2116039383292198,0.39506022506058214,1.7937072714425621
1725629307627156500,3.253156494140625,0.4313123091915622,-1.0627776998281477,1.3514809521898627
1725629307637109500,3.263109619140625,-0.838023772546649,0.33168694630265233,0.4920768302232027
1725629307647063600,3.2730634765625,-0.14772501160409302,0.621651304641366,1.149656284270808
1725629307657016600,3.2830166015625,-0.4314700570365414,-0.9134943163335323,0.5822990260053426
1725629307666969600,3.292969482421875,-1.0566337902456522,0.33421617251932617,-0.7316251526631414
1725629307676922600,3.302922607421875,-1.0089584313571454,0.08391805413663386,-0.14176548214517534
1725629307686876400,3.31287646484375,-0.14203644457366316,-0.12028408350348471,0.4639552629146725
1725629307696829400,3.322829345703125,-0.054487924980185926,-0.12608487873673438,1.041617203703895
1725629307706782500,3.332782470703125,-0.02444996612370014,-0.19703473022878168,1.3609563442826271
1725629307716736500,3.342736572265625,-0.026231004321575165,-0.6119985101550817,1.6544567677929995
1725629307726689500,3.352689453125,-0.38011049320995804,-0.9279074570894241,0.8590550162680447
1725629307736642600,3.362642578125,-1.0135947859209031,-0.3499304590016603,0.3544120613951236
1725629307746596600,3.3725966796875,-0.7532371188819408,-0.29387188717126844,-0.01549172977283597
1725629307756549600,3.382549560546875,-0.7160298894505948,-0.4603612570106983,-0.03402976843900978
1725629307766502700,3.392502685546875,-0.8052607361078262,-0.45558337508440017,-0.027684637195989487
1725629307776455400,3.402455322265625,-1.1455693802833558,-0.28473756360113617,-0.3433089950352907
1725629307786409700,3.41240966796875,-1.263854983446002,-0.38998072983920573,-0.3455124964289367
1725629307796362800,3.42236279296875,-1.1351987929165364,-0.531569467177987,-0.16398155173696577
1725629307806315500,3.4323154296875,-0.8567717276364565,-0.8821955072283745,0.21208952988907692
1725629307816269600,3.44226953125,-0.7001040791094303,-0.9312848245680332,0.3813962221715599
1725629307826222300,3.452222412109375,-0.6076069971978664,-0.7872557083398103,0.28540830246955157
1725629307836175400,3.46217529296875,-0.4095265573084354,-0.6456552805632353,0.23203714309222995
1725629307846129400,3.47212939453125,-0.7247603814601897,-0.18173720785379407,0.12342033570259808
1725629307856082400,3.48208251953125,-0.5267857400327921,0.1481751299917698,-0.018526859685033557
1725629307866035500,3.492035400390625,-0.7874228816002606,0.3215384772539139,0.05616495481431484
1725629307875988500,3.501988525390625,-1.1435814213365316,0.334789003971219,0.24913930373638868
1725629307885942500,3.511942626953125,-0.9301537747114896,0.12561492313742637,0.7363423904433846
1725629307895895600,3.5218955078125,-0.686215839010477,0.33113749572634693,1.0538285235665739
1725629307905848600,3.5318486328125,-0.5892098283071071,0.7112152557104826,0.808292797280103
1725629307915802400,3.54180224609375,-0.5159358447164297,0.6146914025008678,0.7284104284003377
1725629307925755400,3.55175537109375,-0.09866729497909546,0.9366489819496869,0.6107973176717758
1725629307935708400,3.56170849609375,-0.07018997303545474,1.449402689498663,0.6328964828856289
1725629307945662500,3.571662353515625,0.019556348863244057,2.0362655893534423,0.4775754266619682
1725629307955615500,3.581615478515625,-0.7941196758251636,1.4848925205528736,0.8358028816267847
1725629307965568500,3.591568603515625,-0.5767710563641041,0.991412837794423,0.9228060422971844
1725629307975521500,3.601521484375,-0.3734054426133632,1.1564444100409745,1.376195706729591
1725629307985475600,3.6114755859375,-0.4062900596052408,0.9073129973500966,1.9081490586586296
1725629307995428600,3.6214287109375,-0.5079015913426875,0.7829857759356498,1.6852411976352333
1725629308005381600,3.631381591796875,-0.20214410913176833,0.2960620906919241,1.3493968393921851
1725629308015335700,3.641335693359375,0.3131360481549054,-0.2549006437420845,1.2184325180508195
1725629308025288700,3.651288818359375,0.6294657777845859,-0.03853168296813965,1.2405461501814423
1725629308035241700,3.66124169921875,0.7381324887305498,0.21407295879125593,0.6518962207794189
1725629308045194800,3.67119482421875,0.9234966549098491,0.021447277176380158,0.44401101071238513
1725629308055148500,3.6811484375,1.07254622964859,0.00813420661687851,0.934488150653988
1725629308065101600,3.6911015625,1.4269582179784774,0.3882862008810043,0.5852594101808964
1725629308075054300,3.701054443359375,0.975409212976694,0.4268430182904005,-0.049916854204982514
1725629308085008600,3.711008544921875,0.7657732137195765,0.3914396964758634,-0.570786794322729
1725629308094961400,3.72096142578125,0.8360742459140718,0.35992753688096996,-0.5557268800958991
1725629308104914700,3.730914794921875,0.6952018401511013,0.6490045909911394,-0.5009628781206905
1725629308114869000,3.740868896484375,0.4394103850491345,0.7905483201444149,-0.7337006437629461
1725629308124821800,3.75082177734375,0.20563253576941787,0.7693395278990268,-0.6597635931536555
1725629308134774800,3.76077490234375,0.020013591111451387,0.5370931990355253,-0.5890298686303198
1725629308144727800,3.770727783203125,0.059640375839918845,0.20169044708013534,-0.598783493142575
1725629308154681600,3.780681640625,-0.012969371688365936,-0.023194997626543045,-0.281250306007266
1725629308164634600,3.790634521484375,0.10203574849888682,-0.3271457957416773,0.1485978854484856
1725629308174587600,3.800587646484375,0.07185534896440804,-0.5510089116632938,0.5339359040483832
1725629308184541700,3.810541748046875,-0.12026420975923538,-0.9278799845606088,0.7973867878623306
1725629308194494700,3.82049462890625,-0.1822112551063299,-1.3061387124240398,1.0812010991387069
1725629308204447700,3.83044775390625,-0.12389241019375621,-1.5275123496174812,1.4199384023442863
1725629308214401800,3.84040185546875,-0.014214914770051837,-1.6589403429478407,1.6600041727870702
1725629308224354800,3.850354736328125,-0.01324409697651863,-1.632083315682411,1.7017781986773013
1725629308234307800,3.860307861328125,0.06299143983349204,-1.4040572348624467,1.6908460319049656
1725629308244260900,3.8702607421875,-0.23858605327904223,-1.02601419557631,1.7560988407991827
1725629308254214700,3.880214599609375,-0.03167816381156444,-0.7032979067146777,1.7714849182404577
1725629308264167700,3.890167724609375,-0.253135387635231,-0.18500176260769366,1.6251010555796324
1725629308274120700,3.90012060546875,-0.517089690926671,0.3987275153964758,1.30351318622604
1725629308284074800,3.91007470703125,-0.3064309244930744,0.8141378700464963,0.9373040848575532
1725629308294027800,3.92002783203125,-0.33121341050677,0.9437333872526884,0.6858342923469841
1725629308303980800,3.929980712890625,-0.33028277859315275,0.8276479244828223,0.11692585911676287
1725629308313934800,3.939934814453125,-0.4834856736190617,0.7766618336111306,-0.14236717436537147
1725629308323887900,3.949887939453125,-0.7723416323244571,0.8138876946777105,-0.24400632476210593
1725629308333841000,3.9598408203125,-0.7676637036412954,0.6914572467952966,-0.40744025255367156
1725629308343794000,3.9697939453125,-0.6244383050113916,0.7165542786508798,-0.5368908083312213
1725629308353748000,3.979748046875,-0.3310264365673065,0.8326216212421655,-0.37209114514440295
1725629308363701000,3.989700927734375,-0.09718538585826754,1.0258499449253082,-0.12030337272584438
1725629308373654000,3.999654052734375,0.29475509974658487,1.2350000603616238,-0.03321662542521953
1725629308383607800,4.00960791015625,0.42634573629274963,1.4935101267725228,-0.009271832344681024
1725629308393560800,4.019560791015625,0.2420774025261402,1.6903467040807008,-0.12164996502920984
1725629308403513600,4.029513671875,0.13656433330550788,1.6839339144289494,-0.17600129455029964
1725629308413466600,4.039466552734375,0.0876549025774002,1.4831962380290031,-0.20843144577294587
1725629308423420700,4.049420654296875,0.050676732661575075,1.23371995742321,-0.23346023469790814
1725629308433373700,4.059373779296875,0.036118922737985844,1.028636945295334,-0.14248174065575003
1725629308443326700,4.06932666015625,0.03350362567305565,0.6250666660428047,-0.015814531986415387
1725629308453280800,4.07928076171875,0.1924988403648138,0.39889293509125706,0.3779248197339475
1725629308463233800,4.08923388671875,-0.17974851825460791,0.4863590370982885,0.1817452450297773
1725629308473186800,4.099186767578125,-0.013656623300164938,-0.11398235301077365,0.55693742492944
1725629308483140600,4.109140625,-0.09108663059175014,-0.0817728588014841,0.7011822297349571
1725629308493093600,4.11909375,0.2771663976944983,-0.8052934693336486,0.96387250443995
1725629308503046700,4.129046630859375,0.316760010805726,-0.8385667933821678,1.1352411707535386
1725629308512999700,4.138999755859375,0.4636867481715977,-1.0752046352028846,1.4402195583507418
1725629308522953700,4.14895361328125,0.6813656225003302,-1.3211714463829993,1.5435419856593011
1725629308532906800,4.15890673828125,0.5567068310439587,-1.0738929680824278,1.6340186676591635
1725629308542859800,4.16885986328125,0.8834037139743566,-1.0278601157039404,1.1184446419924496
1725629308552813800,4.178813720703125,0.6238748259097338,-0.8448468965649605,1.0230027388006449
1725629308562766800,4.188766845703125,0.6702205436296761,-0.6550234128892422,0.6499275510549545
1725629308572719900,4.198719970703125,0.5788309845685958,-0.38647184493541714,0.5547437142774463
1725629308582673000,4.2086728515625,0.416459571442008,-0.1370148535519838,0.4427341226443648
1725629308592626700,4.218626708984375,0.07190218378081917,0.06623451340794563,0.5405579525366425
1725629308602579700,4.228579833984375,0.27050460171774027,0.11408347529768943,0.42004941262751816
1725629308612532700,4.23853271484375,0.1652111665971577,0.08826865056157111,0.5104021759867667
1725629308622486800,4.24848681640625,0.3768899237282574,-0.2650596341848373,0.7963125827595591
1725629308632439800,4.258439697265625,0.4368042942039668,-0.39467444061338897,1.1041913679733872
1725629308642392800,4.268392822265625,0.5564812055945396,-0.7038771679073572,0.6348866337895392
1725629308652347000,4.278346923828125,0.18551161182597278,-1.7543226249068975,-0.19235855511128902
1725629308662300000,4.2882998046875,-0.44540977159440515,-1.9534645565479993,-0.5544260266304015
1725629308672252700,4.298252685546875,-0.7303074941933154,-1.222296646133065,1.145020221967995
1725629308682205700,4.308205810546875,-0.2986351560503244,-1.4637567935436964,2.4222654328629374
1725629308692159700,4.31815966796875,0.059033788248896595,-1.8221686651647089,2.1787407541379333
1725629308702112800,4.32811279296875,0.6543757626354694,-1.999299256005883,1.3618342961609362
1725629308712065800,4.338065673828125,1.2238619957536458,-2.0995956134915352,0.6956532371804117
1725629308722019600,4.34801953125,0.9207727829039096,-1.5771511175334452,0.05011778360456228
1725629308731972600,4.35797265625,0.17863573470711708,-1.1174854415714741,-0.3605129355534911
1725629308741925600,4.367925537109375,0.17328677489459512,-0.9665297409504652,0.3187076377421617
1725629308751878700,4.377878662109375,0.046672319325804706,-0.11450959175527095,0.456488214969635
1725629308761832700,4.387832763671875,-0.6217413210123777,0.5269190110236406,-0.3573240763843059
1725629308771785700,4.39778564453125,-0.7105307805776596,0.8728338046431541,-0.3937541108980775
1725629308781738800,4.40773876953125,-1.1400251901596783,1.657117219173908,-0.48137511120587584
1725629308791692800,4.41769287109375,-0.9967898546576499,2.0662673443853854,-0.3763178229287267
1725629308801645800,4.427645751953125,-0.502554823487252,2.554488668224215,-0.2642337047547102
1725629308811598800,4.437598876953125,-0.9590636428534984,2.133682592010498,-0.825560742945224
1725629308821552600,4.447552734375,-0.7681113012783229,0.8328302955567837,-0.6147311499893665
1725629308831505700,4.457505615234375,-0.7480125161014497,0.3341664881587028,0.20257336739450693
1725629308841458700,4.467458740234375,-0.13456380713805555,0.4984890353530645,0.7252716919831931
1725629308851411700,4.47741162109375,-0.06742211575731635,0.8369874152362347,0.6436297660849988
1725629308861365800,4.48736572265625,-0.20156594391763208,0.14813888963460922,0.7946950645603239
1725629308871318800,4.49731884765625,-0.33584216628596186,0.20745909360945222,1.1442024758443237
1725629308881271800,4.507271728515625,-0.05549670016393065,0.6279501125246286,1.2064309684813022
1725629308891225900,4.517225830078125,-0.25438041926026345,0.48040509712994095,0.9511752276912331
1725629308901179000,4.527178955078125,-0.31798736064359545,0.46812312318384647,0.839321703402698
1725629308911132000,4.5371318359375,-0.37536914390176535,0.40558161907494067,0.5449550184518098
1725629308921086000,4.5470859375,-0.23837080309316513,0.4521083924502134,0.42557825905159113
1725629308931039000,4.5570390625,-0.21190072931870818,0.636492899942398,-0.24017186116576195
1725629308940992000,4.566991943359375,-0.09287862857505678,0.36180034501552577,-0.40245179661661384
1725629308950944800,4.57694482421875,-0.5175241368211806,0.24238018486499785,-0.06532222086861729
1725629308960898800,4.58689892578125,-0.49349020415246486,0.2948012769758701,0.284552416292578
1725629308970851600,4.5968515625,-0.3203331931173801,0.4072364005446434,0.11691986776739358
1725629308980804600,4.6068046875,-0.31861119163036344,0.2729132702946663,-0.06177914143428206
1725629308990758700,4.616758544921875,-0.4321948276471346,0.14088848011493682,-0.35145167721956966
1725629309000711700,4.626711669921875,-0.19189619829654692,-0.10036942272186279,-0.6911467195414006
1725629309010664700,4.636664794921875,0.056204775368049735,-0.09976853421926497,-0.8272839865412562
1725629309020617700,4.64661767578125,-0.3088789021670818,0.044811201629042625,-0.8400959757108241
1725629309030571800,4.65657177734375,-0.36797355375774204,0.15217209067344664,-0.9488286645650863
1725629309040524800,4.66652490234375,-0.4919534230392426,0.10963117206394672,-1.0325279613845049
1725629309050477800,4.676477783203125,-0.8018505623381584,0.009468670091032982,-0.9164492206163704
1725629309060431600,4.686431640625,-0.6551401711367071,-0.24694822343289852,-0.9606321342792361
1725629309070384600,4.696384521484375,-0.6940332347631454,-0.16066694729626177,-0.5592027395129203
1725629309080337700,4.706337646484375,-0.35807979012243446,-0.36490590981543064,-0.8475250297330319
1725629309090291700,4.716291748046875,-0.14126900386512278,-0.48227498265504837,-1.230315555807203
1725629309100244700,4.72624462890625,0.0032184140572324394,-0.09778642049133777,-0.38660949984043835
1725629309110197800,4.73619775390625,0.14681319398880005,-0.03718085288107395,-0.7742599601011723
1725629309120150800,4.74615087890625,-0.28232933341562744,0.3715829033613205,-0.7446725580237805
1725629309130104800,4.756104736328125,-0.2619027045238763,0.0613426497131586,-0.9920093423828482
1725629309140057900,4.766057861328125,-0.3279366538584232,0.38442484927773474,-0.4393181767210364
1725629309150011000,4.776010986328125,0.045578605804964895,0.06933949368596076,-0.6181553522843867
1725629309159964700,4.785964599609375,0.268733865718171,-0.023715222108364103,-1.3071088726304472
1725629309169917700,4.795917724609375,0.20887308859322218,0.31373101837337014,-0.5908789305631071
1725629309179870700,4.80587060546875,0.02199263609945774,1.2041840663373469,1.0025444726616144
1725629309189823700,4.81582373046875,0.22723120411522685,0.5065203661173582,0.4486296834889799
1725629309199777800,4.82577783203125,-0.2527701345194131,-0.32729017264842986,-0.38966972766127433
1725629309209730800,4.835730712890625,-0.020807773696444928,0.24484978984892367,0.3028650852376595
1725629309219683800,4.845683837890625,0.23327453940007833,-0.07192483400404452,0.6223094032239168
1725629309229638000,4.855637939453125,0.6224386556267738,-0.7999509392619133,-0.053429538501054044
1725629309239591000,4.8655908203125,0.637590120594576,-0.2555588153898716,-0.03772387371659278
1725629309249543700,4.875543701171875,0.6260556770801544,-0.1817103198468685,-0.032371479837968946
1725629309259496700,4.88549658203125,0.469698482741788,-0.5447656333595514,-0.21701778007149694
1725629309269450800,4.89545068359375,0.4470681332606822,-0.41716275127530095,-0.22895700499452648
1725629309279403800,4.90540380859375,0.4331436528045684,-0.7480038944035768,0.0189868784122169
1725629309289356800,4.915356689453125,0.1771493686068803,-0.7732435496002436,-0.021318609295412898
1725629309299310600,4.925310546875,-0.08377192366421223,-0.6599427491128445,0.10186367986761033
1725629309309263600,4.935263671875,0.015225626182556152,-0.5306617046833038,0.31015096792951224
1725629309319216600,4.945216552734375,0.5610043090421706,-1.0902923142194747,0.42604258862771094
1725629309329170700,4.955170654296875,0.12311024684011936,-0.7166150689274072,-0.013897957775369285
1725629309339123700,4.965123779296875,0.36832419382631776,-0.7330839731693267,-0.3833979173827916
1725629309349076700,4.97507666015625,0.46435237247347827,-0.43085342297554013,-0.03598835516087711
1725629309359029800,4.98502978515625,0.5115397286493331,-0.15251695858836173,0.11611973036564886
1725629309368983800,4.99498388671875,0.5381395662833005,-0.01142681842148304,0.2211643783569336
1725629309378936800,5.004936767578125,0.6757341924846172,0.1411205353051424,0.07252053487487137
1725629309388889900,5.014889892578125,0.1817723522324115,0.36144144857525823,0.12353219857923686
1725629309398843600,5.02484375,-0.2525824299275875,0.8090800021350383,-0.299022474867478
1725629309408796700,5.034796630859375,-0.3082463764172047,0.8835966061979532,-0.6121390876695514
1725629309418749700,5.044749755859375,-0.40156003540866075,0.7394979318648577,-0.6291073928009718
1725629309428702700,5.05470263671875,-0.6216711053203791,0.9206202226907014,-0.5915428743645549
1725629309438656800,5.06465673828125,-0.3014314357053488,0.9943974065631628,-0.6766545952651649
1725629309448609800,5.07460986328125,0.01575001538284123,0.8105021438926457,-0.5908191631998867
1725629309458562800,5.084562744140625,-0.07529701385088264,0.6161129597365855,-0.18725122203491626
1725629309468516900,5.094516845703125,-0.420803153604269,0.4775900397092104,0.058540378708764905
1725629309478470000,5.104469970703125,-0.5821323642015457,0.29815058740377426,-0.025325652979686853
1725629309488423000,5.1144228515625,-0.5397311463236808,0.21599837389588356,-0.2062834739588201
1725629309498377000,5.124376953125,-0.9853220466386526,0.021362521502375602,-0.3699595399431884
1725629309508330000,5.134330078125,-0.7459142286479473,-0.09569617021381854,-0.2221149570800364
1725629309518282800,5.14428271484375,-0.2706194602690637,0.8519412387400865,-0.07287614337950944
1725629309528235800,5.15423583984375,-0.48092298352420326,0.5773375311404466,0.29410101975202557
1725629309538189800,5.16418994140625,0.2211434086341411,1.2187754862695932,0.07659465244598686
1725629309548142600,5.174142578125,-0.6156155316084623,1.3064601994633673,-0.20987360740527508
1725629309558095600,5.184095703125,-0.47496663240306075,0.41701428271532054,-0.23366087183654308
1725629309568049700,5.194049560546875,-0.44735447592139244,0.5748217489272356,-0.34723880876488983
1725629309578002700,5.204002685546875,-1.0416934107452631,-0.1693102724790573,-0.09491356846876442
1725629309587955700,5.213955810546875,-0.8922948764383792,-0.7037561718761921,-0.027910920232534407
1725629309597908700,5.22390869140625,-0.6313712460797279,-0.6345055255174636,0.2611193721264601
1725629309607862800,5.23386279296875,-0.5833265424221754,-0.4226484892100095,0.3773772688537836
1725629309617815800,5.24381591796875,-0.8867172955017536,-0.568767271193862,0.5555210553254932
1725629309627768800,5.253768798828125,-0.32367432023882864,-0.6244727918028831,0.2776389836423099
1725629309637722600,5.26372265625,0.05203574605509639,-0.5782692590326071,0.0437862424954772
1725629309647675600,5.273675537109375,-0.11046470027863979,-0.5217997683137655,0.08088321648538112
1725629309657628700,5.283628662109375,-0.40377829598002135,-0.43160336456000803,0.31707696780040856
1725629309667582700,5.293582763671875,-0.3615868483953178,-0.3620604572564363,0.13797244653776286
1725629309677535700,5.30353564453125,-0.4563571359358728,-0.4890998602390289,0.3749833594545722
1725629309687488800,5.31348876953125,-0.5973967149592936,-0.4474520910769701,0.38779505636319517
1725629309697441800,5.32344189453125,-0.3054490738488734,-0.2820435022115707,0.253527017301321
1725629309707395800,5.333395751953125,-0.13743264057263732,-0.30577625997662544,0.30991862047836183
1725629309717348900,5.343348876953125,0.07325052964985371,0.24001111764609812,0.11927242224290967
1725629309727302000,5.353302001953125,-0.3324865722477436,0.869788445597887,-0.25302067521438
1725629309737256000,5.363255859375,-0.8777093017250299,0.7022329078316688,-0.6561597234427928
1725629309747209000,5.373208984375,-0.7953776399970054,0.3772849143952131,-0.38141266184970735
1725629309757161700,5.38316162109375,-0.3057014411747455,0.7286749245554208,-0.5928551260069013
1725629309767114800,5.39311474609375,-0.09438852168135345,0.5669809722989797,-0.18094854169413446
1725629309777068800,5.40306884765625,0.04740764786303043,0.7315729840844869,-0.23737492392361162
1725629309787021800,5.413021728515625,0.12744973734915255,0.5212205071210861,0.2354351880326867
1725629309796974600,5.422974609375,0.2536070968002081,0.4930968209207058,0.478867366168648
1725629309806929000,5.432928955078125,0.25331673555150624,0.15769640705287455,0.5573519970797002
1725629309816881700,5.442881591796875,0.2723931919433176,-0.30517011077702044,0.8468855627857148
1725629309826834700,5.452834716796875,0.24200272985473273,-0.7506453488230704,1.318813923471421
1725629309836788700,5.462788818359375,0.5016413619041442,-0.807154002508521,1.1140331091605127
1725629309846741800,5.47274169921875,0.7473940919421613,-0.8195821069270371,0.7343138072252273
1725629309856694800,5.48269482421875,0.7401395907692611,-0.6301403160452842,0.6003627251580357
1725629309866648600,5.492648681640625,0.6499122073553503,-0.41408641256988044,0.39793899536728855
1725629309876601600,5.5026015625,0.6079115331023931,-0.10182254413962363,0.10321487528085709
1725629309886554600,5.5125546875,0.20359233517870307,-0.01873451108634472,-0.21065233669281005
1725629309896507600,5.522507568359375,-0.030911855614185333,-0.10322598119676113,-0.2195315164580941
1725629309906461700,5.532461669921875,0.22658874149322508,0.07321253572702408,-0.24696079065352677
1725629309916414700,5.542414794921875,0.27471491288915273,0.45794425899684427,-0.32481355340182777
1725629309926367700,5.55236767578125,0.2887064672321081,0.5570838476628065,-0.3943175899997353
1725629309936321800,5.56232177734375,0.4397305569142103,0.5266559761732816,-0.20158727896660567
1725629309946274800,5.57227490234375,0.5059411049246788,0.19393501064777374,-0.043376784911751745
1725629309956227800,5.582227783203125,0.37572657903730866,-0.02397416530549526,0.16791297290176152
1725629309966181600,5.592181640625,0.5724073812618852,-0.33472821369469163,0.48446986235082146
1725629309976134700,5.602134765625,0.5165267963469028,-0.5705360344320536,0.8021499106109142
1725629309986087700,5.612087646484375,0.458883731804043,-0.6474544389396906,0.6920452758163214
1725629309996041700,5.622041748046875,0.4043094071820378,-0.7662497451901435,0.7356821729689836
1725629310005994800,5.631994873046875,0.2363796292759478,-0.6273784501165152,0.6877636529743671
1725629310015947800,5.64194775390625,0.05189239206165075,-0.5375912116855383,0.2183276936262846
1725629310025900800,5.65190087890625,0.1804708411797881,-0.8202852867603302,0.4745341592699289
1725629310035854800,5.661854736328125,0.09665917002707719,-0.942960064792633,0.6264063902139664
1725629310045807900,5.671807861328125,-0.2010866359680891,-1.0886053840458392,0.23091537252068517
1725629310055761000,5.681760986328125,0.10126023408174514,-1.3213877194821835,0.5051251123666763
1725629310065715000,5.69171484375,0.32969621087685225,-0.8714449806332588,0.7403542564332485
1725629310075668000,5.70166796875,0.06487725358009339,-0.38649347224533553,-0.0491910241484642
1725629310085621000,5.71162109375,0.01428279237449169,-0.26507015557885166,-0.39512247664183375
1725629310095574800,5.72157470703125,0.08941168311685323,-0.06962357132434845,-0.2606111303433776
1725629310105527300,5.73152734375,0.25987857828512784,-0.08685586115419865,0.030746143658459183
1725629310115480300,5.741480224609375,0.12917919149026275,-0.12298866628706455,-0.3869230958342552
1725629310125433300,5.751433349609375,0.2537457746185362,-0.40315526871085167,-0.28121114304065703
1725629310135387400,5.761387451171875,0.15584142683595417,-0.4450029443591833,-0.16012655680924653
1725629310145340400,5.77134033203125,-0.19943243902027605,-0.48639820006489753,-0.2891495348244905
1725629310155294500,5.78129443359375,-0.37109994214996694,-0.6267302153408527,-0.6669272011727094
1725629310165247500,5.79124755859375,-0.26380218146964907,-0.6868138049036264,-0.3690823187172413
1725629310175200500,5.801200439453125,-0.3264168969452381,-0.3784311618208885,-0.7020569667428731
1725629310185154600,5.811154541015625,-0.24719445327892897,-0.4114940579891205,-0.8070090410798788
1725629310195107600,5.821107666015625,-0.05840484269559383,-0.22344342920482158,-0.9595898586846887
1725629310205060600,5.831060546875,-0.13096563651561735,0.07525017903447151,-0.8191947150446474
1725629310215014400,5.841014404296875,-0.04240940118432045,0.2440250294625759,-1.0620455861613154
1725629310224967400,5.850967529296875,-0.029786797107011077,0.2104021613240242,-1.0935009010024368
1725629310234920400,5.86092041015625,-0.3110328653305769,0.1835270138800144,-0.5097518953844905
1725629310244874500,5.87087451171875,-0.26171266184449193,0.1959890205681324,-0.42958705630153415
1725629310254827500,5.88082763671875,-0.2855975414313376,-0.001903203272819519,-0.33473888121917844
1725629310264780300,5.8907802734375,-0.35203839106634255,0.07968260852396487,-0.40918841139525175
1725629310274733300,5.9007333984375,-0.4575508757650852,0.17380816842019556,-0.3441512910783291
1725629310284687400,5.910687255859375,-0.6060100103300065,0.35897535072267056,-0.25559797835648057
1725629310294640400,5.920640380859375,-0.8667921133261174,0.3271960646241903,-0.3643333706244826
1725629310304593400,5.930593505859375,-0.9302578196078538,0.3137415397673845,-0.16877791916802526
1725629310314547200,5.940547119140625,-0.8173164270173757,0.4902747492372989,-0.005078033916652202
1725629310324500200,5.950500244140625,-0.6583725771866739,0.5989771160185337,-0.0786877522677183
1725629310334453200,5.960453369140625,-0.9767681533049791,0.7203828970283269,-0.06926467488408088
1725629310344407300,5.9704072265625,-1.0086584985624998,0.6758195326805114,-0.003486234680563211
1725629310354360300,5.9803603515625,-0.6290781667064875,0.47933717563748357,-0.09811141466200352
1725629310364313300,5.990313232421875,-0.8079371887754648,0.48197395388185976,-0.11287490322552621
1725629310374267400,6.000267333984375,-0.7868892131149768,0.4266594784170389,-0.04838591831065714
1725629310384220400,6.010220458984375,-0.41958267189860343,0.37621465481519695,-0.13607253120057283
1725629310394173400,6.02017333984375,-0.46498599420189857,0.46836569976806636,-0.05976202945820987
1725629310404127200,6.030127197265625,-0.37153438804447647,0.44246436579227444,-0.08474361824057995
1725629310414080300,6.040080322265625,-0.39069260443560777,0.6186766727447509,-0.037831060418114064
1725629310424033300,6.050033203125,-0.0506809339126572,0.6933803238123655,-0.05554623839408159
1725629310433987300,6.0599873046875,-0.528124843149446,0.7199468436986207,-0.21522351706586776
1725629310443940400,6.0699404296875,-0.33800909852888433,0.7326181092232465,-0.22884667648784815
1725629310453893400,6.079893310546875,-0.52692712126486,0.8729723363310098,-0.2622220726713538
1725629310463846400,6.089846435546875,-0.5903122365910559,0.5096785378873347,-0.2214689142614603
1725629310473800400,6.099800537109375,-0.5143225643008947,0.26413842768669127,0.21941103188358246
1725629310483753500,6.10975341796875,-0.2003764418721199,-0.3142570880740881,-0.014768164738640187
1725629310493706500,6.11970654296875,0.1326899395575747,-0.3450865261018276,0.10382380095943808
1725629310503660500,6.12966064453125,0.2710311463424936,-0.21655133160352705,0.6469619061823934
1725629310513613600,6.139613525390625,0.4237035512208938,0.08711655791699886,1.4719965063616633
1725629310523566600,6.149566650390625,0.6584948883920908,-0.34570611930489537,0.8857543687537311
1725629310533520400,6.159520263671875,0.2867524105548859,-0.2678939808279276,0.7835668637592345
1725629310543473400,6.169473388671875,0.10999072609134018,-0.3288251271307468,0.7523634047873318
1725629310553426400,6.179426513671875,0.3494523566285148,-0.2959907790213823,0.26553368143737316
1725629310563380500,6.18938037109375,0.25689386338591574,0.16326105544269084,0.22058708992563186
1725629310573333500,6.19933349609375,0.3621715164154768,-0.43251814131736754,0.2383960836648941
1725629310583286300,6.209286376953125,-0.5334955398697405,-0.8965472731858491,-0.6236489812646061
1725629310593240600,6.219240478515625,-0.503245874491334,-0.45046413237452504,-0.39068098706305027
1725629310603193300,6.229193359375,-0.3952806628782302,-0.5520405927985906,0.2033474205069244
1725629310613146400,6.239146484375,-0.3052770052175969,-0.5138835883617401,0.5262015104040503
1725629310623100200,6.24910009765625,-0.3176157508522272,-0.5581558608084917,1.0645134375795722
1725629310633053200,6.25905322265625,0.18468148114476352,-0.8358341535478829,0.7496405556946992
1725629310643006200,6.269006103515625,0.0026590631414204835,-0.42542847531735895,0.71680803421624
1725629310652960300,6.278960205078125,0.538127291323617,-0.17958558277785777,0.7379749600812793
1725629310662913300,6.288913330078125,0.6279641410499811,0.07585925084352493,0.5415875878453255
1725629310672866300,6.2988662109375,0.15245616831183434,-0.03972586118876934,0.5265832031980157
1725629310682820400,6.3088203125,0.07400865454077721,-0.2368582065731287,0.16055544974580407
1725629310692773400,6.3187734375,0.19365685129351912,-0.3247872499167919,0.27527795359939333
1725629310702726400,6.328726318359375,-0.3863309751600027,0.062464931741356845,0.8214938588324934
1725629310712679400,6.338679443359375,-0.37341011878848074,0.5956739828199148,0.4657511333554983
1725629310722633500,6.348633544921875,-0.1783254266489297,0.43567923569679257,0.6084568920254707
1725629310732586500,6.35858642578125,-0.18831081409044562,0.6270283215045929,0.668649860246852
1725629310742539500,6.36853955078125,-0.2729331440389156,0.7580810517817735,0.034465748703479765
1725629310752493300,6.378493408203125,-0.511487048614025,0.6871195098519325,-0.8257161527026444
1725629310762446300,6.3884462890625,-0.8374316518723964,0.43849370859563347,-0.8674193783789873
1725629310772399400,6.3983994140625,-1.1648065071295945,0.6082745211958884,-0.7690176755335182
1725629310782353400,6.408353515625,-1.5220558377772568,0.6500462089985609,-0.7812148207403719
1725629310792306400,6.418306396484375,-1.080887868471071,0.3265986832529306,-0.7210336160220205
1725629310802259500,6.428259521484375,-1.090203978348896,0.15270926629006862,-0.09488456156998872
1725629310812213500,6.438213623046875,-0.5464233374387025,0.2317851410925388,0.38948067136257886
1725629310822166500,6.44816650390625,-0.29378004416935144,-0.002421089667081833,0.5963206101603805
1725629310832119600,6.45811962890625,0.0011982698738574982,0.045777416312694545,0.6535800822131336
1725629310842073300,6.4680732421875,-0.12181852652914821,0.25464929932951924,0.8727436421416699
1725629310852026400,6.4780263671875,-0.37986959712617097,0.45082478238046164,0.8639606162272393
1725629310861979400,6.4879794921875,-0.5051262083452195,-0.18454408196806907,0.5439798898093402
1725629310871933400,6.497933349609375,-1.0993623403817414,-0.013829787909984587,0.48271322794184085
1725629310881886500,6.507886474609375,-1.287557346072793,-0.018549802169203756,0.3769714645318687
1725629310891839500,6.517839599609375,-0.7688239795923233,0.13368541686832905,-0.02184080653861165
1725629310901792300,6.527792236328125,-1.16269360662885,-0.5445844315737486,-0.03045724371448159
1725629310911746600,6.53774658203125,-1.190233209330961,0.03617313714325428,-0.1705355764903128
1725629310921699300,6.54769921875,-1.1403027649920434,0.2506061614185571,-0.12920023427829144
1725629310931652400,6.55765234375,-1.1493459762126206,0.014791910940408706,0.06507862137109041
1725629310941606400,6.5676064453125,-1.214745792362094,0.05133212783038616,0.31595994646921755
1725629310951559400,6.577559326171875,-0.9450953232556581,0.4990688810676336,0.3620549042984843
1725629310961512400,6.587512451171875,-0.44923488284051416,0.6274246273458004,0.3129663176111877
1725629310971466200,6.59746630859375,-0.6642528673969209,0.8371803074598312,0.2145000981621444
1725629310981419300,6.607419189453125,-0.8709883959721774,0.18945581940710543,0.32376740534976123
1725629310991372300,6.617372314453125,-0.6704705728679895,0.3556745556116104,0.3823720084011554
1725629311001326300,6.627326416015625,-0.6349555343072861,0.2225228072285652,0.6107851888425648
1725629311011279400,6.637279296875,-0.4602911143839359,0.24160978501439093,0.7714407379619777
1725629311021232400,6.647232421875,-0.2423644027739763,0.42989889872968196,0.9638657824382185
1725629311031186400,6.6571865234375,-0.09312602746486663,0.5293360090374947,0.8357572889193892
1725629311041139500,6.667139404296875,-0.19268632576093075,0.36007717448472976,0.6448720212310552
1725629311051092500,6.677092529296875,-0.11390095833763479,0.27612872520983217,0.6330962432414293
1725629311061046300,6.68704638671875,0.02648541747406125,0.3899889131456613,0.5307794858440756
1725629311070999300,6.696999267578125,0.1900901717878878,0.682636811479926,0.4369233905389905
1725629311080952300,6.706952392578125,0.26736630369201303,0.8305746255844831,0.6247916484937072
1725629311090905300,6.7169052734375,0.09731588037014006,0.8021382201731204,0.8718535614341497
1725629311100859400,6.726859375,0.06498305204212665,0.621641952291131,1.0941831841781735
1725629311110813200,6.736813232421875,0.38873745177984237,0.47015375222861766,0.9903004926383495
1725629311120766200,6.74676611328125,0.4588187037438154,0.23144962552785872,0.9972130485057831
1725629311130720300,6.75672021484375,0.6030167467981576,0.07285773093998432,1.0208253947615622
1725629311140673300,6.76667333984375,0.571793925538659,0.16015549064278603,0.9308741979405284
1725629311150626000,6.7766259765625,0.75225468371585,-0.022779987084865568,1.1075231427446006
1725629311160580000,6.786580078125,0.604189297708869,-0.2959253125697374,1.209034721238911
1725629311170533000,6.796533203125,0.6306991189718246,-0.565178891313076,1.4298074699297547
1725629311180486000,6.80648583984375,0.7179695522762835,-0.4986158766031265,1.3514417892232538
1725629311190440200,6.816440185546875,0.7841393298849463,-0.5348720158547162,1.1584253547251224
1725629311200393000,6.82639306640625,0.9216006120301783,-0.3973877912253141,1.0561065515011547
1725629311210346000,6.836345947265625,1.326757722082734,-0.06558744767606257,1.0897592302560806
1725629311220300000,6.846300048828125,0.9234658213801682,0.3027496056318283,0.8762386446505784
1725629311230253000,6.856253173828125,0.47815088846236464,-0.09437924239635467,0.887709302213788
1725629311240206000,6.8662060546875,0.24296879840791225,-0.3085889793097973,0.9318038800060748
1725629311250159000,6.8761591796875,0.12810031021237372,-0.4513432532966137,0.7294988081589341
1725629311260113000,6.88611279296875,0.08413461949676275,-0.5732780266165733,0.6439885163947939
1725629311270066000,6.89606591796875,-0.045163668328523636,-0.6074941844731568,0.5117617739021778
1725629311280019000,6.90601904296875,0.08015563286319374,-0.777267398288846,0.13278788350671528
1725629311289973000,6.915972900390625,0.36878976551145315,-0.7177537175685167,0.14927403114438056
1725629311299926000,6.925926025390625,0.513167549046874,-0.4023644105941057,0.41283348989933727
1725629311309879000,6.935879150390625,0.633759821716696,-0.27959844714701176,0.16548106957972047
1725629311319833000,6.9458330078125,0.7302022802531719,-0.2556973470777273,0.3953603770509362
1725629311329786000,6.9557861328125,0.5141670814782381,-0.09483633851408958,0.641077012862265
1725629311339739100,6.9657392578125,0.035303660832345485,-0.20112872154414652,0.28727614216804503
1725629311349693200,6.975693115234375,0.23218436954319477,-0.6127852766185998,0.3079121029615402
1725629311359646200,6.985646240234375,0.5725691476948559,-0.6936468657940625,0.8923261483594774
1725629311369599000,6.995598876953125,0.4465267929255962,-0.6546405510514974,0.5763841759383678
1725629311379553000,7.005552978515625,0.4947914960093796,-0.8134668389171361,0.19859686497896908
1725629311389506000,7.015506103515625,0.3458927279181778,-0.5212286904275417,0.4642047806963324
1725629311399459000,7.025458984375,0.136570616915822,-0.0268219559520483,0.44338995620459315
1725629311409412000,7.035412109375,-0.08048369577378034,0.25662381427288056,0.2910591678380966
1725629311419366100,7.0453662109375,-0.2561544431954622,0.5497638800382614,-0.0619596125677228
1725629311429319200,7.055319091796875,-0.2677808758422732,0.6509814440220594,-0.30407120962440964
1725629311439272200,7.065272216796875,-0.31876608993113037,0.673106766590476,-0.2605342657148838
1725629311449226200,7.075226318359375,-0.11833046521767973,0.6003355448901653,-0.40776889998614785
1725629311459179300,7.08517919921875,-0.37753362845927474,0.5929056871503591,-0.4004828346312046
1725629311469132000,7.095132080078125,-0.4410860631763935,0.5584019445240497,-0.4682976029679179
1725629311479086000,7.105086181640625,0.13360650641322136,0.13798574441075323,-0.22149302578940985
1725629311489038800,7.115038818359375,-0.14284180613979697,0.24333120197951794,0.11588409497886895
1725629311498991900,7.124991943359375,-0.220326173967123,0.39825405266582964,0.00315232655107975
1725629311508946200,7.1349462890625,0.04622852108106017,0.12224398539960384,0.20717750018909573
1725629311518899000,7.14489892578125,0.11884440608918666,-0.08935761484205722,0.3451807802565396
1725629311528852000,7.15485205078125,0.32300255845710635,-0.038763153636455536,0.04459712048694491
1725629311538806000,7.164805908203125,0.3391444227017462,-0.06390694724321365,-0.10232333326861262
1725629311548759000,7.174759033203125,0.26789865700304505,0.15295242739617823,-0.2660251182161271
1725629311558712000,7.184712158203125,-0.1811189298249781,0.14765899716317651,-0.3454930610761046
1725629311568665000,7.1946650390625,-0.41779286587238307,0.18032266488075255,-0.298224675553292
1725629311578619000,7.204618896484375,-0.10518646761476994,0.16193243718743322,-0.3186879101283848
1725629311588572000,7.214572021484375,-0.2472621116876602,0.25349545311927796,-0.15551628653481603
1725629311598525000,7.22452490234375,-0.17874679386615752,0.47785775073468684,-0.23508111389800904
1725629311608479000,7.23447900390625,-0.30818975085914135,-0.09885784911513328,-0.09915215588659047
1725629311618432000,7.244431884765625,-0.29242037318870423,-0.19024726204574108,-0.25772987581864
1725629311628385000,7.254385009765625,-0.17900734449848532,-0.12928338251709937,-0.3187972157217562
1725629311638339000,7.264339111328125,-0.03202478529214859,-0.027798107507824896,-0.4377525348395109
1725629311648292000,7.2742919921875,0.10047463666200637,0.3398100470036268,-0.5161187270026654
1725629311658245000,7.2842451171875,-0.18951354094371198,0.6131961955070495,-0.4144817685630172
1725629311668199200,7.29419921875,-0.19892609693333504,0.883013253352046,-0.5404323533955961
1725629311678152200,7.304152099609375,-0.03192936209365725,0.872830297511816,-0.4903006143309176
1725629311688105200,7.314105224609375,-0.16070128795728086,1.0208785862535237,-0.5283124381434172
1725629311698058200,7.324058349609375,-0.09232157921418548,0.9555646948218345,-0.45137006823830306
1725629311708012000,7.334011962890625,0.06248728970363736,0.7305670219123364,-0.6733784962039441
1725629311717965000,7.343965087890625,-0.3965438877470791,0.5215566072076558,-0.33490188976116475
1725629311727918000,7.35391796875,-0.1989789961643517,0.14946049362719058,-0.16417225200347602
1725629311737872100,7.3638720703125,0.35544703046604986,0.1042331124126911,0.3272128696285188
1725629311747825200,7.3738251953125,0.011505728876590729,0.4461825095325708,0.6897592107057571
1725629311757778200,7.383778076171875,0.3331885830372572,0.12580255466401577,0.25502390479557213
1725629311767732200,7.393732177734375,0.40029286501705647,0.0006704466074705124,0.533122761034593
1725629311777685200,7.403685302734375,0.4820072716295719,-0.05723755248188972,0.4905531277872622
1725629311787638000,7.413637939453125,0.45198922304995354,0.20119243443012236,0.8228138553898781
1725629311797592000,7.423592041015625,0.4927899469286203,-0.15478899517357347,0.6525374412924051
1725629311807544800,7.433544921875,0.7344242818623781,-0.48231356109976764,-0.0009015519496053456
1725629311817497900,7.443497802734375,0.5244162344224751,-0.30803660612404343,-0.20128800375908612
1725629311827452000,7.453451904296875,0.5184862598516047,-0.2747030763208866,-0.3185783122740686
1725629311837405000,7.463405029296875,0.8074317965365946,-0.32721126219332214,-0.214360981952399
1725629311847358000,7.47335791015625,0.45020650435164566,-0.2996954787582159,0.0013506108913570642
1725629311857311000,7.48331103515625,0.5452075319081544,-0.4391635706812143,-0.003396291374787688
1725629311867265000,7.49326513671875,0.31590368623733517,-0.625985534453392,0.2640184545688331
1725629311877218000,7.503218017578125,0.3864895267225802,-0.5109779300481081,0.42222113064341243
1725629311887171000,7.513171142578125,0.4838882630705833,-0.5280939000219106,0.14206621865741909
1725629311897125000,7.523125,0.7500533742792904,-0.5475865359991788,0.0745176269762218
1725629311907078100,7.533078125,1.0458870630428194,-0.2606897485375404,-0.08408084348291159
1725629311917031200,7.54303125,0.9037959291398525,0.05570201347768306,-0.1671114472605288
1725629311926985000,7.55298486328125,0.7962650903560221,0.02640285375714302,-0.15820442964024842
1725629311936938000,7.56293798828125,0.6760686851359904,-0.03241466139256954,-0.3207010035164654
1725629311946891000,7.57289111328125,0.04547653366997838,-0.12905015828311442,-0.2911984301783144
1725629311956845000,7.582844970703125,0.014011574217677115,0.012310030996799469,-0.42025998663827774
1725629311966798000,7.592798095703125,-0.30130934369564055,0.1060989062845707,-0.5514017834383994
1725629311976751000,7.602751220703125,-0.2717031638525426,-0.1239233167886734,-0.530496796445176
1725629311986704100,7.6127041015625,-0.3193161250293255,-0.04152092791199684,-0.282476121475175
1725629311996658200,7.622658203125,-0.3006831746213138,0.20701018079817293,-0.3298652838334441
1725629312006611200,7.632611083984375,0.06122998311892151,0.3183849816590547,-0.3899428820468485
1725629312016564200,7.642564208984375,-0.4169856411427259,0.6844213568091392,-0.17755488066785036
1725629312026518000,7.65251806640625,-0.6248993466518818,0.7270826869279146,-0.20082856955379247
1725629312036471000,7.662470947265625,-0.4914646896742284,0.45391982578635215,0.09353665409237145
1725629312046424000,7.672424072265625,-0.8110527635127306,0.5674772313833236,0.2978042581841349
1725629312056378000,7.682378173828125,-0.5767629461228847,0.7739023057699203,0.07968421595916152
1725629312066331100,7.6923310546875,-0.7160350770823657,-0.008848492366075515,0.2685420694731176
1725629312076284200,7.7022841796875,-0.21743688226640223,-0.04239654170274734,0.28146979397684335
1725629312086238200,7.71223828125,0.006139233407378196,1.2333423562824726,0.06462868564650416
1725629312096191200,7.722191162109375,-0.5618133604027331,0.2016483615040779,0.38673049587160346
1725629312106144000,7.73214404296875,0.2272800847582519,0.11243278548121452,0.37180472941845655
1725629312116098000,7.74209814453125,0.011696867534518242,1.0115151301026344,0.5355056375831365
1725629312126051000,7.752051025390625,-0.44754079227373,0.7708294741958379,0.5403901947543025
1725629312136004000,7.762004150390625,-0.1706232547737658,-0.1584650533378124,0.20483853584751485
1725629312145957000,7.77195703125,0.22162381256222724,0.12283084537684917,0.033392712644487614
1725629312155911000,7.781910888671875,-0.3111883481532335,0.39768180573582645,-0.22245354138463735
1725629312165864000,7.791864013671875,-0.5008955119729042,0.08713526261746883,-0.4208794337108731
1725629312175817000,7.80181689453125,-0.4257176675222814,-0.6478261948615313,-0.5670953924588858
1725629312185771000,7.81177099609375,-0.6682277623772621,-0.17045885799229143,-0.26683190455436706
1725629312195724000,7.82172412109375,-0.7688806782156229,-0.10375029733180999,-0.10809037236273288
1725629312205676800,7.8316767578125,-0.21483006076887248,0.028189737173914906,-0.16240969931036234
1725629312215631000,7.841631103515625,-0.4177455195993185,0.3062736881047487,-0.1142122162438929
1725629312225583900,7.851583984375,-0.07455752059519291,0.6411082847833633,-0.18264350904375315
1725629312235537000,7.861536865234375,0.07890460988879203,0.8966057253748178,-0.36894641737788914
1725629312245490700,7.87149072265625,-0.3548123858243227,0.813356948801875,-0.6266710324995219
1725629312255443700,7.881443603515625,-0.6137171506412327,0.5507148971527814,-0.6750425569586456
1725629312265396700,7.891396728515625,-0.49674350685998797,0.2795171986043453,-0.4302854138292372
1725629312275350800,7.901350830078125,-0.13442016088366507,0.12857435746490956,0.037004911792278286
1725629312285303800,7.9113037109375,0.049301644916087385,0.1282891107827425,0.32034210707619787
1725629312295256800,7.9212568359375,-0.11990998949408531,0.12005728901028632,0.7438539351172745
1725629312305211000,7.9312109375,1.0383272953130305,-0.06656243018805981,0.5002615979835391
1725629312315164000,7.941163818359375,0.8090392317332327,-0.06616729339063167,0.5338400424584746
1725629312325117000,7.951116943359375,0.17152751013711093,-0.03996668420732021,0.4491346373364329
1725629312335070000,7.961070068359375,0.18188450736999512,-0.04644201770126819,0.598142711021006
1725629312345023700,7.971023681640625,0.4448305104017257,0.12379179936349391,0.8867252596125006
1725629312354976800,7.980976806640625,0.28974837750047444,0.4498392784744501,0.5728381738945841
1725629312364929800,7.9909296875,0.26041443872749803,0.521608629655838,0.16339491095542907
1725629312374883800,8.0008837890625,0.4108206887722015,0.46174832745492456,0.4522609526634216
1725629312384836900,8.0108369140625,0.3111605833634734,0.5340858339130878,0.33925212085992096
1725629312394790000,8.020789794921875,0.10961787419095635,0.3431646181285381,0.2266618067294359
1725629312404744000,8.030743896484376,0.1799982552319765,-0.15523323180973528,0.5983110533252358
1725629312414697000,8.040697021484375,0.5817144310504198,-0.33326749349236484,1.1916986787736414
1725629312424650000,8.05064990234375,1.0083014287531376,0.22409400206804275,1.5708447108656167
1725629312434604000,8.06060400390625,0.7776695493489504,-0.09879413622915745,1.268761752448976
1725629312444557000,8.07055712890625,0.8691399185612797,-0.44060792427062984,1.6200830812871456
1725629312454510000,8.080510009765625,1.4211357954353094,-0.6705173346191644,1.4155433822557328
1725629312464464000,8.0904638671875,1.4572943195313215,-0.34363282016217706,1.2922171545773744
1725629312474417000,8.1004169921875,1.1300327884554862,-0.13868833972215652,1.0675140807002783
1725629312484370000,8.110369873046874,0.7786550532549619,-0.14394202246665955,0.9182152073755859
1725629312494324000,8.120323974609375,0.7313058575809002,0.0051303486257791514,0.872602626235783
1725629312504277000,8.130277099609375,0.27177374487072226,0.1974579240769148,0.6874895122081041
1725629312514230000,8.14022998046875,0.20324381400197744,0.12213760241568088,0.2446191959634423
1725629312524184000,8.15018408203125,0.39880496454685926,-0.13888181646764278,0.4150789307385683
1725629312534137000,8.16013720703125,0.685339348436892,-0.21092238580584524,0.37065234451293944
1725629312544089900,8.17008984375,0.5969219370543957,-0.19361469265222547,1.1097463717520237
1725629312554044000,8.1800439453125,0.4214189474150538,0.15692600720226763,1.0103469631060957
1725629312563996700,8.18999658203125,0.39420156240463256,-0.022258593559265134,0.7455839737802743
1725629312573949700,8.19994970703125,0.465863653819263,-0.1168254674822092,1.0813123044282198
1725629312583903700,8.20990380859375,0.07332564071267843,-0.10670096383094788,0.6909048736095428
1725629312593856800,8.219856689453126,0.07751783170551062,-0.6581225479483604,0.5038341957733035
1725629312603809800,8.229809814453125,-0.012820903128385543,-0.8748936597824096,0.5678513253927231
1725629312613763800,8.239763916015624,0.2527010878711939,-0.8507920687049627,0.4557335972100496
1725629312623716900,8.249716796875,0.5480741733856499,-0.6921919908106327,-0.10757394727319479
1725629312633670000,8.259669921875,0.5853742687322199,-0.4796621698081493,-0.2409276479691267
1725629312643623000,8.269622802734375,0.2875982137292623,-0.3218132025420666,-0.22839053021818398
1725629312653577000,8.279576904296874,-0.11880158986076712,-0.23366145635843275,-0.4601552130445838
1725629312663530000,8.289530029296875,-0.3069505644530058,-0.4511059374094009,-0.7446300340563058
1725629312673483000,8.29948291015625,-0.35318200814351436,-0.4410591751694679,-0.3346908042937517
1725629312683436800,8.309436767578125,-0.37750805562660095,-0.014360533785820006,-0.6349117682307959
1725629312693389800,8.319389892578124,-0.5586506585881114,-0.05727379283905029,-1.3271283089607953
1725629312703342800,8.3293427734375,-0.38824996052384375,-0.3061789955586195,-1.2736270203977822
1725629312713297000,8.339296875,-0.28236791186034677,-0.06173311033546924,-0.905074278512597
1725629312723250000,8.34925,-0.6308201150029897,-0.022741408640146253,-0.9887202377095818
1725629312733203000,8.359202880859375,-0.6983060897767543,-0.27614158469140526,-1.064365699671954
1725629312743157000,8.369156982421876,-0.6890215440809726,-0.3896802855879068,-0.9339387000776826
1725629312753110000,8.379110107421875,-0.2526587100341916,-0.3160200060933828,-0.7605100324943661
1725629312763063000,8.38906298828125,-0.22169453971087932,0.06680325320661068,-0.6135119834579527
1725629312773016800,8.399016845703125,-0.5027110369622707,0.3454068440973759,-0.8091431304991245
1725629312782969900,8.408969970703126,-0.27754955179318785,0.2102969473838806,-1.1539452867016196
1725629312792923000,8.4189228515625,-0.3389114907287061,-0.05705751973986625,-1.2211287713974714
1725629312802877000,8.428876953125,-0.18794643775746225,-0.09644085110127926,-1.2542537730164824
1725629312812830000,8.438829833984375,-0.255544056212157,0.03544248478114605,-1.235782735171914
1725629312822783000,8.448782958984374,-0.46812253866195674,0.011148586001992224,-1.275859894016385
1725629312832737000,8.458737060546875,-0.06860767228007317,-0.08708966991007328,-1.4907228341415524
1725629312842690000,8.46868994140625,-0.05197933969274163,0.034873160460591315,-1.2435517617382108
1725629312852643000,8.47864306640625,-0.112202483856678,0.2865092494487762,-1.1203450687862933
1725629312862596900,8.488596923828124,-0.19985431769415735,0.5951543428599834,-1.4156544414147734
1725629312872550000,8.4985498046875,-0.7369364108137786,0.8288041087806224,-1.3252546240434049
1725629312882503000,8.5085029296875,-0.7915601275354623,0.37794074795544147,-1.3766452040627597
1725629312892457000,8.51845703125,-0.2793362890794873,0.29960429334342475,-1.5073992436543107
1725629312902409700,8.52840966796875,-0.22003259784802792,0.40380759513974185,-1.3262155780300497
1725629312912362800,8.53836279296875,0.36496670009195803,0.34150632952749727,-1.0900011492531747
1725629312922315800,8.548315673828125,0.35093525213003157,0.7179781739741563,-0.22694076980128883
1725629312932269800,8.558269775390626,-0.48699923469796774,0.8037181828409433,0.12284107450991869
1725629312942222800,8.568222900390625,-0.23814810025319455,0.4330547324120998,-0.4011401294961571
1725629312952177000,8.578177001953126,-0.03524886190518737,0.13582593602836132,-0.20197766652368007
1725629312962130000,8.5881298828125,-0.1457300018619746,0.2882633996397257,0.3907756065439433
1725629312972083000,8.5980830078125,-0.4814039719741791,0.2261006657153368,0.45254554175846273
1725629312982036000,8.608035888671875,0.11434541416950524,0.44952772830724713,0.8602170457847416
1725629312991989800,8.61798974609375,0.05241232428252697,-0.07020400156080722,0.4710777352057397
1725629313001942800,8.62794287109375,0.023359175212308764,-0.152270290350914,0.458839015879482
1725629313011895800,8.637895751953126,-0.32651626566648484,-0.1773001021891832,0.9689286187857389
1725629313021849900,8.647849853515625,0.2756880687702447,-0.8164198435038328,0.5392424860239029
1725629313031803000,8.657802978515624,0.47260932868719097,-0.726686381086707,0.7862274612706154
1725629313041756000,8.667755859375,1.052936104771495,-0.048931496429443354,0.9309199367783964
1725629313051710000,8.6777099609375,0.9581927052378654,-0.11462708065509795,0.3048935588579625
1725629313061663000,8.6876630859375,0.4878233374971896,-0.0533475593060255,-0.08296893671825528
1725629313071616000,8.697615966796874,0.5717559316158294,-0.26639702026844025,-0.6696702162705361
1725629313081569800,8.70756982421875,0.11903196455053984,-0.29782676227688787,-1.1374994710743427
1725629313091522800,8.717522705078125,0.18153496327996252,-0.3913660467177629,-0.908002806245163
1725629313101475800,8.727475830078125,0.32969482263736427,-0.5758434931904077,-0.39476182663589715
1725629313111429600,8.7374296875,0.41887876141294833,-0.5543903707951306,-0.1371484168037772
1725629313121382700,8.747382568359376,0.6281827522367238,-0.5071557414114475,-0.4657338168945163
1725629313131335700,8.757335693359375,0.4398481188792735,-0.4198533055335283,-0.6672554102137684
1725629313141289700,8.767289794921876,0.5472458328027278,-0.2158043126285076,-0.8100345994461328
1725629313151242800,8.77724267578125,0.4482791895508766,-0.18342939872443675,-1.2071543143197894
1725629313161195800,8.78719580078125,0.31876784349679943,-0.09191782071888446,-0.8782717579133809
1725629313171149800,8.79714990234375,0.4528302769839763,0.08379764262735843,0.008416822950541972
1725629313181102800,8.807102783203124,0.7640315576840192,0.4450672417670488,0.35276517097093163
1725629313191056000,8.817055908203125,0.4716238978464156,0.3165297091811895,0.6259517783142626
1725629313201009700,8.827009765625,0.191969701924175,0.18890519978702067,0.3705459615290165
1725629313210962700,8.836962646484375,0.12465469980314373,-0.017252748095989225,-0.015558657529205083
1725629313220915700,8.846915771484374,-0.2855996603231877,-0.16348317376077173,0.2546848090343177
1725629313230868700,8.85686865234375,-0.4054869265288114,0.01557341670691967,-0.13407821557819843
1725629313240822800,8.86682275390625,-0.45216275298595426,-0.08251520160138606,-0.16014818411916493
1725629313250775800,8.87677587890625,-0.48326983891129494,0.2554272979646921,-0.3916076734539121
1725629313260728800,8.886728759765624,-0.7248152534525841,0.5110276144087315,-0.5054010797638446
1725629313270683000,8.896682861328125,-0.9888385303270071,0.5297124411344528,-0.453115742861852
1725629313280636000,8.906635986328125,-1.1261006366383284,0.18202070097029208,0.06750497173517941
1725629313290589000,8.9165888671875,-0.808804692324996,0.09667290629148483,0.1296258392792195
1725629313300542700,8.926542724609375,-0.7954548699516802,0.11773498354256152,0.23250753708295524
1725629313310495700,8.936495849609376,-0.742075161941722,0.21106968532204626,0.3177185536395758
1725629313320448800,8.94644873046875,-0.5439519788891076,0.15552315466701983,0.5944197449751198
1725629313330402800,8.95640283203125,-0.36699089939594265,0.1823556320130825,0.5544274879351258
1725629313340355800,8.96635595703125,-0.22173078006803987,0.08287234447598457,0.6244562790594995
1725629313350308600,8.97630859375,-0.4201286153435707,-0.21578268531858918,0.7540561801798641
1725629313360263000,8.986262939453125,-0.4381273595012724,-0.21195465146303175,0.810572578780353
1725629313370215700,8.996215576171876,-0.6285656140744685,-0.21841712547540662,0.8394910686202347
1725629313380168700,9.006168701171875,-0.07014686454609036,-0.15071546212434767,0.6093593938231467
1725629313390122800,9.016122802734374,-0.49541561925709243,-0.33035423639416694,0.6894716259360313
1725629313400075800,9.02607568359375,-0.4702252100296318,-0.16130933685302734,0.44628114760145543
1725629313410028800,9.03602880859375,0.5017622118048369,-0.24442659600079059,-0.12775690360218286
1725629313419982600,9.045982666015625,-0.5712437443099916,0.05646539906561374,-0.14589286427348852
1725629313429935600,9.055935546875,-0.9611733284838497,-0.008016133195161819,-0.2087551247693598
1725629313439888600,9.065888671875,-0.7850958999574184,-0.08026186971664429,-0.27362857895717024
1725629313449842700,9.0758427734375,-0.5641776053160429,0.13911679426729678,-0.37237390760853883
1725629313459795700,9.085795654296875,-0.48219651059135793,0.1530278307199478,-0.3543075050421059
1725629313469748700,9.095748779296875,-0.10047069113925099,0.443283865481615,-0.1874161302730441
1725629313479702800,9.105702880859376,-0.007443447873741388,0.9284574921876192,-0.4685805115625262
1725629313489655800,9.11565576171875,-0.2900767326720059,0.3693991295814514,-0.8738684083878994
1725629313499608800,9.12560888671875,-0.07561097517088056,0.4868085344314575,-1.0016349566012621
1725629313509562600,9.135562744140625,0.11040376387163996,0.495873299896717,-0.7816672406829893
1725629313519515600,9.145515625,0.051679479963332414,0.5584393539249897,-0.67017129766047
1725629313529468700,9.15546875,0.19719269726946947,0.5440513476103543,-0.30229689342826604
1725629313539421700,9.165421630859376,0.5084206467807293,0.6868886237055063,-0.08452683368474244
1725629313549375700,9.175375732421875,0.18802958599627018,0.6434779365241527,-0.001660334427654743
1725629313559328800,9.185328857421876,0.32124431661292907,0.3844692729413509,0.16232465137541294
1725629313569281800,9.19528173828125,0.3377472692549228,0.2657563842773437,0.33853725058883427
1725629313579235800,9.20523583984375,0.4708933185495436,0.05728548327684402,0.2575593415573239
1725629313589188900,9.21518896484375,1.035518521502614,-0.12989128528237343,0.4808677462056279
1725629313599142000,9.225141845703124,1.0407020616203546,-0.1467974118977785,0.5596326553627848
1725629313609096000,9.235095947265625,0.8557330322384834,-0.23661972164213657,0.644622430384159
1725629313619049000,9.245049072265624,1.0797962007768451,-0.3512853807419538,0.4747825810730457
1725629313629001700,9.255001708984375,0.64318450653553,-0.5231003295183182,0.9578902151599525
1725629313638955800,9.264955810546875,0.5270265630513429,-1.0375129101902245,1.0400079418763517
1725629313648908800,9.27490869140625,0.8831330803394317,-0.6580611731499433,1.3442960091218352
1725629313658861800,9.28486181640625,1.2343307827979326,-0.21871347807347774,1.2233452784031629
1725629313668816000,9.29481591796875,1.0361483438387513,-0.019597265395522118,1.0693836739644407
1725629313678769000,9.304768798828125,0.5991849135503172,-0.5125041167020797,0.9413882854312657
1725629313688721700,9.3147216796875,0.36096564775705337,-0.8072229760915041,1.0965218562588095
1725629313698676000,9.324676025390625,0.6438447240099311,-0.39376667811870575,1.0263014880850911
1725629313708628700,9.334628662109376,0.7731485647931694,0.14273089311122894,1.1531380619719624
1725629313718581800,9.344581787109375,0.7238084875628352,0.021986206358671188,0.7847937021404504
1725629313728535600,9.35453564453125,0.6724664228603243,0.37447336410582066,0.4801014380082488
1725629313738488600,9.364488525390625,0.4756500115573406,0.2211585331380367,0.3475748357862234
1725629313748441600,9.374441650390626,0.7161290389761328,0.11637889275848864,0.34323826788663864
1725629313758395600,9.384395751953125,0.9264648570656776,-0.17624504017829895,0.4847232525900006
1725629313768348700,9.3943486328125,0.7385080440446734,-0.3370435048997402,0.4973047940045595
1725629313778301700,9.4043017578125,0.8698077348202466,-0.5856874263346195,0.24663258161246776
1725629313788255700,9.414255859375,0.8761410294950008,-0.24159108031392096,0.3268576264500618
1725629313798208800,9.424208740234375,0.42059973998665806,-0.012346855875849723,0.20260814644694328
1725629313808161800,9.434161865234374,0.3718991297036409,-0.04973930568099021,-0.4346256349906325
1725629313818114800,9.44411474609375,0.556551348221302,-0.08656944542825222,-0.14162439317405223
1725629313828068600,9.454068603515625,0.4418830587729811,0.14479191729426383,-0.12038549805134534
1725629313838021600,9.464021728515625,0.5116694194436073,-0.2815963429659605,-0.2774316245019436
1725629313847974700,9.473974609375,0.891774944217503,-0.5579442638844251,0.1788598988518119
1725629313857928700,9.4839287109375,0.3737130472578108,-0.48085108733177184,0.09195786046832799
1725629313867881700,9.4938818359375,-0.021822832490503787,-0.7402192318767309,0.055364452086389064
1725629313877834800,9.503834716796876,0.20302797929421065,-0.7612626044273376,0.07336363463550806
1725629313887788800,9.513788818359375,0.39023865012302994,-0.6834580647349358,-0.014848609563708304
1725629313897741800,9.523741943359376,0.34786125151216984,-0.38199206917285916,-0.16579963400959968
1725629313907694800,9.53369482421875,0.3744321553125977,-0.303583718368411,-0.20321634147316217
1725629313917649000,9.54364892578125,0.15475976907908914,-0.02011398274600506,-0.23280454726815222
1725629313927602000,9.553601806640625,-0.05972936929762363,0.00867138223350048,-0.38727570866420863
1725629313937555000,9.563554931640626,0.27978753997832534,0.14561375507116317,-0.42151539352685213
1725629313947508700,9.5735087890625,-0.2588818223327398,0.4101771301716566,-0.5244217873804271
1725629313957461800,9.583461669921874,-0.2975216418504715,0.5278770424008369,-0.9044066083841026
1725629313967414800,9.593414794921875,-0.4464361920326948,0.3114537210911512,-0.9434557393550872
1725629313977368800,9.603368896484374,-0.18289748380482196,0.3222387344777584,-0.84103376801759
1725629313987321900,9.61332177734375,0.054697366479784244,0.3217652717471123,-1.113167139980942
1725629313997275000,9.62327490234375,0.26043138986229897,0.3249538386553526,-1.166530189117044
1725629314007229000,9.63322900390625,-0.06342895446792245,0.2854173625588417,-1.0778079495690762
1725629314017182000,9.643181884765625,-0.2645740426249802,0.10695055467784405,-0.8664495104335248
1725629314027134700,9.653134765625,-0.3827029939211905,0.24097324067652223,-0.8013583218418061
1725629314037088800,9.6630888671875,0.05459551354050636,0.1219318507105112,-0.7284808632880448
1725629314047041500,9.67304150390625,-0.015234832402318715,0.4369353732377291,-0.9187943224377929
1725629314056994600,9.68299462890625,-0.41699265540540215,0.26839608513116836,-0.9831756091944873
1725629314066947600,9.692947509765625,-0.008817366575449705,0.28152093964219094,-1.1094638284835965
1725629314076901600,9.702901611328125,-0.26673896557390686,0.5413502719581127,-0.9055020024053752
1725629314086854700,9.712854736328126,-0.1073141272932291,0.860321529072523,-0.9550697509117424
1725629314096807700,9.7228076171875,0.08632862240970134,0.44029345149397847,-1.118072886070609
1725629314106761500,9.732761474609376,0.09186214500889181,0.47170799593329427,-0.984564579334855
1725629314116714500,9.742714599609375,0.23653613501191137,0.4691308389216661,-1.1323127160862088
1725629314126668500,9.75266845703125,0.3132579940341413,0.13681670063138007,-1.1301622600540517
1725629314136621600,9.76262158203125,0.2528396195590496,0.1368628778606653,-0.7335635733798146
1725629314146574600,9.77257470703125,-0.06498933565244078,0.188807584631443,-0.616731383895874
1725629314156528400,9.7825283203125,-0.30076150055453177,0.029351766690611836,-0.4397421012215316
1725629314166481400,9.7924814453125,-0.35755773900970816,-0.1841623891741037,-0.4615122536767274
1725629314176434200,9.80243408203125,-0.12464739327952265,-0.1646563091933727,-0.3130420131959021
1725629314186388500,9.812388427734374,0.2041920546375215,0.046238604083657264,-0.27448884904831644
1725629314196341500,9.822341552734375,0.47701487016975874,-0.327137027913332,-0.879071676119417
1725629314206294300,9.832294189453124,0.2000653300963342,-0.2877355763733387,-0.4209625088844448
1725629314216248600,9.84224853515625,0.43694472558796404,-0.31486908249258994,0.049104222647845745
1725629314226201300,9.852201416015625,0.549021391107887,-0.3582090425252914,0.11514767046310007
1725629314236154400,9.862154296875,0.1961499102182686,-0.38849195258617397,0.1504940744586289
1725629314246108400,9.8721083984375,0.7024497654527425,-0.6864677679449319,-0.17691753261238335
1725629314256061400,9.8820615234375,0.6207968797691166,-0.3143967888057232,-0.30352848104983565
1725629314266014500,9.892014404296875,0.5786135424256325,-0.24517653758525848,-0.26130722284875807
1725629314275968300,9.90196826171875,0.8398534721918404,0.010826514440774917,0.03526771273612976
1725629314285921300,9.91192138671875,0.21473931374549865,-0.05251052395999431,-0.07992796158716083
1725629314295874300,9.921874267578126,0.4502667101062834,-0.4029471789181232,-0.04994666482135653
1725629314305827300,9.931827392578125,0.5692370806626975,-0.23549860865771768,0.16404606834053992
1725629314315781400,9.941781494140624,0.7716618333667516,-0.05988251403272152,-0.006264248026534915
1725629314325734400,9.951734375,0.5283130957305431,0.16917817053198814,-0.1895054307024926
1725629314335687400,9.9616875,0.4635246894776821,0.023418869510293004,-0.2690214504878968
1725629314345641500,9.971641357421875,0.2624946060024202,0.15908581558465956,-0.3283201732832938
1725629314355594500,9.981594482421874,0.19919863026440143,0.22532091351449487,-0.3374262936722487
1725629314365547500,9.991547607421875,0.06129238083064556,-0.054204468396306035,-0.3365568173613399
1725629314375501300,10.001501220703124,0.29462182875573634,-0.12418342902958393,-0.15845299757383763
1725629314385454300,10.011454345703125,0.3571966506123543,0.3489771037995815,-0.08351466096751392
1725629314395407400,10.021407470703124,0.2944961565494537,0.6003530805468559,-0.0017255816835910081
1725629314405361400,10.031361328125,0.1573328344374895,0.31777415628433225,0.16558043830096722
1725629314415314400,10.041314453125,0.5008364752620458,0.30767186446487904,0.1040844977222383
1725629314425267500,10.051267333984375,0.015945903281122446,0.317491247689724,-0.01988784583993256
1725629314435221500,10.061221435546875,0.3098211514532566,0.1027607017725706,-0.5659363586168736
1725629314445174500,10.071174560546876,0.2892845593810081,0.029180501776933668,-0.6841193781878799
1725629314455127600,10.08112744140625,0.15192425339221954,0.28185879329442975,-0.5525817870032042
1725629314465081300,10.091081298828126,-0.11957286649420856,0.5482563980847597,-0.32400523269362747
1725629314475034400,10.101034423828125,-0.15875629136934877,0.2787812855452299,-0.11977730302512644
1725629314484987400,10.1109873046875,-0.35247371374368663,-0.07486030293405055,0.21550379531197247
1725629314494941400,10.12094140625,0.16016469686254858,0.0787228235810995,0.30934359706938264
1725629314504894500,10.13089453125,0.04147124355137348,-0.23904256487488745,0.5511247931279242
1725629314514847200,10.14084716796875,0.4293612847216427,0.10247837769985198,0.3113338941037655
1725629314524801500,10.150801513671874,0.16125219983831046,1.1713631622314453,0.13811587359644473
1725629314534754300,10.16075439453125,-0.07716901826784014,-0.20785949110388754,0.3031999797478318
1725629314544707300,10.170707275390624,0.1734174155369401,-0.10625789623856544,0.2896380489937961
1725629314554661600,10.18066162109375,-0.26358897711038587,0.4332160604536533,0.31199981066659094
1725629314564614400,10.190614501953124,-0.23404621789231894,0.6149065065562724,0.17647241919338702
1725629314574567400,10.2005673828125,0.1936222914367914,-0.4307254126816988,-0.03563070082962513
1725629314584521200,10.210521240234375,0.1246079380519688,-0.20924305441677568,0.030524317601323125
1725629314594474200,10.22047412109375,-0.09301189956590533,0.42527182345092296,-0.0172255678281188
1725629314604427300,10.23042724609375,0.11013692962899803,0.7465776609927416,-0.5417480391040445
1725629314614381300,10.24038134765625,-0.4768598257385194,-0.14492285019755363,-0.3725701608330011
1725629314624334300,10.250334228515625,-0.15681947808787225,0.1622773051023483,-0.24446093666180968
1725629314634287400,10.260287353515626,-0.060452861266583204,0.7815355771273375,-0.36466596357971426
1725629314644241400,10.270241455078125,-0.34662148058414455,0.9269950184196233,-0.7319768887102603
1725629314654194400,10.2801943359375,-0.46180385703444476,0.5152864408969878,-0.37096287176683546
1725629314664147500,10.2901474609375,0.14704422626569866,0.5013800806194544,-0.4894165249727666
1725629314674101200,10.300101318359374,0.2866185550421476,0.7132973226815462,-0.7637903693392872
1725629314684054300,10.31005419921875,0.011102993294596672,0.8265057687103747,-0.5951452827706932
1725629314694007300,10.32000732421875,-0.13549655794352292,0.11144669705331325,-0.6073387016505003
1725629314703961300,10.32996142578125,0.3549620234280824,-0.06664017159938812,-0.6311274273864924
1725629314713914400,10.339914306640624,0.46523850765824315,-0.013961889857053756,-0.12979571595340966
1725629314723867400,10.349867431640625,0.4716080426901579,0.2288409043341875,0.02712999898791313
1725629314733821400,10.359821533203124,0.6138952836871147,0.2617845580369234,0.09840864404290914
1725629314743774500,10.3697744140625,0.947932300247252,0.0405640655785799,0.18468261365592478
1725629314753727500,10.3797275390625,0.5896697739690542,0.10182020605206489,0.3440603979244828
1725629314763681500,10.389681640625,0.10578618707358836,-0.11952888122200965,0.2021270849317312
1725629314773634600,10.399634521484375,0.38193127889633177,-0.3943687356650829,0.48669221457540984
1725629314783587300,10.40958740234375,0.466036964559555,-1.1227326945751905,-0.09702654203474521
1725629314793541400,10.419541259765625,0.19684300704896449,-1.0624182188659905,0.7333440854102373
1725629314803494400,10.429494384765626,0.3345145709440112,-0.20813655447959897,1.1276602141052483
1725629314813447400,10.439447509765625,0.1393754452034831,-0.07319909172356129,0.9110697195351123
1725629314823401500,10.4494013671875,0.3768731187239289,-0.0873193870127201,0.9896502120360732
1725629314833354500,10.4593544921875,0.7256102762877941,0.29135259782671924,1.3927330000326037
1725629314843307500,10.4693076171875,0.4536237654492259,0.2622007376223802,0.9888698753133416
1725629314853261600,10.479261474609375,0.5187251831740141,-0.009845686709880829,0.7041717669397592
1725629314863214600,10.489214599609374,0.823644534060359,0.21547113515138624,0.7912710814610123
1725629314873167400,10.49916748046875,0.3601756664231419,0.474449988117814,0.8253112982288002
1725629314883121400,10.509121337890624,0.1017129462853074,-0.05850596498250961,0.5052224352613092
1725629314893074400,10.519074462890625,0.3186781193867326,-0.3577309036195278,0.6362494465753435
1725629314903027200,10.529027099609374,0.5843950484365225,-0.07666881366074085,0.8621490367606282
1725629314912981500,10.5389814453125,0.8635153566777706,0.28467034358382226,0.5898270103573798
1725629314922934300,10.548934326171874,0.9294377353966236,0.17670564342737197,0.34644846210479735
1725629314932887300,10.55888720703125,0.6648214610651135,-0.19106909982264042,0.5266565606951713
1725629314942841300,10.56884130859375,0.4668567565098405,-0.5009884509533643,0.7925000387340784
1725629314952794400,10.57879443359375,0.6235621066987515,-0.723133657041192,0.7978118814066052
1725629314962747400,10.588747314453125,0.7570142993330955,-0.8126753962785005,0.7196563363194465
1725629314972700400,10.598700439453125,0.550721326893568,-0.7969196087419986,0.7494011939808726
1725629314982654200,10.608654296875,0.49634910071492194,-0.6312187589317559,0.4597597839862108
1725629314992607200,10.618607177734376,0.3196525173768401,-0.3433522496551275,0.48352673628181214
1725629315002560300,10.628560302734375,0.44505467454642056,-0.09229133020639418,0.30290508845448494
1725629315012514300,10.638514404296876,0.6806167038291693,-0.0026309330254793164,-0.047156303450465197
1725629315022467300,10.64846728515625,0.7163523263379931,-0.04336450995206833,-0.09803221194595098
1725629315032420400,10.65842041015625,0.7625199110120534,-0.11783552130758762,-0.036649522483348844
1725629315042374400,10.66837451171875,0.3835091957375407,-0.2629518482506275,-0.17931582592576742
1725629315052327400,10.678327392578124,0.21783903332650661,-0.3232172241210937,-0.10386690944880246
1725629315062280400,10.688280517578125,0.1660170761525631,-0.3097410719543695,-0.0013835633128881453
1725629315072234500,10.698234375,-0.1388929223835468,-0.12872224150300024,0.10625175875872372
1725629315082187500,10.7081875,0.0015557050094008446,-0.047476621446013445,-0.12006722588241099
1725629315092140500,10.718140625,0.12849018631279469,-0.005168342548608779,-0.15574351941943168
1725629315102094300,10.72809423828125,0.07725128972381352,0.17944588204622267,0.14476707511395215
1725629315112048000,10.738048095703125,0.48791444984674454,0.5763122797459364,0.08978285451680422
1725629315122001200,10.748001220703125,0.033273616309463974,0.7944751381993294,-0.013792963030934333
1725629315131954200,10.7579541015625,0.0021662381231784818,0.5641401959151029,-0.23942864158302543
1725629315141908200,10.767908203125,0.3517652732133865,0.45985798366367814,-0.4251446899399161
1725629315151861200,10.777861328125,-0.23936522095799445,0.45317514489889144,-0.37218817577809093
1725629315161814300,10.787814208984376,-0.2798722956523299,0.23778058211505412,-0.42993280099928377
1725629315171768000,10.79776806640625,0.01589753409475088,0.14424305123984812,-0.24675883834064005
1725629315181721000,10.80772119140625,0.07913841864466667,0.20737258436977862,-0.11736527344733476
1725629315191674000,10.817674072265625,0.09878361483514309,0.24923779567480087,0.050950873427838085
1725629315201628200,10.827628173828124,0.09037205258160828,0.3017477351129055,0.09628872927948832
1725629315211581200,10.837581298828125,-0.3233317904114723,0.22624387357831,0.11116071971878409
1725629315221534200,10.8475341796875,-0.4156678365424275,0.012861819660663604,0.23817118886783717
1725629315231487000,10.857487060546875,-0.09502499295398592,0.13536357921361922,0.010637421609461307
1725629315241441300,10.867441162109374,-0.29167876104116436,0.10728256311118602,0.021757804430276154
1725629315251394000,10.87739404296875,-0.2405734277039766,0.4315004887074232,-0.030843904944509264
1725629315261347000,10.88734716796875,0.03959185954555869,0.32279695288240906,0.13308482062667606
1725629315271301000,10.897301025390625,0.16080124120041728,0.6656774933725595,0.05098346052318811
1725629315281254100,10.907254150390624,0.2564608787961304,0.6706260556906462,-0.03973492127805948
1725629315291207200,10.917207275390625,0.25947277396321294,0.784995946714282,0.25492797014042734
1725629315301161000,10.927160888671875,0.08654723359644413,0.9544494270563125,0.34421661139950155
1725629315311114000,10.937114013671875,-0.2521598206013441,0.442871777549386,0.2977992897480726
1725629315321067000,10.94706689453125,0.14000219879969952,0.039649288821220395,-0.0161461020283401
1725629315331020000,10.95702001953125,0.17911957270130513,0.23951485856175422,-0.11796557742804288
1725629315340974000,10.96697412109375,-0.07723112371861934,0.5770172131448984,0.2519906015142798
1725629315350927000,10.976927001953126,0.3222377115644514,0.7403916658341885,-0.03269026346355677
1725629315360880000,10.986880126953125,0.10511749403178691,0.7223357846617698,-0.06271262289211153
1725629315370834200,10.996834228515626,-0.004058189349621534,0.15234686271846293,-0.17331527033671737
1725629315380787200,11.006787109375,0.1081201829791069,-0.04619125781059265,-0.12155994865819811
1725629315390740200,11.016740234375,0.42582127402722836,0.09979016152918338,-0.1772602085702121
1725629315400693200,11.026693359375,0.6363181278973817,0.05162146616578102,-0.36634310301169754
1725629315410647000,11.03664697265625,-0.06796937437653541,0.25438334186971184,0.34314036047011615
1725629315420600000,11.04660009765625,0.5953473812140524,0.13201719139516352,0.18007088207677005
1725629315430553000,11.056552978515626,0.35411285925284025,0.025758126112818715,-0.07953530900776386
1725629315440507100,11.066507080078125,0.2073663007594645,0.05462181702554226,-0.261074656201899
1725629315450460200,11.076460205078124,0.6865631911434232,0.07451251240968704,-0.5707470468342304
1725629315460413200,11.0864130859375,0.2179923241920769,-0.1555512117177248,-0.42208398719504475
1725629315470367200,11.0963671875,0.3697236853606999,-0.3527893555641174,-0.3974132179275155
1725629315480320300,11.1063203125,0.25173078153431416,-0.2618663911014795,-0.147640438593179
1725629315490273300,11.116273193359374,0.42761984788179397,-0.11827508176863193,-0.20944676029533146
1725629315500226300,11.126226318359375,0.29531331815123557,-0.4358703743547201,-0.2922742427162826
1725629315510180400,11.136180419921875,0.3048668900467455,-0.7914251029789448,-0.28837343588545916
1725629315520133400,11.14613330078125,0.29130335185751316,-0.7680038953810929,-0.38821883473321794
1725629315530086100,11.156086181640624,0.5743307505398988,-0.8171329602092504,-0.3349535468831658
1725629315540040200,11.166040283203126,0.7668925731383264,-0.2726256855249405,-0.21161095259189605
1725629315549993000,11.175992919921875,0.521274867656827,0.09161737646758555,-0.4542971346661448
1725629315559946000,11.185946044921875,0.553500143957138,-0.07708090159296989,-0.7031931311659515
1725629315569899000,11.19589892578125,0.48708311358913775,-0.2299164246112108,-0.5333006748847663
1725629315579853000,11.20585302734375,0.17370426965430377,0.050236149287223815,-0.535230620034039
1725629315589806000,11.21580615234375,-0.32135143024921414,0.32733401179015637,-0.2025920720949769
1725629315599759000,11.225759033203126,-0.524145893048495,0.19613748912811277,0.04761880639567971
1725629315609713200,11.235713134765625,-0.09365019746944307,0.00871580589711666,0.05297229625284672
1725629315619666200,11.245666259765626,0.3644505672633648,0.277199569311738,0.10205357641652225
1725629315629619200,11.255619140625,0.6897301307417452,0.32178222288191316,-0.4321968004085123
1725629315639572200,11.265572265625,0.683778382730484,0.29852526593506334,-0.9163489751122892
1725629315649526000,11.275526123046875,0.2869727753072977,0.056174891686439514,-0.9439641272686421
1725629315659479000,11.28547900390625,-0.5183119261980056,-0.008683657193183899,-0.29476956666335463
1725629315669432000,11.29543212890625,-0.799941148520261,-0.5270388380110264,0.3389477310858667
1725629315679386000,11.30538623046875,-0.7972849349230527,-0.6710930886805058,0.9621259530335664
1725629315689339100,11.315339111328125,-0.1597200218349695,-0.2118038448154926,0.8954910421311855
1725629315699292200,11.325292236328124,-0.09659341131448745,0.3964782751649618,0.3124735656581819
1725629315709245200,11.3352451171875,-0.09880874927639961,0.9431348368376493,-0.046017070287466044
1725629315719199200,11.34519921875,-0.2193734032869339,0.763531718403101,0.1623040469788015
1725629315729152300,11.35515234375,0.22446400442421435,1.1943506545871496,-0.31224370242506266
1725629315739105300,11.365105224609374,-0.7123924827963113,1.1728840881884097,-0.34989962547197934
1725629315749058300,11.375058349609375,-0.5133287309579551,0.3165180187433958,-0.1725365410491824
1725629315759012000,11.38501220703125,-0.19320830380842088,0.9587456629455089,0.03301730346083641
1725629315768965000,11.394965087890625,-0.5461053575307131,1.1868453935235739,0.3651717211447656
1725629315778918100,11.404918212890625,-0.5426578474253416,0.12138181561231612,0.5906619998767971
1725629315788872200,11.4148720703125,-0.13809388096034525,0.38961891078948974,0.6384941567622124
1725629315798825200,11.4248251953125,-0.017374328649044035,0.46609424770474434,0.603476765525341
1725629315808778000,11.434778076171876,0.019756839871406553,-0.4088473428726196,0.6083746205694973
1725629315818731000,11.44473095703125,0.34463995137810705,-0.3089280020058155,0.375737100431323
1725629315828685000,11.45468505859375,-0.09969590737447143,-0.1722469104528427,0.40361543356850743
1725629315838638000,11.46463818359375,-0.24607129446789622,-0.263102070376277,0.21877631417661905
1725629315848591000,11.474591064453126,0.2863099274843931,-0.3091407679736614,-0.08856748737767338
1725629315858544000,11.484544189453125,-0.028544541960954663,0.08204407695829868,-0.21377660619318484
1725629315868498200,11.494498291015624,-0.5754734908342362,0.24682430479228495,-0.1729166264079511
1725629315878451200,11.504451171875,-0.2509709030777216,0.3084872725009918,-0.342970849122107
1725629315888404200,11.514404296875,-0.5011057937227189,0.6456096878558397,-0.27056656103804705
1725629315898358000,11.52435791015625,-0.6873346139073372,0.7464888136655092,-0.2573755094230175
1725629315908311000,11.53431103515625,-0.5061982945561408,0.4963982005536556,-0.4039084251657128
1725629315918264000,11.54426416015625,-0.1784603781402111,0.4615151032209396,-0.2403054244175553
1725629315928217000,11.554217041015624,-0.2531627140335739,0.5731827495485544,-0.20106091700494289
1725629315938171100,11.564171142578125,-0.5523455670945346,0.4728869765847921,-0.1903156511068344
1725629315948124200,11.574124267578124,0.6766502844162285,-0.05875614035129547,-0.26226561955213545
1725629315958077200,11.5840771484375,0.6491583202481269,0.049724692633748055,-0.027999475298821925
1725629315968031200,11.59403125,0.026263445286452768,0.2665127556025982,0.31281010413616894
1725629315977984300,11.603984375,-0.11879282203242182,0.30778759979903697,0.34299422999769447
1725629315987937300,11.613937255859375,0.3103847766853869,0.003681318861246109,0.5915253387078643
1725629315997890300,11.623890380859375,0.3036912703961134,-0.12186404617130756,0.8673571267977357
1725629316007844000,11.633843994140625,0.47381344377994533,-0.013301380121707916,0.9070350571915506
1725629316017797000,11.643797119140626,0.5419548137225211,0.1430377671033144,0.6051937985762953
1725629316027750100,11.653750244140625,0.5145280237451195,0.08202069608271122,0.7638233948260545
1725629316037703000,11.663702880859375,0.6083605920441448,0.11632511674463748,0.6656941522464156
1725629316047657200,11.6736572265625,0.02466755439713597,-0.5038274737715721,0.4674178975239396
1725629316057610000,11.68360986328125,0.33167876299619675,0.08156944518387317,0.7375245859652757
1725629316067563000,11.69356298828125,0.4914388245806098,0.6538081918805837,0.8063467777788639
1725629316077516000,11.70351611328125,0.6173614984929561,0.41201662055850025,0.4671370347559452
1725629316087470000,11.713469970703125,0.6524000786483287,0.16656477316319943,0.41975364455133674
1725629316097423000,11.723423095703126,0.34770196929723024,-0.01671148082613945,0.5033747615680099
1725629316107376000,11.733376220703125,0.10549874843433499,0.49161271984279153,0.6812415577292442
1725629316117330200,11.743330078125,0.4753828850537538,0.028789456632733343,0.7166773205086588
1725629316127283200,11.753283203125,0.5208313616730272,-0.23542262081205845,1.0373366768404841
1725629316137236200,11.763236328125,0.38532618203163144,-0.5173194080293179,0.783960758447647
1725629316147189000,11.77318896484375,0.7547055839993059,-0.5712631796628237,0.6232035025194287
1725629316157143000,11.78314306640625,0.9019532238826156,-0.7284399467557668,1.0240545859411359
1725629316167096000,11.793095947265625,0.4995798993296921,-0.7669172691881656,1.221782266870141
1725629316177048800,11.803048828125,0.36266207641139625,-0.8883394168108701,1.1312652528598903
1725629316187001900,11.813001953125,0.4749271041102707,-1.0435592046171427,1.6677444116503
1725629316196956000,11.822955810546874,0.616897388112545,-0.9088613958358764,1.6879098323225974
1725629316206909000,11.832908935546875,0.13759148439615965,-0.8837187712728977,1.3536214713498949
1725629316216862000,11.842862060546874,-0.12819675632417202,-0.5516483786106109,1.0358259800165892
1725629316226816000,11.85281591796875,0.1737738277591765,-0.31454233475625515,0.847969704760611
1725629316236769000,11.86276904296875,0.1793663870692253,0.03415712114572525,0.8385054185837507
1725629316246722000,11.87272216796875,0.3124785340942442,0.19693711507320402,0.66675827434659
1725629316256675000,11.882675048828125,0.22155659254491328,-0.19898469525277612,0.7787514993667602
1725629316266628900,11.89262890625,-0.16031915677189826,-0.3684720778644085,0.7255708210602402
1725629316276582000,11.902581787109375,0.09552081364691258,-0.4906114338457584,0.6723609166592359
1725629316286535000,11.912534912109376,-0.17318506808578968,-0.2866764227092266,0.6172296888068318
1725629316296488000,11.922488037109375,0.009357757062464951,-0.2782277433156967,0.17482699007391928
1725629316306442000,11.93244189453125,0.11239946773350239,-0.08327274197041988,0.1883727003455162
1725629316316395000,11.94239501953125,0.023120763346552848,0.41698505662083624,0.18641192166656254
1725629316326348000,11.95234814453125,0.19772358927577732,0.4571066391289234,-0.22402006004899738
1725629316336302000,11.962302001953125,0.21422025830745695,0.5561638102084397,-0.2841752535432577
1725629316346255000,11.972255126953126,-0.06492050819993019,0.7615542808502912,-0.29031214886307716
1725629316356208000,11.9822080078125,-0.1453480898723006,0.6455716939330101,-0.5451327131062745
1725629316366161200,11.9921611328125,-0.18372458227872848,0.3427525301963091,-0.6549690523535013
1725629316376115200,12.002115234375,-0.27063597301244735,0.5068488674193621,-0.5435664867028593
1725629316386068200,12.012068115234374,-0.4656511801123619,0.4147720567464828,-0.8014478998214006
1725629316396021200,12.022021240234375,0.16026757271513342,-0.017672434812784195,-0.8125210824996233
1725629316405974000,12.03197412109375,-0.10933891111910342,-0.032408231651782984,-0.576947070518136
1725629316415928000,12.041927978515625,-0.25993440012559293,-0.21392799736261367,-0.6387929935783148
1725629316425880800,12.051880859375,0.13487155791297553,-0.3258639392375946,-0.6529077359095216
1725629316435833900,12.061833740234375,0.0012853636354207992,-0.10149462735950947,-0.3626078620061278
1725629316445787000,12.071786865234374,-0.42266953199803825,0.08604396024942397,-0.27114114605560896
1725629316455741000,12.081740966796875,-0.6850346664018928,-0.21027941172719,-0.12465104654133319
1725629316465694000,12.09169384765625,-0.1970955205053091,-0.3638315585821867,-0.24744813577905295
1725629316475647000,12.10164697265625,-0.5092050751566887,-0.17942542378008364,-0.4659780739791691
1725629316485601000,12.11160107421875,-0.6010568449020386,-0.2099088248491287,-0.6896025588393211
1725629316495554000,12.121553955078125,-0.15099953976273536,-0.19303660050332544,-0.9464381161667406
1725629316505507000,12.131507080078125,-0.5424558951124548,0.22912673553824423,-1.0484985607154667
1725629316515460000,12.141460205078126,-0.6970651498049497,0.5864607487946748,-0.906194076322764
1725629316525414000,12.151413818359375,-0.31369594705998893,0.4932657477468252,-1.1008648538991808
1725629316535367000,12.161366943359376,-0.27960370784401894,0.6240583657830954,-0.5947768878497183
1725629316545320000,12.17131982421875,-0.7478162628769874,0.804375185444951,-0.34598522850722074
1725629316555274000,12.18127392578125,-0.4273948069542646,0.7348381233602762,-0.6247600843116641
1725629316565227000,12.19122705078125,-0.2943221151567995,0.5355336946338415,-0.6952034475862979
1725629316575180000,12.201179931640626,0.08124109001234173,0.5836790091216564,-0.6452309176713228
1725629316585133000,12.211133056640625,0.16503975555300712,0.7338356683194637,-0.7160922140970826
1725629316595087000,12.221087158203124,0.08109832054078578,0.9453244558364152,-0.17134280121996998
1725629316605040000,12.2310400390625,-0.09781155493259429,0.36709552881419655,-0.11668737418577074
1725629316614993200,12.2409931640625,0.1647141768604517,-0.07053484095036983,-0.04850742579847574
1725629316624947000,12.250947021484375,0.7283242114216089,-0.16983984931111334,0.029169688121974468
1725629316634900000,12.26089990234375,0.25802885876521464,-0.06720131261348725,0.07200579028576612
1725629316644853000,12.27085302734375,0.24047464350461958,-0.49497079809904093,0.09607537878975271
1725629316654806000,12.280805908203124,0.5887139345489442,-0.5089671747475862,0.36716143365725873
1725629316664760000,12.290760009765625,0.4965506146363914,-0.15447627596259117,0.5050708248961716
1725629316674713000,12.300713134765624,0.45417584637403485,-0.27355799793899055,0.2877047428436577
1725629316684665900,12.310665771484375,0.38061961177587506,-0.21969839745759961,0.19603885105922816
1725629316694619000,12.320618896484374,0.4423639741577208,-0.38980069709718224,0.2639274883497506
1725629316704573000,12.330572998046875,0.8466121526718139,-0.6140040047585964,0.11572378985062241
1725629316714526000,12.34052587890625,0.5527566321134567,-0.3540156824886799,0.6377099475819618
1725629316724479000,12.35047900390625,1.0168845481812954,0.09543430440723895,0.7626966558184475
1725629316734433000,12.36043310546875,0.5045392753027379,-0.027978724771738052,0.3768196349710226
1725629316744386000,12.370385986328126,0.15165829593241215,-0.3292331234097481,-0.19185930035226045
1725629316754339000,12.380339111328125,0.05251914565786719,-0.6847790842056274,-0.22887911745272577
1725629316764292000,12.3902919921875,0.3151794636160135,-0.584078822094202,-0.14816541231535374
