time,seconds_elapsed,z,y,x
1725629304402290700,0.028290771484375,0.30944719910621643,-0.35972124338150024,0.15718473494052887
1725629304412244500,0.038244384765625,0.2626274824142456,-0.33857735991477966,0.1025230884552002
1725629304422197500,0.048197509765625,0.23947051167488098,-0.45753732323646545,0.1008744165301323
1725629304432150500,0.058150634765625,0.1817379742860794,-0.4823627769947052,0.1537376344203949
1725629304442103600,0.068103515625,0.005884828511625528,-0.5709367394447327,0.2550296187400818
1725629304452057600,0.0780576171875,-0.2218034565448761,-0.783629834651947,0.4135010242462158
1725629304462010600,0.0880107421875,-0.3964366018772125,-0.9662291407585144,0.5661043524742126
1725629304471963400,0.09796337890625,-0.48490121960639954,-1.0453319549560547,0.5853875279426575
1725629304481917700,0.107917724609375,-0.4713948369026184,-1.1022412776947021,0.4138430953025818
1725629304491870500,0.117870361328125,-0.33885303139686584,-0.9198733568191528,0.14048931002616882
1725629304501823500,0.127823486328125,0.0004739980213344097,-0.6676296591758728,-0.19087575376033783
1725629304511776500,0.137776611328125,0.44170519709587097,-0.40093329548835754,-0.5047697424888611
1725629304521730300,0.147730224609375,0.9275757074356079,-0.10653650760650635,-0.738956868648529
1725629304531683300,0.157683349609375,1.2348778247833252,0.30984926223754883,-0.8791630268096924
1725629304541636400,0.16763623046875,1.0422160625457764,0.4604002833366394,-0.9181315898895264
1725629304551590400,0.17759033203125,0.49814343452453613,0.012607859447598457,-0.7762114405632019
1725629304561543400,0.18754345703125,0.03069448657333851,-0.26131290197372437,-0.4151674807071686
1725629304571496400,0.197496337890625,-0.2009832113981247,-0.29216668009757996,-0.19718457758426666
1725629304581449500,0.207449462890625,-0.19732119143009186,-0.04339907318353653,-0.09954245388507843
1725629304591403500,0.217403564453125,0.013028851710259914,0.25180673599243164,-0.05994764342904091
1725629304601356500,0.2273564453125,0.3693755567073822,0.12242893129587173,-0.11821194738149643
1725629304611309600,0.2373095703125,0.6836930513381958,-0.21328063309192657,-0.16183532774448395
1725629304621263600,0.247263671875,0.7579910159111023,-0.4814613461494446,-0.1749311238527298
1725629304631216600,0.257216552734375,0.6248313784599304,-0.705663800239563,-0.2662551701068878
1725629304641169700,0.267169677734375,0.5284966826438904,-0.7769740223884583,-0.417473703622818
1725629304651122700,0.277122802734375,0.4766649603843689,-0.772813081741333,-0.6927638649940491
1725629304661076500,0.287076416015625,0.5561560392379761,-0.9138205647468567,-0.9204308986663818
1725629304671029500,0.297029541015625,0.7907642722129822,-1.44606351852417,-0.7159360647201538
1725629304680982500,0.306982421875,1.1709864139556885,-1.5937726497650146,-0.2670336663722992
1725629304690936600,0.3169365234375,1.7995198965072632,-2.0720176696777344,0.24435238540172577
1725629304700889600,0.3268896484375,2.083698034286499,-2.2718677520751953,0.6988164186477661
1725629304710842600,0.336842529296875,1.8400161266326904,-1.8106694221496582,0.8078762888908386
1725629304720795600,0.346795654296875,1.3871893882751465,-1.1715220212936401,0.6760839223861694
1725629304730749700,0.356749755859375,1.1652010679244995,-0.641109824180603,0.40335649251937866
1725629304740702700,0.36670263671875,1.3061103820800781,-0.1703675091266632,0.11892757564783096
1725629304750655500,0.376655517578125,1.647409439086914,0.3155227601528168,-0.05831512063741684
1725629304760609500,0.386609619140625,2.1657001972198486,0.8864604234695435,-0.25855448842048645
1725629304770562300,0.396562255859375,2.7026567459106445,1.2280806303024292,-0.44377174973487854
1725629304780515300,0.406515380859375,2.948608636856079,1.3929598331451416,-0.6393089294433594
1725629304790468400,0.41646826171875,2.910480499267578,1.2956370115280151,-0.7876302003860474
1725629304800422400,0.42642236328125,2.9137961864471436,1.304085612297058,-1.0497279167175293
1725629304810375400,0.43637548828125,2.832095146179199,1.073345422744751,-1.374470829963684
1725629304820328400,0.446328369140625,2.558122396469116,0.4522724449634552,-1.6217823028564453
1725629304830281500,0.456281494140625,2.4537031650543213,-0.26026296615600586,-1.7699326276779175
1725629304840235500,0.466235595703125,2.633692502975464,-0.7897531986236572,-1.867591142654419
1725629304850188500,0.4761884765625,2.9426302909851074,-1.2478132247924805,-2.0306270122528076
1725629304860141600,0.4861416015625,3.217768907546997,-1.5474988222122192,-2.2378931045532227
1725629304870095600,0.496095703125,3.4245312213897705,-1.8209080696105957,-2.351309061050415
1725629304880048600,0.506048583984375,3.54866886138916,-2.8309316635131836,-2.309493064880371
1725629304890001400,0.51600146484375,3.6649136543273926,-4.502100944519043,-1.9152439832687378
1725629304899955500,0.52595556640625,3.7935032844543457,-6.668507099151611,-1.2247393131256104
1725629304909908500,0.535908447265625,3.7831859588623047,-8.533624649047852,-0.4098900854587555
1725629304919861500,0.545861572265625,3.6560025215148926,-9.564570426940918,0.4022119343280792
1725629304929814500,0.555814453125,3.4120709896087646,-9.715323448181152,1.0409876108169556
1725629304939768600,0.5657685546875,3.0625345706939697,-9.14580249786377,1.2108720541000366
1725629304949721600,0.5757216796875,2.7808098793029785,-8.230880737304688,0.8016001582145691
1725629304959674600,0.585674560546875,2.6284327507019043,-7.593092918395996,0.16577033698558807
1725629304969627600,0.595627685546875,2.5594143867492676,-7.599549770355225,-0.3852997124195099
1725629304979581700,0.605581787109375,2.504274606704712,-7.968358516693115,-0.5804227590560913
1725629304989534700,0.61553466796875,2.424649238586426,-8.184313774108887,-0.39611414074897766
1725629304999487700,0.62548779296875,2.3843276500701904,-7.664037227630615,-0.17796844244003296
1725629305009441500,0.635441650390625,2.602999448776245,-5.554845809936523,-0.5254685878753662
1725629305019394600,0.64539453125,3.054048538208008,-2.6097302436828613,-1.5945041179656982
1725629305029347300,0.655347412109375,3.4874627590179443,0.041031815111637115,-2.852757453918457
1725629305039300400,0.66530029296875,3.865973472595215,1.8178735971450806,-4.13496732711792
1725629305049254400,0.67525439453125,3.931122303009033,2.6212267875671387,-5.046151161193848
1725629305059207400,0.68520751953125,4.027385711669922,2.2231040000915527,-4.9584126472473145
1725629305069160400,0.695160400390625,4.109782695770264,2.11934494972229,-4.828050136566162
1725629305079114500,0.705114501953125,4.431265830993652,1.6589372158050537,-4.411681652069092
1725629305089067500,0.715067626953125,4.940598487854004,1.042342185974121,-3.7677955627441406
1725629305099021800,0.725021728515625,5.586659908294678,0.9896544814109802,-2.992918014526367
1725629305108974800,0.734974853515625,5.866188049316406,1.4246248006820679,-2.3152573108673096
1725629305118929000,0.744928955078125,5.270953178405762,2.1678764820098877,-1.4825977087020874
1725629305128882000,0.7548818359375,4.680210590362549,2.995962142944336,-0.6935292482376099
1725629305138835000,0.7648349609375,4.27420711517334,3.2381207942962646,-0.2966359555721283
1725629305148789000,0.7747890625,4.015933513641357,3.326631784439087,0.07111461460590363
1725629305158742000,0.784741943359375,4.070074081420898,3.405240297317505,0.08431271463632584
1725629305168695000,0.794695068359375,4.380499839782715,3.3884451389312744,-0.06697747111320496
1725629305178648000,0.80464794921875,4.732879638671875,3.291934013366699,-0.07504184544086456
1725629305188601900,0.814601806640625,5.107734680175781,3.616464376449585,-0.1302875280380249
1725629305198555000,0.824554931640625,5.560372829437256,3.5101253986358643,0.2804778814315796
1725629305208508000,0.8345078125,5.736419677734375,3.8168904781341553,0.83500075340271
1725629305218462000,0.8444619140625,5.976572513580322,4.149618625640869,1.334622859954834
1725629305228415000,0.8544150390625,6.039525032043457,4.151553153991699,2.1111133098602295
1725629305238368000,0.864367919921875,5.622464656829834,4.0699238777160645,0.9525942206382751
1725629305248321000,0.874321044921875,4.3024702072143555,4.026124477386475,-2.2121407985687256
1725629305258275000,0.884275146484375,3.8783435821533203,5.384951591491699,-2.082493305206299
1725629305268228000,0.89422802734375,2.990593194961548,5.141315460205078,-1.2125779390335083
1725629305278180900,0.904180908203125,2.416504383087158,4.279878616333008,-0.5515670776367188
1725629305288135200,0.91413525390625,2.3348097801208496,4.018716812133789,-0.22163952887058258
1725629305298088000,0.924087890625,2.4515268802642822,4.005067825317383,-0.11847823113203049
1725629305308041000,0.934041015625,2.5236761569976807,3.9514358043670654,0.07593332231044769
1725629305317994000,0.943993896484375,2.5801987648010254,3.7769482135772705,0.44344523549079895
1725629305327947800,0.95394775390625,2.613797664642334,3.5349695682525635,0.7473856806755066
1725629305337900800,0.96390087890625,2.5440781116485596,3.3175582885742188,1.0259604454040527
1725629305347853800,0.973853759765625,2.429224967956543,3.1209774017333984,1.2277750968933105
1725629305357807900,0.983807861328125,2.3093996047973633,2.883572578430176,1.3534448146820068
1725629305367761000,0.993760986328125,2.03938364982605,2.347264289855957,1.2413803339004517
1725629305377714000,1.0037138671875,1.7667263746261597,2.030487060546875,1.1769123077392578
1725629305387667000,1.0136669921875,1.7437832355499268,2.1606247425079346,1.6475034952163696
1725629305397621000,1.02362109375,1.5262980461120605,1.995237112045288,2.0911614894866943
1725629305407574000,1.033573974609375,1.1631693840026855,1.6131672859191895,1.7899653911590576
1725629305417527000,1.043527099609375,0.5539118051528931,1.2728646993637085,0.9647718667984009
1725629305427480800,1.053480712890625,0.2108984738588333,0.8119649887084961,1.1116929054260254
1725629305437433900,1.063433837890625,-0.41044074296951294,-0.17911916971206665,0.7204151749610901
1725629305447387000,1.073386962890625,-0.29952460527420044,-0.30061179399490356,0.47584375739097595
1725629305457340000,1.08333984375,-0.3828037977218628,-0.6057801842689514,0.3185068666934967
1725629305467294000,1.0932939453125,-0.6196762919425964,-1.0259032249450684,0.4099891185760498
1725629305477247000,1.1032470703125,-0.8469247221946716,-1.2327927350997925,0.5827536582946777
1725629305487200000,1.113199951171875,-0.8082795739173889,-1.1783745288848877,0.747865617275238
1725629305497154000,1.123154052734375,-0.717195451259613,-0.9787075519561768,0.7651148438453674
1725629305507107000,1.133107177734375,-0.7811893224716187,-0.7352703809738159,0.547703206539154
1725629305517060000,1.14306005859375,-0.9455251097679138,-0.7402082681655884,0.22252652049064636
1725629305527012900,1.153012939453125,-1.2726060152053833,-1.2327501773834229,-0.24398979544639587
1725629305536967000,1.162966796875,-1.816638469696045,-2.4350063800811768,-0.494790256023407
1725629305546920000,1.172919921875,-1.4523065090179443,-4.149501800537109,0.5502429008483887
1725629305556873000,1.182873046875,-1.1116528511047363,-3.9164485931396484,0.7050134539604187
1725629305566826000,1.192825927734375,-0.7958056926727295,-2.8186943531036377,0.16504983603954315
1725629305576779800,1.20277978515625,-0.6867220401763916,-1.9247318506240845,-0.2775484025478363
1725629305586732800,1.21273291015625,-0.5710870027542114,-1.1412293910980225,-0.5296871662139893
1725629305596685800,1.222685791015625,-0.43929240107536316,-0.43400445580482483,-0.6337147355079651
1725629305606639900,1.232639892578125,-0.4667762219905853,-0.18174956738948822,-0.5390079617500305
1725629305616593000,1.242593017578125,-0.6780195236206055,-0.22228427231311798,-0.4156751036643982
1725629305626546000,1.2525458984375,-0.9286970496177673,-0.74295574426651,-0.297081857919693
1725629305636499000,1.2624990234375,-1.102921962738037,-1.2455723285675049,-0.35669949650764465
1725629305646453000,1.272452880859375,-1.0661513805389404,-1.075355887413025,-0.6412367224693298
1725629305656406000,1.282406005859375,-0.9722177386283875,-0.5556975603103638,-1.1357297897338867
1725629305666359000,1.292359130859375,-0.826322615146637,0.15839765965938568,-1.7102596759796143
1725629305676312800,1.302312744140625,-0.5961999893188477,0.7204292416572571,-2.101534843444824
1725629305686265900,1.312265869140625,-0.4811841547489166,0.89750736951828,-2.3224620819091797
1725629305696219000,1.322218994140625,-0.5168281197547913,0.6454241871833801,-2.324317216873169
1725629305706172000,1.332171875,-0.38003405928611755,0.3753306567668915,-2.3302407264709473
1725629305716126000,1.3421259765625,-0.5017673969268799,0.1687997579574585,-2.277507781982422
1725629305726079000,1.352078857421875,-0.6668053865432739,0.2945299744606018,-2.4492807388305664
1725629305736032000,1.362031982421875,-0.7825644612312317,0.3021028935909271,-2.254981279373169
1725629305745986000,1.371986083984375,-0.6311046481132507,0.3997040092945099,-1.8592772483825684
1725629305755939000,1.38193896484375,-0.5168521404266357,0.33654549717903137,-1.249442219734192
1725629305765892000,1.39189208984375,-0.3889447748661041,0.004780079238116741,-0.6663450002670288
1725629305775845000,1.40184521484375,-0.30832281708717346,-0.6106499433517456,-0.15414118766784668
1725629305785799000,1.411798828125,-0.3476731479167938,-0.9998184442520142,0.17228059470653534
1725629305795752000,1.421751953125,-0.4347189962863922,-0.7916092872619629,0.20603330433368683
1725629305805705000,1.431705078125,-0.5683369636535645,-0.17980879545211792,-0.019515931606292725
1725629305815659000,1.441658935546875,-0.6812494993209839,0.05768077075481415,-0.24876996874809265
1725629305825611800,1.45161181640625,-0.6446380019187927,0.029178287833929062,-0.4689449369907379
1725629305835564800,1.461564697265625,-0.5592325329780579,-0.12908750772476196,-0.6567848920822144
1725629305845517800,1.471517822265625,-0.4697790741920471,-0.15933409333229065,-0.9114606380462646
1725629305855471900,1.481471923828125,-0.3411739766597748,-0.10338658094406128,-1.3263660669326782
1725629305865425000,1.4914248046875,-0.2570076882839203,-0.07717548310756683,-1.998551368713379
1725629305875378000,1.5013779296875,-0.27088433504104614,-0.01964988186955452,-2.543314218521118
1725629305885331000,1.5113310546875,-0.211776003241539,0.2905293107032776,-2.962461233139038
1725629305895285000,1.521284912109375,-0.2986128032207489,0.40623441338539124,-3.1539266109466553
1725629305905238000,1.531238037109375,-0.39509379863739014,0.42948219180107117,-3.0164105892181396
1725629305915191000,1.54119091796875,-0.6040323972702026,-0.2661532461643219,-2.289574384689331
1725629305925144800,1.551144775390625,-1.076224446296692,0.06440923362970352,-1.8835186958312988
1725629305935097900,1.561097900390625,-1.3342432975769043,-0.5832791328430176,-1.3668280839920044
1725629305945051000,1.57105078125,-1.5257076025009155,-1.2215865850448608,-0.8302368521690369
1725629305955004000,1.58100390625,-1.1221425533294678,-1.0155150890350342,-0.8502036333084106
1725629305964958000,1.5909580078125,-0.8488925695419312,-0.6033211350440979,-0.9556483030319214
1725629305974911000,1.600910888671875,-0.6990383267402649,0.0230422206223011,-0.8601595163345337
1725629305984864000,1.610864013671875,-0.3687993884086609,0.22332951426506042,-0.2934476435184479
1725629305994818000,1.620818115234375,0.08419644832611084,0.15326425433158875,0.27093780040740967
1725629306004771000,1.63077099609375,0.141511932015419,0.7195729613304138,0.15082047879695892
1725629306014724000,1.64072412109375,0.00762915750965476,0.7222147583961487,0.02204318344593048
1725629306024677000,1.650677001953125,0.11046659201383591,0.4672761857509613,0.03176132217049599
1725629306034631000,1.660630859375,0.1588256061077118,0.3681873381137848,-0.05007394403219223
1725629306044584000,1.670583984375,0.03641047328710556,0.24909555912017822,-0.04425227269530296
1725629306054536700,1.68053662109375,0.12174028158187866,0.08330748230218887,-0.1395142823457718
1725629306064491000,1.690490966796875,0.5723865628242493,-0.45351442694664,-0.9959304332733154
1725629306074444000,1.700444091796875,0.4802674353122711,-0.4315463900566101,-0.9452797770500183
1725629306084396800,1.710396728515625,0.29364457726478577,-0.05004163831472397,-0.595102846622467
1725629306094349800,1.720349853515625,-0.017189815640449524,0.18255101144313812,-0.3053205907344818
1725629306104303000,1.73030322265625,-0.1717546284198761,0.2510320544242859,-0.16653849184513092
1725629306114256100,1.740256103515625,-0.2998661994934082,0.32614845037460327,-0.13076210021972656
1725629306124209200,1.750209228515625,-0.3716605007648468,0.273421049118042,-0.10880380868911743
1725629306134163200,1.7601630859375,-0.31279274821281433,0.03876814246177673,-0.09521626681089401
1725629306144116200,1.7701162109375,-0.26854246854782104,0.08216967433691025,-0.1680111140012741
1725629306154069000,1.780069091796875,-0.18263408541679382,0.19167068600654602,-0.4016965925693512
1725629306164022000,1.79002197265625,-0.06822468340396881,0.07928396016359329,-0.7901872992515564
1725629306173976000,1.79997607421875,-0.00643135467544198,-0.2392767369747162,-1.2682867050170898
1725629306183929000,1.80992919921875,-0.05692116171121597,-0.42605671286582947,-1.455199122428894
1725629306193882000,1.819882080078125,-0.15092861652374268,-0.402005136013031,-1.229902744293213
1725629306203836000,1.8298359375,-0.2774639129638672,-0.17551180720329285,-0.9359720945358276
1725629306213789000,1.839788818359375,-0.35097432136535645,0.014738348312675953,-0.6938462257385254
1725629306223742000,1.849741943359375,-0.3164765536785126,0.18212547898292542,-0.4954546093940735
1725629306233695000,1.859695068359375,-0.28324824571609497,0.2400486320257187,-0.3878479301929474
1725629306243649000,1.86964892578125,-0.19917941093444824,0.16909083724021912,-0.28849363327026367
1725629306253602000,1.87960205078125,-0.13412857055664062,0.29876798391342163,-0.2172451913356781
1725629306263555000,1.88955517578125,-0.07053492963314056,0.12791477143764496,-0.14883923530578613
1725629306273508000,1.899508056640625,-0.004339669831097126,0.10144348442554474,-0.12003236263990402
1725629306283462100,1.909462158203125,0.13631650805473328,0.019760871306061745,-0.11145085841417313
1725629306293415200,1.919415283203125,0.32989099621772766,-0.035799819976091385,-0.12071887403726578
1725629306303368200,1.9293681640625,0.5872447490692139,-0.06397420167922974,-0.15667767822742462
1725629306313322000,1.939322021484375,0.7443987131118774,-0.18323056399822235,-0.24409860372543335
1725629306323275000,1.94927490234375,0.8995826840400696,-0.23247267305850983,-0.4086073935031891
1725629306333228000,1.95922802734375,1.0388548374176025,-0.3922046422958374,-0.5390222072601318
1725629306343181000,1.96918115234375,1.2184886932373047,-0.4929986298084259,-0.6381887197494507
1725629306353135000,1.979135009765625,1.3493196964263916,-0.4584347605705261,-0.5486318469047546
1725629306363088100,1.989088134765625,1.2936468124389648,-0.24642877280712128,0.0026954947970807552
1725629306373041200,1.999041259765625,1.4746288061141968,-0.35585322976112366,0.22355052828788757
1725629306382995200,2.0089951171875,1.616206407546997,-0.12251316010951996,0.3283078372478485
1725629306392948200,2.0189482421875,1.594187617301941,0.0686052069067955,0.4892440736293793
1725629306402901200,2.0289013671875,1.6816633939743042,0.2153158336877823,0.5186600685119629
1725629306412854000,2.03885400390625,1.6211239099502563,0.1509074717760086,0.41758179664611816
1725629306422808000,2.04880810546875,1.5048434734344482,-0.3336067795753479,0.5676277279853821
1725629306432760800,2.0587607421875,1.5411280393600464,-0.4188721776008606,0.7720523476600647
1725629306442713900,2.0687138671875,1.5908348560333252,-0.4306151270866394,0.902850329875946
1725629306452668000,2.07866796875,1.6415348052978516,-0.3435012400150299,1.020671010017395
1725629306462621000,2.088620849609375,1.5901850461959839,-0.3669533133506775,1.0147196054458618
1725629306472574000,2.098573974609375,1.308763027191162,-0.36373209953308105,0.8691284656524658
1725629306482528000,2.108528076171875,0.894463300704956,-0.2481551617383957,0.7659493684768677
1725629306492481000,2.11848095703125,0.47420361638069153,-0.15701138973236084,0.7603992223739624
1725629306502434000,2.12843408203125,0.08822581171989441,0.005528522189706564,0.6859028935432434
1725629306512387000,2.138386962890625,-0.15816619992256165,-0.0977465957403183,0.7248721122741699
1725629306522341000,2.148341064453125,-0.34722480177879333,-0.04230330511927605,0.6836985945701599
1725629306532294100,2.158294189453125,-0.4155482053756714,-0.022677302360534668,0.7385281920433044
1725629306542247200,2.1682470703125,-0.4660041928291321,0.013022370636463165,0.7802013754844666
1725629306552201000,2.178200927734375,-0.513460636138916,0.06252936273813248,0.7717805504798889
1725629306562154000,2.188154052734375,-0.5533025860786438,0.07565955072641373,0.6995334625244141
1725629306572107000,2.19810693359375,-0.5661453008651733,0.11291752755641937,0.7085428833961487
1725629306582060000,2.20806005859375,-0.5645881295204163,0.13910464942455292,0.7080765962600708
1725629306592014000,2.21801416015625,-0.5730031728744507,0.1101028248667717,0.6354003548622131
1725629306601967000,2.227967041015625,-0.7285097241401672,0.1469726860523224,0.5407702922821045
1725629306611920100,2.237920166015625,-1.091776728630066,0.004346816334873438,0.7935606241226196
1725629306621874200,2.247874267578125,-1.2097715139389038,0.19084185361862183,1.0393853187561035
1725629306631827200,2.2578271484375,-1.2865970134735107,0.4769168496131897,1.1516026258468628
1725629306641780200,2.2677802734375,-1.3948500156402588,0.6988351345062256,1.2489815950393677
1725629306651734000,2.277734130859375,-1.2941601276397705,0.7729418873786926,1.0512259006500244
1725629306661687000,2.28768701171875,-1.1540882587432861,0.6962018013000488,0.8031737804412842
1725629306671640000,2.29764013671875,-1.0306980609893799,0.49025410413742065,0.5561009049415588
1725629306681593000,2.307593017578125,-0.967546820640564,0.4577600657939911,0.43821555376052856
1725629306691547100,2.317547119140625,-0.8726349472999573,0.5618709325790405,0.3992226719856262
1725629306701500200,2.327500244140625,-0.7756410241127014,0.624538004398346,0.33091869950294495
1725629306711453000,2.337452880859375,-0.6907097101211548,0.66238933801651,0.2809138298034668
1725629306721407200,2.3474072265625,-0.6315156817436218,0.7110905647277832,0.2770772874355316
1725629306731360000,2.357360107421875,-0.5813730955123901,0.7231807112693787,0.29180094599723816
1725629306741313000,2.36731298828125,-0.555518627166748,0.6778081655502319,0.23621200025081635
1725629306751266000,2.37726611328125,-0.5460636615753174,0.6035534739494324,0.2014177441596985
1725629306761220000,2.38722021484375,-0.5699210166931152,0.5448662042617798,0.24159258604049683
1725629306771173000,2.397173095703125,-0.5755204558372498,0.5251949429512024,0.2600986063480377
1725629306781126100,2.407126220703125,-0.5881616473197937,0.46597155928611755,0.2092820405960083
1725629306791080000,2.417079833984375,-0.576579213142395,0.3916764557361603,0.23070001602172852
1725629306801033000,2.427032958984375,-0.5584425330162048,0.33546459674835205,0.2115316390991211
1725629306810986000,2.436986083984375,-0.5284015536308289,0.3030635118484497,0.21394287049770355
1725629306820940000,2.44693994140625,-0.46562787890434265,0.2946210205554962,0.22208228707313538
1725629306830893000,2.45689306640625,-0.4145858883857727,0.24151235818862915,0.21843771636486053
1725629306840846000,2.46684619140625,-0.3582291305065155,0.1652572751045227,0.1872747391462326
1725629306850799000,2.476799072265625,-0.3243822753429413,0.09948531538248062,0.1697017103433609
1725629306860753200,2.486753173828125,-0.28339889645576477,0.04749828204512596,0.13874539732933044
1725629306870706200,2.4967060546875,-0.23377574980258942,-0.02521120011806488,0.14265461266040802
1725629306880659200,2.5066591796875,-0.2036530077457428,-0.10569805651903152,0.1497114598751068
1725629306890613000,2.516613037109375,-0.1580265313386917,-0.18987543880939484,0.18313704431056976
1725629306900566000,2.52656591796875,-0.0982460230588913,-0.265683114528656,0.19681984186172485
1725629306910519000,2.53651904296875,-0.045444242656230927,-0.33348026871681213,0.1939435750246048
1725629306920473000,2.54647314453125,0.02132200449705124,-0.3725437819957733,0.19088414311408997
1725629306930426000,2.556426025390625,0.07910740375518799,-0.39197584986686707,0.17663200199604034
1725629306940379100,2.566379150390625,0.13820748031139374,-0.409351110458374,0.12912705540657043
1725629306950332200,2.576332275390625,0.20978018641471863,-0.41967734694480896,0.07484502345323563
1725629306960286200,2.5862861328125,0.2881399691104889,-0.38802221417427063,0.04929838702082634
1725629306970239200,2.5962392578125,0.3410886824131012,-0.3325174152851105,0.0316070057451725
1725629306980192000,2.60619189453125,0.35223880410194397,-0.3181464374065399,0.0005494891665875912
1725629306990146000,2.61614599609375,0.357957124710083,-0.32680821418762207,-0.03525916486978531
1725629307000098800,2.626098876953125,0.37765973806381226,-0.30793172121047974,-0.07055457681417465
1725629307010051800,2.6360517578125,0.3958025872707367,-0.3154933750629425,-0.10687407106161118
1725629307020006100,2.646006103515625,0.4166780412197113,-0.3290741741657257,-0.1133362278342247
1725629307029959000,2.655958984375,0.43047240376472473,-0.3384762406349182,-0.11686666309833527
1725629307039912000,2.665911865234375,0.43899425864219666,-0.3816530108451843,-0.13326720893383026
1725629307049865000,2.675864990234375,0.4626665711402893,-0.410751610994339,-0.14365971088409424
1725629307059819000,2.685819091796875,0.4977353513240814,-0.4015647768974304,-0.1734413057565689
1725629307069772000,2.69577197265625,0.5239424109458923,-0.40884238481521606,-0.18080201745033264
1725629307079725000,2.70572509765625,0.5465065836906433,-0.432978093624115,-0.21317727863788605
1725629307089679000,2.71567919921875,0.5819970965385437,-0.4732573330402374,-0.24706923961639404
1725629307099631600,2.725631591796875,0.6228161454200745,-0.47652849555015564,-0.26418882608413696
1725629307109584600,2.735584716796875,0.6475814580917358,-0.47764092683792114,-0.30099496245384216
1725629307119538400,2.745538330078125,0.6816163659095764,-0.4520186483860016,-0.3013771176338196
1725629307129491500,2.755491455078125,0.7001058459281921,-0.4213555157184601,-0.3053399920463562
1725629307139444500,2.765444580078125,0.7047861218452454,-0.40339410305023193,-0.32318663597106934
1725629307149397500,2.7753974609375,0.6971244215965271,-0.39465004205703735,-0.3413282036781311
1725629307159351600,2.7853515625,0.7130522727966309,-0.37731820344924927,-0.3295983076095581
1725629307169304600,2.7953046875,0.7433110475540161,-0.3714255392551422,-0.32480117678642273
1725629307179257600,2.805257568359375,0.7739483118057251,-0.36581212282180786,-0.33637261390686035
1725629307189211600,2.815211669921875,0.7884915471076965,-0.355140745639801,-0.3536376953125
1725629307199164700,2.82516455078125,0.8175615668296814,-0.3059321939945221,-0.3383093476295471
1725629307209117400,2.835117431640625,0.8370703458786011,-0.26258113980293274,-0.34488028287887573
1725629307219071700,2.84507177734375,0.8593639135360718,-0.22597359120845795,-0.3662087321281433
1725629307229024500,2.8550244140625,0.8597062230110168,-0.19307391345500946,-0.4091905653476715
1725629307238977500,2.8649775390625,0.8574891090393066,-0.13032956421375275,-0.4249306321144104
1725629307248931300,2.874931396484375,0.7963448762893677,0.07110416889190674,-0.3911536931991577
1725629307258884400,2.88488427734375,0.8529170751571655,-0.10392596572637558,-0.36668720841407776
1725629307268837400,2.89483740234375,0.8465309739112854,-0.12037456780672073,-0.3531166911125183
1725629307278790400,2.904790283203125,0.8215143084526062,-0.10568004101514816,-0.350933700799942
1725629307288744400,2.914744384765625,0.8194549679756165,0.05222649872303009,-0.32959887385368347
1725629307298697500,2.924697509765625,0.8177577257156372,-0.07783962786197662,-0.3460255265235901
1725629307308650500,2.934650390625,0.782885730266571,-0.0857054740190506,-0.39279019832611084
1725629307318604500,2.9446044921875,0.7458848357200623,-0.09883326292037964,-0.432115763425827
1725629307328557600,2.9545576171875,0.6434696912765503,0.0681205466389656,-0.44370847940444946
1725629307338510600,2.964510498046875,0.6677095293998718,-0.1930686980485916,-0.4359152615070343
1725629307348463600,2.974463623046875,0.6232326030731201,-0.2565789222717285,-0.41224879026412964
1725629307358417400,2.98441748046875,0.46922969818115234,0.033213209360837936,-0.40553975105285645
1725629307368370400,2.994370361328125,0.5353387594223022,-0.0934559777379036,-0.3598048985004425
1725629307378323500,3.004323486328125,0.45934760570526123,-0.194753035902977,-0.3420301675796509
1725629307388277500,3.014277587890625,0.42873743176460266,-0.22444655001163483,-0.34643206000328064
1725629307398230500,3.02423046875,0.3464809060096741,-0.2325313836336136,-0.35980379581451416
1725629307408183600,3.03418359375,0.2764095664024353,-0.29603877663612366,-0.3715861737728119
1725629307418137600,3.0441376953125,0.30438047647476196,-0.3697236478328705,-0.405240535736084
1725629307428090600,3.054090576171875,0.23631039261817932,-0.3808620870113373,-0.3657166063785553
1725629307438043600,3.064043701171875,0.1785070151090622,-0.3598036766052246,-0.24741312861442566
1725629307447997700,3.073997802734375,0.11517274379730225,-0.36785420775413513,-0.1739138960838318
1725629307457950700,3.08395068359375,0.05024487152695656,-0.3479979634284973,-0.10764138400554657
1725629307467903500,3.093903564453125,0.14120373129844666,-0.45198190212249756,-0.08203426003456116
1725629307477856500,3.1038564453125,0.09779632091522217,-0.47087010741233826,-0.02199302613735199
1725629307487810600,3.113810546875,-0.06436124444007874,-0.08254362642765045,0.06158008798956871
1725629307497763600,3.123763671875,-0.01095367781817913,-0.26458585262298584,0.0750650092959404
1725629307507716400,3.13371630859375,-0.07957504689693451,-0.27977582812309265,0.14121079444885254
1725629307517670700,3.143670654296875,-0.12265407294034958,-0.22239618003368378,0.18651969730854034
1725629307527623400,3.15362353515625,-0.18888334929943085,-0.036161258816719055,0.18561887741088867
1725629307537576400,3.163576416015625,-0.16230979561805725,-0.25133347511291504,0.21068401634693146
1725629307547529500,3.173529541015625,-0.17953914403915405,-0.2727659046649933,0.2467893809080124
1725629307557483500,3.1834833984375,-0.15897874534130096,-0.32138562202453613,0.21458350121974945
1725629307567436500,3.1934365234375,-0.20365825295448303,-0.2742655873298645,0.24922996759414673
1725629307577389600,3.2033896484375,-0.26464036107063293,-0.22741419076919556,0.2734636664390564
1725629307587343400,3.21334326171875,-0.267598032951355,-0.278917521238327,0.3020513653755188
1725629307597296400,3.22329638671875,-0.3180961012840271,-0.2282133251428604,0.34425583481788635
1725629307607249400,3.23324951171875,-0.27789559960365295,-0.2575434148311615,0.3132534623146057
1725629307617203500,3.243203369140625,-0.27394959330558777,-0.28586825728416443,0.3346189260482788
1725629307627156500,3.253156494140625,-0.34310752153396606,0.02319714054465294,0.340815931558609
1725629307637109500,3.263109619140625,-0.20498642325401306,-0.2637733817100525,0.17276859283447266
1725629307647063600,3.2730634765625,-0.21283523738384247,-0.3009198307991028,0.15986813604831696
1725629307657016600,3.2830166015625,-0.2747856676578522,-0.18699060380458832,0.15388640761375427
1725629307666969600,3.292969482421875,-0.32231593132019043,-0.19255517423152924,0.16551649570465088
1725629307676922600,3.302922607421875,-0.33810368180274963,-0.23214678466320038,0.13297027349472046
1725629307686876400,3.31287646484375,-0.32101571559906006,-0.22508321702480316,0.12411659955978394
1725629307696829400,3.322829345703125,-0.27836066484451294,-0.25524163246154785,0.09828127175569534
1725629307706782500,3.332782470703125,-0.22722850739955902,-0.30345019698143005,0.06790632009506226
1725629307716736500,3.342736572265625,-0.19923043251037598,-0.3106180727481842,0.0772433653473854
1725629307726689500,3.352689453125,-0.20353947579860687,-0.3560318052768707,0.06854381412267685
1725629307736642600,3.362642578125,-0.20641541481018066,-0.448429673910141,0.01830701157450676
1725629307746596600,3.3725966796875,-0.21763785183429718,-0.5282270908355713,-0.02663194015622139
1725629307756549600,3.382549560546875,-0.22607794404029846,-0.5624979734420776,-0.037379659712314606
1725629307766502700,3.392502685546875,-0.2447313368320465,-0.574388325214386,-0.024126721546053886
1725629307776455400,3.402455322265625,-0.25154635310173035,-0.5742674469947815,-0.0037940205074846745
1725629307786409700,3.41240966796875,-0.25041696429252625,-0.5604482293128967,-0.006529839243739843
1725629307796362800,3.42236279296875,-0.24407410621643066,-0.5553402900695801,-0.004027266521006823
1725629307806315500,3.4323154296875,-0.22525958716869354,-0.6194883584976196,0.005125714000314474
1725629307816269600,3.44226953125,-0.2412010133266449,-0.627156138420105,-0.0029340763576328754
1725629307826222300,3.452222412109375,-0.24769099056720734,-0.6546258330345154,-0.014949277974665165
1725629307836175400,3.46217529296875,-0.2576722502708435,-0.6410021781921387,0.024840477854013443
1725629307846129400,3.47212939453125,-0.26509666442871094,-0.6522907614707947,0.049754660576581955
1725629307856082400,3.48208251953125,-0.2717771828174591,-0.6078351736068726,0.12913471460342407
1725629307866035500,3.492035400390625,-0.2610025703907013,-0.547468900680542,0.2228814959526062
1725629307875988500,3.501988525390625,-0.24460311233997345,-0.511533260345459,0.29214125871658325
1725629307885942500,3.511942626953125,-0.2214001715183258,-0.5007445812225342,0.3324750065803528
1725629307895895600,3.5218955078125,-0.21693192422389984,-0.504948616027832,0.3335442543029785
1725629307905848600,3.5318486328125,-0.23524430394172668,-0.42117172479629517,0.35315680503845215
1725629307915802400,3.54180224609375,-0.2294950783252716,-0.3895730674266815,0.3468826711177826
1725629307925755400,3.55175537109375,-0.24467052519321442,-0.37882962822914124,0.3664221465587616
1725629307935708400,3.56170849609375,-0.2613709568977356,-0.5802282691001892,0.38727203011512756
1725629307945662500,3.571662353515625,-0.343885213136673,-0.33004844188690186,0.4574878513813019
1725629307955615500,3.581615478515625,-0.3230837881565094,-0.19441071152687073,0.4550904929637909
1725629307965568500,3.591568603515625,-0.3066959083080292,-0.20143835246562958,0.4404875934123993
1725629307975521500,3.601521484375,-0.249492809176445,-0.208339124917984,0.4378074109554291
1725629307985475600,3.6114755859375,-0.20006071031093597,-0.21860894560813904,0.4324078857898712
1725629307995428600,3.6214287109375,-0.136153906583786,-0.1989971548318863,0.40802130103111267
1725629308005381600,3.631381591796875,-0.05380368232727051,-0.12871144711971283,0.3587639629840851
1725629308015335700,3.641335693359375,-0.0010611079633235931,-0.10737314075231552,0.3494151830673218
1725629308025288700,3.651288818359375,0.02633093111217022,-0.06950333714485168,0.3111553192138672
1725629308035241700,3.66124169921875,0.03137762099504471,-0.008842118084430695,0.2611944377422333
1725629308045194800,3.67119482421875,0.09004412591457367,0.10304802656173706,0.24478088319301605
1725629308055148500,3.6811484375,0.08638174831867218,0.08919266611337662,0.15823134779930115
1725629308065101600,3.6911015625,0.06508325040340424,0.09182192385196686,0.11063908040523529
1725629308075054300,3.701054443359375,0.04077098146080971,0.07304983586072922,0.0447482168674469
1725629308085008600,3.711008544921875,0.013216063380241394,0.011664304882287979,-0.01417087484151125
1725629308094961400,3.72096142578125,-0.004585304297506809,-0.045823223888874054,-0.050811175256967545
1725629308104914700,3.730914794921875,-0.024734824895858765,-0.1131456047296524,-0.09112345427274704
1725629308114869000,3.740868896484375,-0.026429394260048866,-0.1718302220106125,-0.11603838950395584
1725629308124821800,3.75082177734375,-0.03311965614557266,-0.22454117238521576,-0.12403424084186554
1725629308134774800,3.76077490234375,-0.04062524065375328,-0.2889966070652008,-0.12872619926929474
1725629308144727800,3.770727783203125,-0.034196507185697556,-0.3353077173233032,-0.12042855471372604
1725629308154681600,3.780681640625,-0.003122477326542139,-0.35640794038772583,-0.10436064004898071
1725629308164634600,3.790634521484375,0.020863227546215057,-0.37897995114326477,-0.09675322473049164
1725629308174587600,3.800587646484375,0.05592241510748863,-0.3521544635295868,-0.05385421961545944
1725629308184541700,3.810541748046875,0.1125839352607727,-0.3161693215370178,0.0018562390469014645
1725629308194494700,3.82049462890625,0.16425351798534393,-0.2695930302143097,0.06633909046649933
1725629308204447700,3.83044775390625,0.19413888454437256,-0.22887028753757477,0.11972437798976898
1725629308214401800,3.84040185546875,0.19278733432292938,-0.17301368713378906,0.18240214884281158
1725629308224354800,3.850354736328125,0.18672361969947815,-0.1276932805776596,0.234730064868927
1725629308234307800,3.860307861328125,0.16047310829162598,-0.059331268072128296,0.3036438822746277
1725629308244260900,3.8702607421875,0.11909335106611252,-0.023690737783908844,0.3566083312034607
1725629308254214700,3.880214599609375,0.07073061913251877,0.019500674679875374,0.4152151942253113
1725629308264167700,3.890167724609375,0.008025605231523514,0.04327262565493584,0.45290178060531616
1725629308274120700,3.90012060546875,-0.056341931223869324,0.02554129995405674,0.43750178813934326
1725629308284074800,3.91007470703125,-0.11697282642126083,0.018025431782007217,0.4220849573612213
1725629308294027800,3.92002783203125,-0.20712190866470337,0.011553951539099216,0.4005628824234009
1725629308303980800,3.929980712890625,-0.25587454438209534,0.04299083724617958,0.3884752690792084
1725629308313934800,3.939934814453125,-0.29361817240715027,0.06823255121707916,0.39512625336647034
1725629308323887900,3.949887939453125,-0.35796234011650085,0.08588195592164993,0.3897976279258728
1725629308333841000,3.9598408203125,-0.43066877126693726,0.08147814869880676,0.35126087069511414
1725629308343794000,3.9697939453125,-0.5028504133224487,0.05615752935409546,0.29395192861557007
1725629308353748000,3.979748046875,-0.5590034127235413,0.0014974790392443538,0.22291690111160278
1725629308363701000,3.989700927734375,-0.5889310240745544,-0.04561998322606087,0.14614665508270264
1725629308373654000,3.999654052734375,-0.602490246295929,-0.04400743916630745,0.08613418787717819
1725629308383607800,4.00960791015625,-0.6348311901092529,-0.008475915528833866,0.06116287410259247
1725629308393560800,4.019560791015625,-0.6358266472816467,0.06468644738197327,0.07448294013738632
1725629308403513600,4.029513671875,-0.6407385468482971,0.11208215355873108,0.11264172941446304
1725629308413466600,4.039466552734375,-0.6549614667892456,0.15392599999904633,0.16887012124061584
1725629308423420700,4.049420654296875,-0.701241135597229,0.17828159034252167,0.20754429697990417
1725629308433373700,4.059373779296875,-0.7198435664176941,0.1596277505159378,0.21592207252979279
1725629308443326700,4.06932666015625,-0.7211675643920898,0.11656634509563446,0.2159813791513443
1725629308453280800,4.07928076171875,-0.7190753817558289,0.08513731509447098,0.25356870889663696
1725629308463233800,4.08923388671875,-0.6743831038475037,0.06850244849920273,0.27904802560806274
1725629308473186800,4.099186767578125,-0.6437889337539673,0.06868913769721985,0.3187110126018524
1725629308483140600,4.109140625,-0.5863420963287354,0.08641669154167175,0.3258182406425476
1725629308493093600,4.11909375,-0.5408201217651367,0.084008127450943,0.30904141068458557
1725629308503046700,4.129046630859375,-0.4735924303531647,0.10103489458560944,0.2766268253326416
1725629308512999700,4.138999755859375,-0.41194531321525574,0.07723528891801834,0.20475555956363678
1725629308522953700,4.14895361328125,-0.3514871597290039,0.07993412017822266,0.16740012168884277
1725629308532906800,4.15890673828125,-0.3328346312046051,0.08054504543542862,0.08563042432069778
1725629308542859800,4.16885986328125,-0.2861533463001251,0.07898016273975372,0.07332473248243332
1725629308552813800,4.178813720703125,-0.2609632909297943,0.06883858144283295,0.026683460921049118
1725629308562766800,4.188766845703125,-0.23370859026908875,0.04968809708952904,0.02536139264702797
1725629308572719900,4.198719970703125,-0.19841158390045166,0.054304156452417374,0.030104748904705048
1725629308582673000,4.2086728515625,-0.1812872439622879,0.04507884010672569,0.06539200246334076
1725629308592626700,4.218626708984375,-0.18514111638069153,-0.015184767544269562,0.06734036654233932
1725629308602579700,4.228579833984375,-0.1641175001859665,-0.029390845447778702,0.08237174898386002
1725629308612532700,4.23853271484375,-0.13492445647716522,-0.05609036609530449,0.07744596153497696
1725629308622486800,4.24848681640625,-0.08906472474336624,-0.05276115983724594,0.07495357096195221
1725629308632439800,4.258439697265625,-0.07180503755807877,-0.07314951717853546,0.0248898733407259
1725629308642392800,4.268392822265625,-0.03554052487015724,-0.1606154888868332,0.002692973241209984
1725629308652347000,4.278346923828125,0.02962728962302208,-0.22159814834594727,0.03145164996385574
1725629308662300000,4.2882998046875,0.14986613392829895,-0.1864013522863388,0.08646301925182343
1725629308672252700,4.298252685546875,0.238061785697937,-0.17029881477355957,0.12151447683572769
1725629308682205700,4.308205810546875,0.3282698690891266,-0.12001576274633408,0.13107351958751678
1725629308692159700,4.31815966796875,0.36685189604759216,-0.12204428762197495,0.0801948830485344
1725629308702112800,4.32811279296875,0.4078899025917053,-0.15677891671657562,0.03488258644938469
1725629308712065800,4.338065673828125,0.4281533658504486,-0.1653393805027008,0.010494422167539597
1725629308722019600,4.34801953125,0.4367770850658417,-0.14094476401805878,-0.006628651637583971
1725629308731972600,4.35797265625,0.45823097229003906,-0.18922467529773712,-0.050687987357378006
1725629308741925600,4.367925537109375,0.4698387086391449,-0.25754299759864807,-0.08246486634016037
1725629308751878700,4.377878662109375,0.4702078402042389,-0.2920636832714081,-0.08655228465795517
1725629308761832700,4.387832763671875,0.47474294900894165,-0.34771156311035156,-0.08550050109624863
1725629308771785700,4.39778564453125,0.48481103777885437,-0.36537042260169983,-0.0403953455388546
1725629308781738800,4.40773876953125,0.517129123210907,-0.36054015159606934,-0.037855878472328186
1725629308791692800,4.41769287109375,0.5348966717720032,-0.3634142279624939,-0.0807865634560585
1725629308801645800,4.427645751953125,0.5502634644508362,-0.3265053629875183,-0.11885300278663635
1725629308811598800,4.437598876953125,0.5571972727775574,-0.29019075632095337,-0.1514812409877777
1725629308821552600,4.447552734375,0.597693145275116,-0.2200721651315689,-0.15528926253318787
1725629308831505700,4.457505615234375,0.6289783716201782,-0.1957274079322815,-0.19690461456775665
1725629308841458700,4.467458740234375,0.6423588991165161,-0.186927929520607,-0.23789231479167938
1725629308851411700,4.47741162109375,0.7040920257568359,-0.19103053212165833,-0.2950299084186554
1725629308861365800,4.48736572265625,0.7458480000495911,-0.12258531898260117,-0.3425271809101105
1725629308871318800,4.49731884765625,0.7579890489578247,-0.09375792741775513,-0.418109267950058
1725629308881271800,4.507271728515625,0.7642348408699036,-0.031032806262373924,-0.4735355079174042
1725629308891225900,4.517225830078125,0.7776068449020386,0.004011732060462236,-0.5251630544662476
1725629308901179000,4.527178955078125,0.7861281633377075,0.03069300204515457,-0.5641933083534241
1725629308911132000,4.5371318359375,0.801411509513855,0.07233259081840515,-0.5975334048271179
1725629308921086000,4.5470859375,0.7834286689758301,0.07686509937047958,-0.6445929408073425
1725629308931039000,4.5570390625,0.7909659743309021,0.1090661808848381,-0.6459212899208069
1725629308940992000,4.566991943359375,0.7722630500793457,0.22755974531173706,-0.5971165299415588
1725629308950944800,4.57694482421875,0.7571261525154114,0.2757762670516968,-0.5548692345619202
1725629308960898800,4.58689892578125,0.7089356184005737,0.31247657537460327,-0.5571044087409973
1725629308970851600,4.5968515625,0.6692060828208923,0.3666950762271881,-0.5519051551818848
1725629308980804600,4.6068046875,0.6280714273452759,0.41241171956062317,-0.5212342739105225
1725629308990758700,4.616758544921875,0.5710379481315613,0.3852352201938629,-0.5265278816223145
1725629309000711700,4.626711669921875,0.54118412733078,0.3636096119880676,-0.5143640637397766
1725629309010664700,4.636664794921875,0.5224066972732544,0.3544265031814575,-0.46293148398399353
1725629309020617700,4.64661767578125,0.4984102249145508,0.3535670340061188,-0.4188535213470459
1725629309030571800,4.65657177734375,0.45349201560020447,0.3449226915836334,-0.3710276782512665
1725629309040524800,4.66652490234375,0.41774216294288635,0.3778412640094757,-0.3170274794101715
1725629309050477800,4.676477783203125,0.3464173972606659,0.34039536118507385,-0.28042420744895935
1725629309060431600,4.686431640625,0.31218498945236206,0.343520849943161,-0.25566351413726807
1725629309070384600,4.696384521484375,0.24989846348762512,0.2829563021659851,-0.24541381001472473
1725629309080337700,4.706337646484375,0.18983019888401031,0.24264739453792572,-0.26813793182373047
1725629309090291700,4.716291748046875,0.18860700726509094,0.25631076097488403,-0.29160329699516296
1725629309100244700,4.72624462890625,0.18467596173286438,0.1824677288532257,-0.2895347774028778
1725629309110197800,4.73619775390625,0.1833832710981369,0.22606980800628662,-0.2961506247520447
1725629309120150800,4.74615087890625,0.13632427155971527,0.2311943918466568,-0.25721216201782227
1725629309130104800,4.756104736328125,0.14234967529773712,0.16551737487316132,-0.2240411341190338
1725629309140057900,4.766057861328125,0.11565131694078445,0.0942407175898552,-0.1789025217294693
1725629309150011000,4.776010986328125,0.04816920682787895,0.1598740518093109,-0.15346454083919525
1725629309159964700,4.785964599609375,0.009139612317085266,0.07714410871267319,-0.11559107899665833
1725629309169917700,4.795917724609375,0.03089364618062973,0.04767436906695366,-0.07844290882349014
1725629309179870700,4.80587060546875,0.023450549691915512,0.06547677516937256,-0.004006985574960709
1725629309189823700,4.81582373046875,-0.11414193361997604,0.3384936451911926,0.07963331043720245
1725629309199777800,4.82577783203125,-0.049763262271881104,0.20286087691783905,0.09793998301029205
1725629309209730800,4.835730712890625,-0.07093698531389236,0.04358839616179466,0.10094510018825531
1725629309219683800,4.845683837890625,-0.07328590005636215,0.06313982605934143,0.15796023607254028
1725629309229638000,4.855637939453125,-0.11212650686502457,0.25230681896209717,0.17324890196323395
1725629309239591000,4.8655908203125,-0.0356973297894001,0.0539008304476738,0.21034853160381317
1725629309249543700,4.875543701171875,-0.021384702995419502,0.007811099756509066,0.22996191680431366
1725629309259496700,4.88549658203125,-0.011930206790566444,-0.006953761447221041,0.22323407232761383
1725629309269450800,4.89545068359375,-0.01600590907037258,-0.058657970279455185,0.22435392439365387
1725629309279403800,4.90540380859375,-0.0372488833963871,-0.08987773954868317,0.24130479991436005
1725629309289356800,4.915356689453125,-0.05493547022342682,-0.10250112414360046,0.2670120298862457
1725629309299310600,4.925310546875,-0.05769447237253189,-0.1415693312883377,0.2420453429222107
1725629309309263600,4.935263671875,-0.06540299206972122,-0.24590346217155457,0.1811865121126175
1725629309319216600,4.945216552734375,-0.0770542249083519,-0.21351541578769684,0.2211754322052002
1725629309329170700,4.955170654296875,-0.10515883564949036,-0.22318801283836365,0.1924460530281067
1725629309339123700,4.965123779296875,-0.10710830241441727,-0.20792585611343384,0.20035238564014435
1725629309349076700,4.97507666015625,-0.11320587992668152,-0.1985323578119278,0.19090189039707184
1725629309359029800,4.98502978515625,-0.1060289815068245,-0.17783519625663757,0.21285602450370789
1725629309368983800,4.99498388671875,-0.09854763001203537,-0.17245188355445862,0.20712997019290924
1725629309378936800,5.004936767578125,-0.0801176130771637,-0.14402222633361816,0.24610598385334015
1725629309388889900,5.014889892578125,-0.08764290809631348,-0.15680992603302002,0.2615930736064911
1725629309398843600,5.02484375,-0.11067445576190948,-0.20654472708702087,0.20560649037361145
1725629309408796700,5.034796630859375,-0.13004443049430847,-0.24141164124011993,0.1405649036169052
1725629309418749700,5.044749755859375,-0.15746091306209564,-0.28359270095825195,0.08010634779930115
1725629309428702700,5.05470263671875,-0.1865444928407669,-0.3463476896286011,-0.006813368760049343
1725629309438656800,5.06465673828125,-0.2006787210702896,-0.41616928577423096,-0.11053663492202759
1725629309448609800,5.07460986328125,-0.18476420640945435,-0.4344271123409271,-0.15077726542949677
1725629309458562800,5.084562744140625,-0.16010227799415588,-0.4405535161495209,-0.12286962568759918
1725629309468516900,5.094516845703125,-0.13739244639873505,-0.4563053250312805,-0.07680173218250275
1725629309478470000,5.104469970703125,-0.0975119099020958,-0.5659801363945007,-0.01875266060233116
1725629309488423000,5.1144228515625,-0.12728364765644073,-0.3913516104221344,0.04802903160452843
1725629309498377000,5.124376953125,-0.11715441197156906,-0.3646968603134155,0.08765557408332825
1725629309508330000,5.134330078125,-0.07702323794364929,-0.6134294271469116,0.06196059659123421
1725629309518282800,5.14428271484375,-0.12859442830085754,-0.40126869082450867,0.05835636332631111
1725629309528235800,5.15423583984375,-0.07716239243745804,-0.512613832950592,0.000829950557090342
1725629309538189800,5.16418994140625,-0.17448094487190247,-0.3749536871910095,0.0010444887448102236
1725629309548142600,5.174142578125,-0.17148755490779877,-0.20360320806503296,-0.01459599006921053
1725629309558095600,5.184095703125,-0.1618579775094986,-0.308619886636734,-0.022690052166581154
1725629309568049700,5.194049560546875,-0.24538561701774597,-0.11584538966417313,0.048981472849845886
1725629309578002700,5.204002685546875,-0.2714524269104004,-0.02839273400604725,0.09108316898345947
1725629309587955700,5.213955810546875,-0.3091939389705658,-0.030342167243361473,0.1313248574733734
1725629309597908700,5.22390869140625,-0.30337411165237427,-0.12661714851856232,0.1666468381881714
1725629309607862800,5.23386279296875,-0.38048115372657776,0.018384527415037155,0.22722549736499786
1725629309617815800,5.24381591796875,-0.4184477627277374,0.0521378368139267,0.21152280271053314
1725629309627768800,5.253768798828125,-0.4641460180282593,0.03583955764770508,0.17546094954013824
1725629309637722600,5.26372265625,-0.5122507810592651,0.024918178096413612,0.17654623091220856
1725629309647675600,5.273675537109375,-0.49209678173065186,0.059305448085069656,0.1925419718027115
1725629309657628700,5.283628662109375,-0.4952143430709839,0.09530919790267944,0.17808392643928528
1725629309667582700,5.293582763671875,-0.4980663061141968,0.10529285669326782,0.18815413117408752
1725629309677535700,5.30353564453125,-0.505862832069397,0.13479122519493103,0.21281540393829346
1725629309687488800,5.31348876953125,-0.5376591086387634,0.08129525184631348,0.20286983251571655
1725629309697441800,5.32344189453125,-0.5570027232170105,0.16227056086063385,0.16955997049808502
1725629309707395800,5.333395751953125,-0.5610480308532715,0.15271008014678955,0.14435608685016632
1725629309717348900,5.343348876953125,-0.5747015476226807,0.11877422034740448,0.16936582326889038
1725629309727302000,5.353302001953125,-0.6126025915145874,0.24786216020584106,0.20091097056865692
1725629309737256000,5.363255859375,-0.61222904920578,0.3346637189388275,0.24162040650844574
1725629309747209000,5.373208984375,-0.6594399809837341,0.3138258159160614,0.22876586019992828
1725629309757161700,5.38316162109375,-0.6937165856361389,0.28016671538352966,0.24169383943080902
1725629309767114800,5.39311474609375,-0.7425640225410461,0.295049786567688,0.2646934390068054
1725629309777068800,5.40306884765625,-0.7451352477073669,0.3336774408817291,0.326170414686203
1725629309787021800,5.413021728515625,-0.7636226415634155,0.3628973662853241,0.3741171658039093
1725629309796974600,5.422974609375,-0.7651735544204712,0.41199052333831787,0.39070096611976624
1725629309806929000,5.432928955078125,-0.7658822536468506,0.4543116092681885,0.3822421133518219
1725629309816881700,5.442881591796875,-0.7267359495162964,0.46901625394821167,0.3760468065738678
1725629309826834700,5.452834716796875,-0.7153452634811401,0.44973400235176086,0.3265751600265503
1725629309836788700,5.462788818359375,-0.7080513834953308,0.3905138075351715,0.26399779319763184
1725629309846741800,5.47274169921875,-0.6665325164794922,0.3542754054069519,0.22049295902252197
1725629309856694800,5.48269482421875,-0.6163827776908875,0.351766437292099,0.20490680634975433
1725629309866648600,5.492648681640625,-0.5907657146453857,0.3590148985385895,0.2052241414785385
1725629309876601600,5.5026015625,-0.5559829473495483,0.3880787789821625,0.23855173587799072
1725629309886554600,5.5125546875,-0.5329620838165283,0.37300851941108704,0.2664455771446228
1725629309896507600,5.522507568359375,-0.503918468952179,0.3240774869918823,0.27269840240478516
1725629309906461700,5.532461669921875,-0.4569813311100006,0.2859250605106354,0.2517090141773224
1725629309916414700,5.542414794921875,-0.4174347221851349,0.25435036420822144,0.22289812564849854
1725629309926367700,5.55236767578125,-0.3787079453468323,0.22919927537441254,0.19432532787322998
1725629309936321800,5.56232177734375,-0.33946093916893005,0.218438521027565,0.16926045715808868
1725629309946274800,5.57227490234375,-0.2965608537197113,0.20838744938373566,0.1654832363128662
1725629309956227800,5.582227783203125,-0.2599778175354004,0.2005782574415207,0.13842710852622986
1725629309966181600,5.592181640625,-0.21266071498394012,0.1791973114013672,0.12335393577814102
1725629309976134700,5.602134765625,-0.16678351163864136,0.17164671421051025,0.1062183603644371
1725629309986087700,5.612087646484375,-0.11387741565704346,0.15719284117221832,0.09320768713951111
1725629309996041700,5.622041748046875,-0.054633792489767075,0.1507897973060608,0.08865155279636383
1725629310005994800,5.631994873046875,-0.021112896502017975,0.12276982516050339,0.054303426295518875
1725629310015947800,5.64194775390625,0.03223394975066185,0.0832437202334404,0.021559862419962883
1725629310025900800,5.65190087890625,0.09582047164440155,0.08773916214704514,-0.001413402147591114
1725629310035854800,5.661854736328125,0.1474114954471588,0.11477397382259369,-0.032491426914930344
1725629310045807900,5.671807861328125,0.20946085453033447,0.091206394135952,-0.09152546525001526
1725629310055761000,5.681760986328125,0.2799872159957886,0.04290437325835228,-0.12232226133346558
1725629310065715000,5.69171484375,0.3064630627632141,0.03751951828598976,-0.16769492626190186
1725629310075668000,5.70166796875,0.3299678564071655,0.028507649898529053,-0.21054065227508545
1725629310085621000,5.71162109375,0.34183409810066223,0.0013058553449809551,-0.24848191440105438
1725629310095574800,5.72157470703125,0.34329110383987427,-0.04491676762700081,-0.27487727999687195
1725629310105527300,5.73152734375,0.3332940936088562,-0.07972987741231918,-0.3059214949607849
1725629310115480300,5.741480224609375,0.3253623843193054,-0.11859418451786041,-0.34139612317085266
1725629310125433300,5.751433349609375,0.3423161208629608,-0.13543829321861267,-0.35046666860580444
1725629310135387400,5.761387451171875,0.3740958869457245,-0.1214926615357399,-0.3471558392047882
1725629310145340400,5.77134033203125,0.4053921401500702,-0.132615864276886,-0.3575882613658905
1725629310155294500,5.78129443359375,0.45133328437805176,-0.1580841988325119,-0.3687610328197479
1725629310165247500,5.79124755859375,0.49135714769363403,-0.17824694514274597,-0.38766172528266907
1725629310175200500,5.801200439453125,0.5264959931373596,-0.19128310680389404,-0.4139431416988373
1725629310185154600,5.811154541015625,0.564689040184021,-0.20478114485740662,-0.4213072955608368
1725629310195107600,5.821107666015625,0.6054865121841431,-0.21315252780914307,-0.41480037569999695
1725629310205060600,5.831060546875,0.6412237286567688,-0.2185775488615036,-0.41906389594078064
1725629310215014400,5.841014404296875,0.6733459830284119,-0.21935252845287323,-0.4173741340637207
1725629310224967400,5.850967529296875,0.7217991948127747,-0.18617957830429077,-0.3761135935783386
1725629310234920400,5.86092041015625,0.7452981472015381,-0.17600737512111664,-0.38052165508270264
1725629310244874500,5.87087451171875,0.762875497341156,-0.16590537130832672,-0.38922375440597534
1725629310254827500,5.88082763671875,0.7885398864746094,-0.14954715967178345,-0.38931989669799805
1725629310264780300,5.8907802734375,0.8052536845207214,-0.14647166430950165,-0.41178029775619507
1725629310274733300,5.9007333984375,0.8225969672203064,-0.13237449526786804,-0.40594398975372314
1725629310284687400,5.910687255859375,0.8299150466918945,-0.1128133162856102,-0.39704567193984985
1725629310294640400,5.920640380859375,0.8280702829360962,-0.12191653251647949,-0.38641247153282166
1725629310304593400,5.930593505859375,0.832653820514679,-0.11609683930873871,-0.3780932128429413
1725629310314547200,5.940547119140625,0.8200839161872864,-0.1203182190656662,-0.392612487077713
1725629310324500200,5.950500244140625,0.8026661276817322,-0.10275673866271973,-0.3674946129322052
1725629310334453200,5.960453369140625,0.7894738912582397,-0.07260176539421082,-0.3629035949707031
1725629310344407300,5.9704072265625,0.7408628463745117,-0.0791696235537529,-0.3894364833831787
1725629310354360300,5.9803603515625,0.6993196606636047,-0.05654686689376831,-0.37876012921333313
1725629310364313300,5.990313232421875,0.636724054813385,-0.08314336091279984,-0.3838142156600952
1725629310374267400,6.000267333984375,0.5620476603507996,-0.11746085435152054,-0.38216865062713623
1725629310384220400,6.010220458984375,0.5143037438392639,-0.10440365225076675,-0.3625093996524811
1725629310394173400,6.02017333984375,0.4270023703575134,-0.14103756844997406,-0.33647221326828003
1725629310404127200,6.030127197265625,0.36693504452705383,-0.1111297458410263,-0.30961647629737854
1725629310414080300,6.040080322265625,0.2879534065723419,-0.1136522889137268,-0.33440011739730835
1725629310424033300,6.050033203125,0.2032189816236496,-0.022032111883163452,-0.3074672818183899
1725629310433987300,6.0599873046875,0.1384676843881607,-0.07691853493452072,-0.3045881390571594
1725629310443940400,6.0699404296875,0.0636398047208786,-0.10557130724191666,-0.3051483929157257
1725629310453893400,6.079893310546875,0.012810179963707924,-0.11336664855480194,-0.26705479621887207
1725629310463846400,6.089846435546875,-0.006390594411641359,-0.194651797413826,-0.2372628152370453
1725629310473800400,6.099800537109375,-0.07894176244735718,-0.06587064266204834,-0.20139668881893158
1725629310483753500,6.10975341796875,-0.04509853571653366,-0.1721317321062088,-0.16941368579864502
1725629310493706500,6.11970654296875,-0.02356874570250511,-0.1854424774646759,-0.13334409892559052
1725629310503660500,6.12966064453125,-0.0491919182240963,-0.020895518362522125,-0.0818248763680458
1725629310513613600,6.139613525390625,0.045587584376335144,-0.13724130392074585,-0.023032402619719505
1725629310523566600,6.149566650390625,0.047944534569978714,-0.13233128190040588,0.038043685257434845
1725629310533520400,6.159520263671875,0.05061009153723717,-0.10826589167118073,0.11924532800912857
1725629310543473400,6.169473388671875,0.03549758344888687,-0.11263781785964966,0.13950695097446442
1725629310553426400,6.179426513671875,0.04578137770295143,-0.07525155693292618,0.10691811889410019
1725629310563380500,6.18938037109375,0.041958242654800415,-0.2900350093841553,0.12407626956701279
1725629310573333500,6.19933349609375,0.009386450983583927,-0.25042155385017395,0.21475185453891754
1725629310583286300,6.209286376953125,-0.02235303819179535,-0.2310890108346939,0.2611096501350403
1725629310593240600,6.219240478515625,-0.03716633841395378,-0.2861173748970032,0.2928273677825928
1725629310603193300,6.229193359375,-0.03402833640575409,-0.33278900384902954,0.30734187364578247
1725629310613146400,6.239146484375,-0.022325076162815094,-0.37762919068336487,0.3071216344833374
1725629310623100200,6.24910009765625,-0.03257695585489273,-0.341178297996521,0.30089271068573
1725629310633053200,6.25905322265625,-0.04232572764158249,-0.2779335379600525,0.29822397232055664
1725629310643006200,6.269006103515625,-0.06037769466638565,-0.31609025597572327,0.23697660863399506
1725629310652960300,6.278960205078125,-0.06679964065551758,-0.33418935537338257,0.1688912957906723
1725629310662913300,6.288913330078125,-0.059871651232242584,-0.27007395029067993,0.16316896677017212
1725629310672866300,6.2988662109375,-0.09730024635791779,-0.25371840596199036,0.11670693010091782
1725629310682820400,6.3088203125,-0.10502158850431442,-0.21902185678482056,0.10462915897369385
1725629310692773400,6.3187734375,-0.11656665802001953,-0.19438815116882324,0.15720635652542114
1725629310702726400,6.328726318359375,-0.13936087489128113,-0.26872915029525757,0.13820230960845947
1725629310712679400,6.338679443359375,-0.14904706180095673,-0.35808032751083374,0.09411846846342087
1725629310722633500,6.348633544921875,-0.15243291854858398,-0.4497857689857483,0.05381229147315025
1725629310732586500,6.35858642578125,-0.1858592927455902,-0.5343307256698608,0.016706468537449837
1725629310742539500,6.36853955078125,-0.24855448305606842,-0.5990779399871826,-0.005463986191898584
1725629310752493300,6.378493408203125,-0.30516794323921204,-0.5980033278465271,0.02406088262796402
1725629310762446300,6.3884462890625,-0.3730679154396057,-0.5882740020751953,0.09645146131515503
1725629310772399400,6.3983994140625,-0.4391350746154785,-0.5596320033073425,0.167342409491539
1725629310782353400,6.408353515625,-0.47111451625823975,-0.5392653942108154,0.1841159462928772
1725629310792306400,6.418306396484375,-0.5127211213111877,-0.44119206070899963,0.20641566812992096
1725629310802259500,6.428259521484375,-0.4823448061943054,-0.4772622883319855,0.1931762546300888
1725629310812213500,6.438213623046875,-0.5099900364875793,-0.34528079628944397,0.16936706006526947
1725629310822166500,6.44816650390625,-0.4770808815956116,-0.2644742727279663,0.12876112759113312
1725629310832119600,6.45811962890625,-0.44162464141845703,-0.2487342208623886,0.13330021500587463
1725629310842073300,6.4680732421875,-0.42723730206489563,-0.3099503517150879,0.1330258846282959
1725629310852026400,6.4780263671875,-0.40516209602355957,-0.19780170917510986,0.10723742842674255
1725629310861979400,6.4879794921875,-0.3976952135562897,-0.17667247354984283,0.16098086535930634
1725629310871933400,6.497933349609375,-0.41394689679145813,-0.1530635505914688,0.18208642303943634
1725629310881886500,6.507886474609375,-0.4382089674472809,-0.2998102009296417,0.16393473744392395
1725629310891839500,6.517839599609375,-0.470883846282959,-0.14349596202373505,0.18584856390953064
1725629310901792300,6.527792236328125,-0.4869046211242676,-0.14222802221775055,0.22626681625843048
1725629310911746600,6.53774658203125,-0.4785023331642151,-0.33317267894744873,0.25834354758262634
1725629310921699300,6.54769921875,-0.5422428846359253,-0.24383822083473206,0.30531051754951477
1725629310931652400,6.55765234375,-0.541059136390686,-0.17108838260173798,0.3666396737098694
1725629310941606400,6.5676064453125,-0.551935076713562,-0.16519856452941895,0.391764760017395
1725629310951559400,6.577559326171875,-0.5899016261100769,-0.16285604238510132,0.38586583733558655
1725629310961512400,6.587512451171875,-0.6087701320648193,-0.21529358625411987,0.41625285148620605
1725629310971466200,6.59746630859375,-0.6091064810752869,-0.07329222559928894,0.4461614787578583
1725629310981419300,6.607419189453125,-0.6240373253822327,-0.05510200187563896,0.4745800197124481
1725629310991372300,6.617372314453125,-0.6309031844139099,-0.05679337680339813,0.49873462319374084
1725629311001326300,6.627326416015625,-0.6242432594299316,-0.05469481274485588,0.5115392208099365
1725629311011279400,6.637279296875,-0.6145232319831848,-0.047384168952703476,0.5144473910331726
1725629311021232400,6.647232421875,-0.6067851185798645,-0.025028150528669357,0.521474301815033
1725629311031186400,6.6571865234375,-0.6117016077041626,0.015912357717752457,0.5456544756889343
1725629311041139500,6.667139404296875,-0.624748706817627,0.03353336080908775,0.5784661173820496
1725629311051092500,6.677092529296875,-0.6275303959846497,0.07765261828899384,0.5988696217536926
1725629311061046300,6.68704638671875,-0.6351031064987183,0.09407809376716614,0.5906944870948792
1725629311070999300,6.696999267578125,-0.6356818079948425,0.11434049159288406,0.5847223401069641
1725629311080952300,6.706952392578125,-0.6278563737869263,0.13215725123882294,0.5973732471466064
1725629311090905300,6.7169052734375,-0.5987008810043335,0.14774766564369202,0.6173714995384216
1725629311100859400,6.726859375,-0.5978524684906006,0.13740593194961548,0.597173810005188
1725629311110813200,6.736813232421875,-0.5935144424438477,0.12396976351737976,0.5919697284698486
1725629311120766200,6.74676611328125,-0.5601065158843994,0.12029128521680832,0.6021486520767212
1725629311130720300,6.75672021484375,-0.5184187293052673,0.13465584814548492,0.6027489304542542
1725629311140673300,6.76667333984375,-0.4718495011329651,0.13324350118637085,0.5734608769416809
1725629311150626000,6.7766259765625,-0.41413959860801697,0.1430191695690155,0.5600196123123169
1725629311160580000,6.786580078125,-0.3564312756061554,0.15055398643016815,0.5150221586227417
1725629311170533000,6.796533203125,-0.32492366433143616,0.16586530208587646,0.4607120454311371
1725629311180486000,6.80648583984375,-0.2909063696861267,0.16549378633499146,0.3879961669445038
1725629311190440200,6.816440185546875,-0.2623543441295624,0.13686320185661316,0.30837538838386536
1725629311200393000,6.82639306640625,-0.21419177949428558,0.0863182321190834,0.20754124224185944
1725629311210346000,6.836345947265625,-0.1685294806957245,0.07684723287820816,0.16593149304389954
1725629311220300000,6.846300048828125,-0.11256005614995956,0.11354871839284897,0.16398780047893524
1725629311230253000,6.856253173828125,-0.07320865988731384,0.09779611974954605,0.1716230809688568
1725629311240206000,6.8662060546875,-0.04781442880630493,0.054104600101709366,0.1797267347574234
1725629311250159000,6.8761591796875,-0.018405942246317863,0.002894677920266986,0.1872863918542862
1725629311260113000,6.88611279296875,0.011936020106077194,-0.03656335175037384,0.19040101766586304
1725629311270066000,6.89606591796875,0.05078115314245224,-0.08301740139722824,0.16074138879776
1725629311280019000,6.90601904296875,0.10585960000753403,-0.1252179592847824,0.11978964507579803
1725629311289973000,6.915972900390625,0.18570515513420105,-0.13937266170978546,0.07809972018003464
1725629311299926000,6.925926025390625,0.245766282081604,-0.15030398964881897,0.017808131873607635
1725629311309879000,6.935879150390625,0.3174993097782135,-0.15286169946193695,-0.035497963428497314
1725629311319833000,6.9458330078125,0.3821079134941101,-0.1286487579345703,-0.06512897461652756
1725629311329786000,6.9557861328125,0.41086044907569885,-0.09939286857843399,-0.08808861672878265
1725629311339739100,6.9657392578125,0.417251318693161,-0.11496461927890778,-0.14138969779014587
1725629311349693200,6.975693115234375,0.4452126622200012,-0.12196633219718933,-0.17629414796829224
1725629311359646200,6.985646240234375,0.4527878165245056,-0.11343551427125931,-0.20774602890014648
1725629311369599000,6.995598876953125,0.47258123755455017,-0.11801961809396744,-0.24653282761573792
1725629311379553000,7.005552978515625,0.5126190781593323,-0.11375614255666733,-0.26254940032958984
1725629311389506000,7.015506103515625,0.5612249374389648,-0.10386355966329575,-0.27429020404815674
1725629311399459000,7.025458984375,0.6170915365219116,-0.09922894835472107,-0.2957320809364319
1725629311409412000,7.035412109375,0.657345712184906,-0.10238053649663925,-0.3328637480735779
1725629311419366100,7.0453662109375,0.6804332137107849,-0.1030324250459671,-0.38673439621925354
1725629311429319200,7.055319091796875,0.7073755860328674,-0.08845268189907074,-0.40858322381973267
1725629311439272200,7.065272216796875,0.71632319688797,-0.07864822447299957,-0.4390622675418854
1725629311449226200,7.075226318359375,0.7334704995155334,-0.027194885537028313,-0.4329175353050232
1725629311459179300,7.08517919921875,0.7023525238037109,-0.008010271936655045,-0.4459012448787689
1725629311469132000,7.095132080078125,0.739635169506073,-0.03904541954398155,-0.47146013379096985
1725629311479086000,7.105086181640625,0.7956991791725159,0.027390476316213608,-0.4431527554988861
1725629311489038800,7.115038818359375,0.809209406375885,0.04711997136473656,-0.4576653838157654
1725629311498991900,7.124991943359375,0.8220217227935791,0.06768961250782013,-0.4557465612888336
1725629311508946200,7.1349462890625,0.8373237252235413,0.10577095299959183,-0.4541446566581726
1725629311518899000,7.14489892578125,0.8271427750587463,0.1253635138273239,-0.4785903990268707
1725629311528852000,7.15485205078125,0.8165282607078552,0.15858326852321625,-0.4886819124221802
1725629311538806000,7.164805908203125,0.8022252917289734,0.19786609709262848,-0.4759504199028015
1725629311548759000,7.174759033203125,0.7924080491065979,0.26469919085502625,-0.43218615651130676
1725629311558712000,7.184712158203125,0.7694221138954163,0.3063386082649231,-0.3888362646102905
1725629311568665000,7.1946650390625,0.7425729036331177,0.29761356115341187,-0.3801354467868805
1725629311578619000,7.204618896484375,0.7244610786437988,0.304123193025589,-0.3572290539741516
1725629311588572000,7.214572021484375,0.6552553772926331,0.31042611598968506,-0.3459625542163849
1725629311598525000,7.22452490234375,0.655139148235321,0.3201158046722412,-0.30226993560791016
1725629311608479000,7.23447900390625,0.6140870451927185,0.33768123388290405,-0.25458788871765137
1725629311618432000,7.244431884765625,0.5605025887489319,0.34033098816871643,-0.2454254925251007
1725629311628385000,7.254385009765625,0.5146368741989136,0.3386009931564331,-0.24924686551094055
1725629311638339000,7.264339111328125,0.4662470817565918,0.32062557339668274,-0.2571816146373749
1725629311648292000,7.2742919921875,0.4363589286804199,0.30152246356010437,-0.23443740606307983
1725629311658245000,7.2842451171875,0.3902623653411865,0.27695852518081665,-0.23789823055267334
1725629311668199200,7.29419921875,0.34525230526924133,0.24578969180583954,-0.26484382152557373
1725629311678152200,7.304152099609375,0.27798765897750854,0.20379199087619781,-0.27245330810546875
1725629311688105200,7.314105224609375,0.19921401143074036,0.1873408406972885,-0.25544261932373047
1725629311698058200,7.324058349609375,0.1474209874868393,0.14962604641914368,-0.2518676221370697
1725629311708012000,7.334011962890625,0.07972636073827744,0.1674622893333435,-0.22470737993717194
1725629311717965000,7.343965087890625,0.019403772428631783,0.15726210176944733,-0.1980244517326355
1725629311727918000,7.35391796875,0.017021842300891876,0.10878511518239975,-0.1989469677209854
1725629311737872100,7.3638720703125,0.04194644093513489,0.15153078734874725,-0.10295853018760681
1725629311747825200,7.3738251953125,0.03937888890504837,0.14830435812473297,-0.07684649527072906
1725629311757778200,7.383778076171875,0.03913087397813797,0.12628501653671265,-0.029932385310530663
1725629311767732200,7.393732177734375,0.037473589181900024,0.11262672394514084,0.019292417913675308
1725629311777685200,7.403685302734375,0.05773744359612465,0.14457018673419952,0.07661885023117065
1725629311787638000,7.413637939453125,0.0473223552107811,0.19725923240184784,0.13098835945129395
1725629311797592000,7.423592041015625,0.011910757049918175,0.16873885691165924,0.1810964047908783
1725629311807544800,7.433544921875,-0.04221026971936226,0.14382845163345337,0.20316867530345917
1725629311817497900,7.443497802734375,-0.10383880138397217,0.24220266938209534,0.2514282464981079
1725629311827452000,7.453451904296875,-0.06048094481229782,0.10929787158966064,0.2637315094470978
1725629311837405000,7.463405029296875,-0.0493321493268013,0.023120542988181114,0.272925466299057
1725629311847358000,7.47335791015625,-0.03490660339593887,-0.014287548139691353,0.278754860162735
1725629311857311000,7.48331103515625,-0.010192589834332466,-0.016045618802309036,0.29953646659851074
1725629311867265000,7.49326513671875,0.008565917611122131,-0.0363445021212101,0.30289098620414734
1725629311877218000,7.503218017578125,0.013625010848045349,-0.04495464637875557,0.2954719066619873
1725629311887171000,7.513171142578125,-0.0041206954047083855,-0.06369184702634811,0.2482229322195053
1725629311897125000,7.523125,-0.01603608950972557,-0.07299663871526718,0.19789274036884308
1725629311907078100,7.533078125,-0.027670107781887054,-0.07083228975534439,0.1557580679655075
1725629311917031200,7.54303125,-0.03529442101716995,-0.08623766154050827,0.10804588347673416
1725629311926985000,7.55298486328125,-0.042411454021930695,-0.09974680840969086,0.08095301687717438
1725629311936938000,7.56293798828125,-0.0536181703209877,-0.10102494060993195,0.1027667298913002
1725629311946891000,7.57289111328125,-0.06350649148225784,-0.13128243386745453,0.10712791979312897
1725629311956845000,7.582844970703125,-0.07763062417507172,-0.18462689220905304,0.10628318786621094
1725629311966798000,7.592798095703125,-0.09580031037330627,-0.2578792870044708,0.08027449250221252
1725629311976751000,7.602751220703125,-0.11561912298202515,-0.32740968465805054,0.07285667210817337
1725629311986704100,7.6127041015625,-0.14282864332199097,-0.4163725972175598,0.04018394649028778
1725629311996658200,7.622658203125,-0.16849170625209808,-0.47677820920944214,-0.003168863710016012
1725629312006611200,7.632611083984375,-0.1850975751876831,-0.4936698377132416,0.003512208815664053
1725629312016564200,7.642564208984375,-0.2029474675655365,-0.5226747989654541,0.002417696639895439
1725629312026518000,7.65251806640625,-0.21022561192512512,-0.5340409278869629,0.0053064278326928616
1725629312036471000,7.662470947265625,-0.22079728543758392,-0.5249648690223694,0.04046480357646942
1725629312046424000,7.672424072265625,-0.22292621433734894,-0.642906129360199,0.052336644381284714
1725629312056378000,7.682378173828125,-0.27930501103401184,-0.4850257337093353,0.08833187818527222
1725629312066331100,7.6923310546875,-0.28778666257858276,-0.39390674233436584,0.11192535609006882
1725629312076284200,7.7022841796875,-0.2812836766242981,-0.5432393550872803,0.11867385357618332
1725629312086238200,7.71223828125,-0.32964959740638733,-0.2858664095401764,0.15160144865512848
1725629312096191200,7.722191162109375,-0.3357149362564087,-0.21312715113162994,0.12456532567739487
1725629312106144000,7.73214404296875,-0.31990933418273926,-0.33529219031333923,0.1337447166442871
1725629312116098000,7.74209814453125,-0.3652890920639038,-0.24984639883041382,0.14360208809375763
1725629312126051000,7.752051025390625,-0.38941678404808044,-0.14574475586414337,0.11804985255002975
1725629312136004000,7.762004150390625,-0.42092201113700867,-0.13056917488574982,0.08362922817468643
1725629312145957000,7.77195703125,-0.4685364067554474,-0.12753769755363464,0.11864420026540756
1725629312155911000,7.781910888671875,-0.520726203918457,-0.11770548671483994,0.1513308733701706
1725629312165864000,7.791864013671875,-0.5461428761482239,-0.05436459183692932,0.18175722658634186
1725629312175817000,7.80181689453125,-0.5672129988670349,-0.034792326390743256,0.26565393805503845
1725629312185771000,7.81177099609375,-0.583198606967926,-0.029553623870015144,0.3180153965950012
1725629312195724000,7.82172412109375,-0.6056838631629944,-0.04937870800495148,0.3096807301044464
1725629312205676800,7.8316767578125,-0.607138991355896,-0.057429976761341095,0.31703612208366394
1725629312215631000,7.841631103515625,-0.6273818016052246,-0.11076357215642929,0.287668913602829
1725629312225583900,7.851583984375,-0.6130760908126831,-0.13256579637527466,0.2644818425178528
1725629312235537000,7.861536865234375,-0.6083133816719055,-0.07224564999341965,0.270346462726593
1725629312245490700,7.87149072265625,-0.6095112562179565,0.0007374801207333803,0.30045777559280396
1725629312255443700,7.881443603515625,-0.6162060499191284,0.04415145143866539,0.324095219373703
1725629312265396700,7.891396728515625,-0.6176763772964478,0.05111641809344292,0.3423439860343933
1725629312275350800,7.901350830078125,-0.6191247701644897,0.056913554668426514,0.3699437379837036
1725629312285303800,7.9113037109375,-0.595576822757721,0.0647437795996666,0.44877517223358154
1725629312295256800,7.9212568359375,-0.6242014765739441,0.054723385721445084,0.4088519513607025
1725629312305211000,7.9312109375,-0.6205223202705383,0.07125948369503021,0.43716293573379517
1725629312315164000,7.941163818359375,-0.6258699297904968,0.15577134490013123,0.4889776110649109
1725629312325117000,7.951116943359375,-0.6134361624717712,0.21105191111564636,0.5086445212364197
1725629312335070000,7.961070068359375,-0.5996947884559631,0.19107158482074738,0.49583783745765686
1725629312345023700,7.971023681640625,-0.5953599810600281,0.14534138143062592,0.48529598116874695
1725629312354976800,7.980976806640625,-0.6026666760444641,0.12687741219997406,0.45602449774742126
1725629312364929800,7.9909296875,-0.589141845703125,0.0714905858039856,0.433291494846344
1725629312374883800,8.0008837890625,-0.5768311619758606,0.04539930075407028,0.44009724259376526
1725629312384836900,8.0108369140625,-0.5578170418739319,0.06969904154539108,0.43467292189598083
1725629312394790000,8.020789794921875,-0.5311365723609924,0.0752146914601326,0.45968395471572876
1725629312404744000,8.030743896484376,-0.45845919847488403,0.039315540343523026,0.45940884947776794
1725629312414697000,8.040697021484375,-0.3998088836669922,-0.002736241091042757,0.40255460143089294
1725629312424650000,8.05064990234375,-0.3531130254268646,-0.004915239289402962,0.3784889578819275
1725629312434604000,8.06060400390625,-0.287930965423584,0.05180228874087334,0.32254981994628906
1725629312444557000,8.07055712890625,-0.26131534576416016,0.01048174686729908,0.23111845552921295
1725629312454510000,8.080510009765625,-0.22826500236988068,-0.014839917421340942,0.14959853887557983
1725629312464464000,8.0904638671875,-0.17943914234638214,-0.0011592588853091002,0.10222703218460083
1725629312474417000,8.1004169921875,-0.13694286346435547,0.03815053403377533,0.07083474844694138
1725629312484370000,8.110369873046874,-0.10803345590829849,0.03900913894176483,0.0586601085960865
1725629312494324000,8.120323974609375,-0.07268495112657547,0.032501187175512314,0.08216752856969833
1725629312504277000,8.130277099609375,-0.051655832678079605,0.024940473958849907,0.07423370331525803
1725629312514230000,8.14022998046875,-0.03791552037000656,0.03391719236969948,0.02003518119454384
1725629312524184000,8.15018408203125,-0.001143923494964838,0.01917393133044243,-0.058282528072595596
1725629312534137000,8.16013720703125,0.09714522957801819,0.03839670866727829,-0.10341887176036835
1725629312544089900,8.17008984375,0.15468230843544006,0.03345814347267151,-0.16134369373321533
1725629312554044000,8.1800439453125,0.2135259509086609,0.04867587983608246,-0.21351654827594757
1725629312563996700,8.18999658203125,0.28268155455589294,0.09401033818721771,-0.2540605068206787
1725629312573949700,8.19994970703125,0.3284313678741455,0.14675256609916687,-0.28839874267578125
1725629312583903700,8.20990380859375,0.3633805513381958,0.17718343436717987,-0.33906883001327515
1725629312593856800,8.219856689453126,0.39761826395988464,0.20514389872550964,-0.36227747797966003
1725629312603809800,8.229809814453125,0.4263916015625,0.20286795496940613,-0.3944402039051056
1725629312613763800,8.239763916015624,0.4538358151912689,0.1519898772239685,-0.4438733160495758
1725629312623716900,8.249716796875,0.5138914585113525,0.13889457285404205,-0.4672526717185974
1725629312633670000,8.259669921875,0.5698353052139282,0.16354435682296753,-0.4880768656730652
1725629312643623000,8.269622802734375,0.6138914823532104,0.19666609168052673,-0.49811431765556335
1725629312653577000,8.279576904296874,0.644415020942688,0.21106931567192078,-0.5206514596939087
1725629312663530000,8.289530029296875,0.6803663372993469,0.20269128680229187,-0.51600182056427
1725629312673483000,8.29948291015625,0.706789493560791,0.1735789030790329,-0.5407156348228455
1725629312683436800,8.309436767578125,0.7133579254150391,0.15151168406009674,-0.5822790861129761
1725629312693389800,8.319389892578124,0.7255864143371582,0.12541627883911133,-0.604453980922699
1725629312703342800,8.3293427734375,0.7584179043769836,0.1007910892367363,-0.5857034921646118
1725629312713297000,8.339296875,0.7868188619613647,0.10673435032367706,-0.5474305152893066
1725629312723250000,8.34925,0.8071888089179993,0.1428002119064331,-0.5099952816963196
1725629312733203000,8.359202880859375,0.8154842853546143,0.18106822669506073,-0.4818231463432312
1725629312743157000,8.369156982421876,0.8293426036834717,0.17623965442180634,-0.48848453164100647
1725629312753110000,8.379110107421875,0.8624818921089172,0.17284108698368073,-0.48325252532958984
1725629312763063000,8.38906298828125,0.8801937699317932,0.18410652875900269,-0.48608720302581787
1725629312773016800,8.399016845703125,0.8637113571166992,0.1906326711177826,-0.5257869362831116
1725629312782969900,8.408969970703126,0.8271540999412537,0.2013220638036728,-0.5386976599693298
1725629312792923000,8.4189228515625,0.779793918132782,0.1985515058040619,-0.5452655553817749
1725629312802877000,8.428876953125,0.734589159488678,0.21890978515148163,-0.525972843170166
1725629312812830000,8.438829833984375,0.7021144032478333,0.2651904225349426,-0.49180731177330017
1725629312822783000,8.448782958984374,0.649979293346405,0.23970289528369904,-0.5019686222076416
1725629312832737000,8.458737060546875,0.6240772604942322,0.2209448516368866,-0.514209508895874
1725629312842690000,8.46868994140625,0.6086058616638184,0.2072940170764923,-0.49417003989219666
1725629312852643000,8.47864306640625,0.5975448489189148,0.2042064666748047,-0.48185664415359497
1725629312862596900,8.488596923828124,0.5481234788894653,0.23979882895946503,-0.42600882053375244
1725629312872550000,8.4985498046875,0.5249152183532715,0.20963691174983978,-0.39031535387039185
1725629312882503000,8.5085029296875,0.4601026475429535,0.17398996651172638,-0.4263777434825897
1725629312892457000,8.51845703125,0.3595876395702362,0.12977586686611176,-0.4604220688343048
1725629312902409700,8.52840966796875,0.31038281321525574,-0.021151065826416016,-0.5201283097267151
1725629312912362800,8.53836279296875,0.3204297125339508,-0.06757606565952301,-0.5283147692680359
1725629312922315800,8.548315673828125,0.2931986153125763,-0.02653328888118267,-0.39499130845069885
1725629312932269800,8.558269775390626,0.2593449652194977,-0.07913660258054733,-0.3581555187702179
1725629312942222800,8.568222900390625,0.1644354909658432,0.06550553441047668,-0.3642381727695465
1725629312952177000,8.578177001953126,0.20120975375175476,-0.005813647992908955,-0.34140902757644653
1725629312962130000,8.5881298828125,0.14857371151447296,0.0787515640258789,-0.30404141545295715
1725629312972083000,8.5980830078125,0.2098260521888733,-0.017460839822888374,-0.3007676303386688
1725629312982036000,8.608035888671875,0.1904451698064804,-0.07929917424917221,-0.23785336315631866
1725629312991989800,8.61798974609375,0.1748584359884262,-0.02991357631981373,-0.19308216869831085
1725629313001942800,8.62794287109375,0.10358826071023941,0.16610494256019592,-0.1177610456943512
1725629313011895800,8.637895751953126,0.17217983305454254,0.013234531506896019,-0.07735338807106018
1725629313021849900,8.647849853515625,0.18371345102787018,-0.01109637413173914,-0.06637450307607651
1725629313031803000,8.657802978515624,0.2007785588502884,-0.0453638881444931,-0.07826295495033264
1725629313041756000,8.667755859375,0.21227169036865234,-0.06100330129265785,-0.06755651533603668
1725629313051710000,8.6777099609375,0.16734562814235687,0.036057546734809875,-0.017682189121842384
1725629313061663000,8.6876630859375,0.1547938883304596,0.05070306733250618,0.04463418200612068
1725629313071616000,8.697615966796874,0.07454241812229156,0.022592011839151382,0.11291202902793884
1725629313081569800,8.70756982421875,0.025210820138454437,-0.02635315991938114,0.15799535810947418
1725629313091522800,8.717522705078125,-0.006835160776972771,-0.10192091763019562,0.1878429353237152
1725629313101475800,8.727475830078125,-0.031163936480879784,-0.18365199863910675,0.19544093310832977
1725629313111429600,8.7374296875,-0.06615406274795532,-0.24796050786972046,0.16900110244750977
1725629313121382700,8.747382568359376,-0.10376854985952377,-0.26221585273742676,0.14905349910259247
1725629313131335700,8.757335693359375,-0.14034734666347504,-0.260653555393219,0.12787742912769318
1725629313141289700,8.767289794921876,-0.1910075843334198,-0.26549971103668213,0.12131673842668533
1725629313151242800,8.77724267578125,-0.22765585780143738,-0.27156612277030945,0.09099624305963516
1725629313161195800,8.78719580078125,-0.23297925293445587,-0.30468758940696716,0.060311563313007355
1725629313171149800,8.79714990234375,-0.22737452387809753,-0.36586955189704895,-0.0035660462453961372
1725629313181102800,8.807102783203124,-0.207949697971344,-0.36999425292015076,-0.020738108083605766
1725629313191056000,8.817055908203125,-0.20543301105499268,-0.3528914451599121,-0.03857409954071045
1725629313201009700,8.827009765625,-0.2088027000427246,-0.3752862215042114,-0.09166980534791946
1725629313210962700,8.836962646484375,-0.19735535979270935,-0.4065961539745331,-0.09036523848772049
1725629313220915700,8.846915771484374,-0.2192595899105072,-0.5159884095191956,-0.1400742083787918
1725629313230868700,8.85686865234375,-0.23530887067317963,-0.5725823640823364,-0.1458343267440796
1725629313240822800,8.86682275390625,-0.25478988885879517,-0.5725229978561401,-0.12966229021549225
1725629313250775800,8.87677587890625,-0.2697729468345642,-0.5275240540504456,-0.09128579497337341
1725629313260728800,8.886728759765624,-0.2791057229042053,-0.46803784370422363,-0.0447518527507782
1725629313270683000,8.896682861328125,-0.2695044279098511,-0.41171008348464966,0.01850355975329876
1725629313280636000,8.906635986328125,-0.27307841181755066,-0.4041733145713806,0.034372538328170776
1725629313290589000,8.9165888671875,-0.27241218090057373,-0.4007071554660797,0.07500351220369339
1725629313300542700,8.926542724609375,-0.27055782079696655,-0.3608739972114563,0.08990230411291122
1725629313310495700,8.936495849609376,-0.26995792984962463,-0.31399211287498474,0.1015646904706955
1725629313320448800,8.94644873046875,-0.3051345646381378,-0.25663188099861145,0.1129039004445076
1725629313330402800,8.95640283203125,-0.33688855171203613,-0.22565045952796936,0.13267859816551208
1725629313340355800,8.96635595703125,-0.3531396687030792,-0.09953618794679642,0.1834498941898346
1725629313350308600,8.97630859375,-0.3675072491168976,-0.007614749949425459,0.2344573438167572
1725629313360263000,8.986262939453125,-0.3816710114479065,0.06933995336294174,0.26962199807167053
1725629313370215700,8.996215576171876,-0.41219812631607056,-0.03573146462440491,0.2570076584815979
1725629313380168700,9.006168701171875,-0.460210382938385,0.07357532531023026,0.2960567772388458
1725629313390122800,9.016122802734374,-0.5133850574493408,0.09227313101291656,0.32641610503196716
1725629313400075800,9.02607568359375,-0.5801427960395813,0.06996329873800278,0.2635391354560852
1725629313410028800,9.03602880859375,-0.6361046433448792,0.07440868765115738,0.33176496624946594
1725629313419982600,9.045982666015625,-0.676157534122467,0.13494792580604553,0.4075468182563782
1725629313429935600,9.055935546875,-0.7072519659996033,0.20415444672107697,0.43777352571487427
1725629313439888600,9.065888671875,-0.7492801547050476,0.19800813496112823,0.4454394280910492
1725629313449842700,9.0758427734375,-0.7810814380645752,0.17169997096061707,0.4565604329109192
1725629313459795700,9.085795654296875,-0.7864793539047241,0.10565915703773499,0.448284387588501
1725629313469748700,9.095748779296875,-0.8243157863616943,0.04477518051862717,0.47280383110046387
1725629313479702800,9.105702880859376,-0.8282833099365234,0.1685655564069748,0.48889464139938354
1725629313489655800,9.11565576171875,-0.8597835302352905,0.228293314576149,0.4935839772224426
1725629313499608800,9.12560888671875,-0.8818800449371338,0.2454046607017517,0.5022245645523071
1725629313509562600,9.135562744140625,-0.8868574500083923,0.25892454385757446,0.520876944065094
1725629313519515600,9.145515625,-0.8754681944847107,0.23677875101566315,0.5280944108963013
1725629313529468700,9.15546875,-0.8565356135368347,0.21377228200435638,0.5275276303291321
1725629313539421700,9.165421630859376,-0.8463513851165771,0.2406046837568283,0.5551613569259644
1725629313549375700,9.175375732421875,-0.8185678124427795,0.2592775225639343,0.577038586139679
1725629313559328800,9.185328857421876,-0.8083404898643494,0.29641664028167725,0.6039609909057617
1725629313569281800,9.19528173828125,-0.7942777872085571,0.30672207474708557,0.6069885492324829
1725629313579235800,9.20523583984375,-0.7768154144287109,0.29019343852996826,0.5657985210418701
1725629313589188900,9.21518896484375,-0.7291749119758606,0.28590938448905945,0.5808988213539124
1725629313599142000,9.225141845703124,-0.6821951866149902,0.30492594838142395,0.5739743709564209
1725629313609096000,9.235095947265625,-0.6328343152999878,0.27383744716644287,0.5354934930801392
1725629313619049000,9.245049072265624,-0.5515916347503662,0.2866741418838501,0.5471408367156982
1725629313629001700,9.255001708984375,-0.47523561120033264,0.29694560170173645,0.561481237411499
1725629313638955800,9.264955810546875,-0.3970832824707031,0.29434022307395935,0.5320664048194885
1725629313648908800,9.27490869140625,-0.3139137029647827,0.24147279560565948,0.4494844973087311
1725629313658861800,9.28486181640625,-0.26335519552230835,0.21981357038021088,0.39205238223075867
1725629313668816000,9.29481591796875,-0.2229769229888916,0.25275734066963196,0.3714142143726349
1725629313678769000,9.304768798828125,-0.16851581633090973,0.2923921048641205,0.364756315946579
1725629313688721700,9.3147216796875,-0.12416085600852966,0.25853538513183594,0.3176962733268738
1725629313698676000,9.324676025390625,-0.07146382331848145,0.19421233236789703,0.2601746618747711
1725629313708628700,9.334628662109376,-0.02991589531302452,0.1507180631160736,0.21269528567790985
1725629313718581800,9.344581787109375,0.007615235634148121,0.1349172592163086,0.18362554907798767
1725629313728535600,9.35453564453125,0.04146597161889076,0.12642526626586914,0.15016022324562073
1725629313738488600,9.364488525390625,0.061510249972343445,0.10358918458223343,0.09001405537128448
1725629313748441600,9.374441650390626,0.08936318755149841,0.08298094570636749,0.04631457105278969
1725629313758395600,9.384395751953125,0.12258851528167725,0.09549194574356079,0.00762150390073657
1725629313768348700,9.3943486328125,0.14076727628707886,0.0702608972787857,-0.0607031024992466
1725629313778301700,9.4043017578125,0.20094966888427734,0.04856758564710617,-0.11175590008497238
1725629313788255700,9.414255859375,0.2621995806694031,0.0555664524435997,-0.1663896143436432
1725629313798208800,9.424208740234375,0.29911792278289795,0.024611201137304306,-0.23933333158493042
1725629313808161800,9.434161865234374,0.3541562855243683,-0.01474448386579752,-0.30157333612442017
1725629313818114800,9.44411474609375,0.4065379798412323,-0.010370242409408092,-0.33296269178390503
1725629313828068600,9.454068603515625,0.4230998754501343,-0.012290338054299355,-0.38451293110847473
1725629313838021600,9.464021728515625,0.4772627055644989,-0.012406186200678349,-0.40416574478149414
1725629313847974700,9.473974609375,0.527824878692627,0.03750639036297798,-0.3910062611103058
1725629313857928700,9.4839287109375,0.5815752148628235,0.09126362204551697,-0.3895913064479828
1725629313867881700,9.4938818359375,0.6254968643188477,0.07915662974119186,-0.41639524698257446
1725629313877834800,9.503834716796876,0.669035792350769,0.06257818639278412,-0.4599062204360962
1725629313887788800,9.513788818359375,0.7176089882850647,0.06553718447685242,-0.4925398528575897
1725629313897741800,9.523741943359376,0.7730628848075867,0.07525612413883209,-0.5169162750244141
1725629313907694800,9.53369482421875,0.8167852759361267,0.11007128655910492,-0.519490122795105
1725629313917649000,9.54364892578125,0.8508553504943848,0.1580989956855774,-0.5176903605461121
1725629313927602000,9.553601806640625,0.8731649518013,0.1615096628665924,-0.5365615487098694
1725629313937555000,9.563554931640626,0.9047694802284241,0.20786437392234802,-0.5152847766876221
1725629313947508700,9.5735087890625,0.8970766067504883,0.22000423073768616,-0.5368766784667969
1725629313957461800,9.583461669921874,0.8971312046051025,0.24950194358825684,-0.5224841237068176
1725629313967414800,9.593414794921875,0.8841651082038879,0.2280050665140152,-0.5339214205741882
1725629313977368800,9.603368896484374,0.8555712699890137,0.20120008289813995,-0.573530375957489
1725629313987321900,9.61332177734375,0.8232810497283936,0.17088814079761505,-0.5882325172424316
1725629313997275000,9.62327490234375,0.819510817527771,0.20335714519023895,-0.5456405878067017
1725629314007229000,9.63322900390625,0.8257200121879578,0.24465948343276978,-0.502650260925293
1725629314017182000,9.643181884765625,0.8216855525970459,0.26836854219436646,-0.461761474609375
1725629314027134700,9.653134765625,0.8080661296844482,0.25894051790237427,-0.45637407898902893
1725629314037088800,9.6630888671875,0.7860764265060425,0.26816412806510925,-0.44638562202453613
1725629314047041500,9.67304150390625,0.7581319212913513,0.2965085208415985,-0.41503608226776123
1725629314056994600,9.68299462890625,0.7208476662635803,0.2816925644874573,-0.4199317693710327
1725629314066947600,9.692947509765625,0.6844531893730164,0.2742176055908203,-0.3647494912147522
1725629314076901600,9.702901611328125,0.6378153562545776,0.253660649061203,-0.3606719374656677
1725629314086854700,9.712854736328126,0.5652018785476685,0.2219197303056717,-0.3736925423145294
1725629314096807700,9.7228076171875,0.5099136233329773,0.2126695066690445,-0.3436520993709564
1725629314106761500,9.732761474609376,0.44250956177711487,0.1983167678117752,-0.3473578095436096
1725629314116714500,9.742714599609375,0.380592942237854,0.12905806303024292,-0.3584088683128357
1725629314126668500,9.75266845703125,0.3497728705406189,0.12002449482679367,-0.3617100119590759
1725629314136621600,9.76262158203125,0.3098584711551666,0.13493607938289642,-0.2970907986164093
1725629314146574600,9.77257470703125,0.27905794978141785,0.14956891536712646,-0.24969646334648132
1725629314156528400,9.7825283203125,0.25015145540237427,0.09410804510116577,-0.18564824759960175
1725629314166481400,9.7924814453125,0.19364126026630402,0.08291009068489075,-0.14514735341072083
1725629314176434200,9.80243408203125,0.17334584891796112,0.010781565681099892,-0.11335347592830658
1725629314186388500,9.812388427734374,0.108253113925457,-0.006710135843604803,-0.11726580560207367
1725629314196341500,9.822341552734375,0.03361136466264725,0.10293912887573242,-0.0532655194401741
1725629314206294300,9.832294189453124,0.05638826638460159,0.018346523866057396,-0.01864704117178917
1725629314216248600,9.84224853515625,0.03688061237335205,0.0067636375315487385,0.008765939623117447
1725629314226201300,9.852201416015625,-0.04269658029079437,0.19387391209602356,0.11624119430780411
1725629314236154400,9.862154296875,-0.015388796105980873,0.09578036516904831,0.1533384919166565
1725629314246108400,9.8721083984375,-0.03732765093445778,0.08286669850349426,0.18514488637447357
1725629314256061400,9.8820615234375,-0.09974495321512222,0.14156410098075867,0.2185545116662979
1725629314266014500,9.892014404296875,-0.07845765352249146,0.10261645913124084,0.2667785882949829
1725629314275968300,9.90196826171875,-0.10208947956562042,0.05525107681751251,0.3143591582775116
1725629314285921300,9.91192138671875,-0.10954935848712921,0.0729886144399643,0.33223116397857666
1725629314295874300,9.921874267578126,-0.1022895872592926,0.060465630143880844,0.31777527928352356
1725629314305827300,9.931827392578125,-0.08997595310211182,0.03520474210381508,0.2743421792984009
1725629314315781400,9.941781494140624,-0.07672060281038284,0.01751922257244587,0.2359282374382019
1725629314325734400,9.951734375,-0.08613169938325882,-0.013245136477053165,0.19022050499916077
1725629314335687400,9.9616875,-0.09234672039747238,-0.028017424046993256,0.17765384912490845
1725629314345641500,9.971641357421875,-0.09645423293113708,-0.07085546106100082,0.15444619953632355
1725629314355594500,9.981594482421874,-0.09879195690155029,-0.10635805875062943,0.1494719386100769
1725629314365547500,9.991547607421875,-0.09269087016582489,-0.14908373355865479,0.13143642246723175
1725629314375501300,10.001501220703124,-0.07454462349414825,-0.18437887728214264,0.11633151024580002
1725629314385454300,10.011454345703125,-0.05406131595373154,-0.21299950778484344,0.08726068586111069
1725629314395407400,10.021407470703124,-0.0472651943564415,-0.22939153015613556,0.06615006923675537
1725629314405361400,10.031361328125,-0.057418812066316605,-0.2440039962530136,0.01445203647017479
1725629314415314400,10.041314453125,-0.09740830212831497,-0.24150168895721436,0.009190162643790245
1725629314425267500,10.051267333984375,-0.16124069690704346,-0.2600235641002655,-0.034926556050777435
1725629314435221500,10.061221435546875,-0.21971039474010468,-0.25454145669937134,-0.04007471352815628
1725629314445174500,10.071174560546876,-0.2570333480834961,-0.25014886260032654,-0.02307625114917755
1725629314455127600,10.08112744140625,-0.27711331844329834,-0.25360432267189026,-0.0063529303297400475
1725629314465081300,10.091081298828126,-0.2734743654727936,-0.246668741106987,0.009502390399575233
1725629314475034400,10.101034423828125,-0.27530422806739807,-0.2514919638633728,0.02217477560043335
1725629314484987400,10.1109873046875,-0.24182723462581635,-0.4266672730445862,0.0036447858437895775
1725629314494941400,10.12094140625,-0.2823762595653534,-0.26824647188186646,0.003987001720815897
1725629314504894500,10.13089453125,-0.276378333568573,-0.22256262600421906,-0.016260603442788124
1725629314514847200,10.14084716796875,-0.28401654958724976,-0.360897034406662,-0.009148363955318928
1725629314524801500,10.150801513671874,-0.30612486600875854,-0.19226571917533875,-0.000263754918705672
1725629314534754300,10.16075439453125,-0.314501017332077,-0.12042641639709473,0.011135106906294823
1725629314544707300,10.170707275390624,-0.3419307470321655,-0.11940120160579681,0.06757394224405289
1725629314554661600,10.18066162109375,-0.37613746523857117,-0.21259212493896484,0.09136263281106949
1725629314564614400,10.190614501953124,-0.431136816740036,-0.12196533381938934,0.07318428158760071
1725629314574567400,10.2005673828125,-0.466741681098938,-0.032028526067733765,0.10802561789751053
1725629314584521200,10.210521240234375,-0.5180208683013916,-0.02453077957034111,0.1598641276359558
1725629314594474200,10.22047412109375,-0.5520451664924622,-0.12756022810935974,0.166669562458992
1725629314604427300,10.23042724609375,-0.5901166796684265,0.043093208223581314,0.22737832367420197
1725629314614381300,10.24038134765625,-0.600688099861145,0.06074810028076172,0.264977365732193
1725629314624334300,10.250334228515625,-0.6275764107704163,0.04548542946577072,0.28577926754951477
1725629314634287400,10.260287353515626,-0.6735569834709167,0.006026970688253641,0.31624582409858704
1725629314644241400,10.270241455078125,-0.7068400979042053,0.05302460864186287,0.33133119344711304
1725629314654194400,10.2801943359375,-0.7534105181694031,0.04080282896757126,0.3118610978126526
1725629314664147500,10.2901474609375,-0.8316515684127808,0.019756240770220757,0.3158913254737854
1725629314674101200,10.300101318359374,-0.8747004866600037,0.015027265064418316,0.374428927898407
1725629314684054300,10.31005419921875,-0.8965033888816833,0.11135544627904892,0.4210161864757538
1725629314694007300,10.32000732421875,-0.9458248615264893,0.1304958611726761,0.4405762851238251
1725629314703961300,10.32996142578125,-0.9706490635871887,0.11017707735300064,0.4953721761703491
1725629314713914400,10.339914306640624,-0.9896877408027649,0.10924044251441956,0.5318678021430969
1725629314723867400,10.349867431640625,-0.9909721612930298,0.12042614072561264,0.5309076905250549
1725629314733821400,10.359821533203124,-0.9965072870254517,0.13037757575511932,0.5085430145263672
1725629314743774500,10.3697744140625,-1.001975178718567,0.17086739838123322,0.514633297920227
1725629314753727500,10.3797275390625,-1.00861394405365,0.24530407786369324,0.5470927357673645
1725629314763681500,10.389681640625,-0.9972814321517944,0.26068079471588135,0.5383483171463013
1725629314773634600,10.399634521484375,-1.0298082828521729,0.2063850462436676,0.5562708377838135
1725629314783587300,10.40958740234375,-0.995237410068512,0.21534036099910736,0.5879460573196411
1725629314793541400,10.419541259765625,-0.8944798707962036,0.2085367888212204,0.61492520570755
1725629314803494400,10.429494384765626,-0.8211235404014587,0.22594472765922546,0.6312897205352783
1725629314813447400,10.439447509765625,-0.7613835334777832,0.25436916947364807,0.5914416313171387
1725629314823401500,10.4494013671875,-0.681014358997345,0.26681891083717346,0.5386422872543335
1725629314833354500,10.4593544921875,-0.6328651905059814,0.2923612892627716,0.5055704116821289
1725629314843307500,10.4693076171875,-0.5688351988792419,0.2698443531990051,0.4244561791419983
1725629314853261600,10.479261474609375,-0.5137943625450134,0.18448151648044586,0.3491843342781067
1725629314863214600,10.489214599609374,-0.4481661915779114,0.16253700852394104,0.3387126624584198
1725629314873167400,10.49916748046875,-0.3999520540237427,0.17187723517417908,0.3208678960800171
1725629314883121400,10.509121337890624,-0.3615313470363617,0.14385004341602325,0.2873435318470001
1725629314893074400,10.519074462890625,-0.30949079990386963,0.08326578140258789,0.24320457875728607
1725629314903027200,10.529027099609374,-0.2520764172077179,0.0221139807254076,0.16063547134399414
1725629314912981500,10.5389814453125,-0.19178031384944916,-0.007291578222066164,0.08112652599811554
1725629314922934300,10.548934326171874,-0.1144004762172699,0.002432866720482707,0.03786630928516388
1725629314932887300,10.55888720703125,-0.05007581412792206,-0.006902844179421663,0.0005016280920244753
1725629314942841300,10.56884130859375,0.003485672641545534,-0.03960582613945007,-0.052279770374298096
1725629314952794400,10.57879443359375,0.06102247163653374,-0.06332766264677048,-0.10937102138996124
1725629314962747400,10.588747314453125,0.13612982630729675,-0.055414702743291855,-0.14158578217029572
1725629314972700400,10.598700439453125,0.19947472214698792,-0.0792396068572998,-0.185648575425148
1725629314982654200,10.608654296875,0.2840161621570587,-0.10170482844114304,-0.21205303072929382
1725629314992607200,10.618607177734376,0.34893152117729187,-0.15308944880962372,-0.26533836126327515
1725629315002560300,10.628560302734375,0.40043729543685913,-0.19716359674930573,-0.3206250071525574
1725629315012514300,10.638514404296876,0.46062391996383667,-0.20953531563282013,-0.35508257150650024
1725629315022467300,10.64846728515625,0.5136970281600952,-0.19830992817878723,-0.37330490350723267
1725629315032420400,10.65842041015625,0.5621974468231201,-0.15823760628700256,-0.3589845597743988
1725629315042374400,10.66837451171875,0.5972995162010193,-0.14128392934799194,-0.3549446761608124
1725629315052327400,10.678327392578124,0.6345486044883728,-0.14388103783130646,-0.34958961606025696
1725629315062280400,10.688280517578125,0.6853753328323364,-0.1264592707157135,-0.3293505609035492
1725629315072234500,10.698234375,0.7009018063545227,-0.15123732388019562,-0.3550463318824768
1725629315082187500,10.7081875,0.7287779450416565,-0.16918127238750458,-0.36407172679901123
1725629315092140500,10.718140625,0.759516179561615,-0.16895543038845062,-0.3671274483203888
1725629315102094300,10.72809423828125,0.7856302261352539,-0.17128939926624298,-0.381329208612442
1725629315112048000,10.738048095703125,0.808259129524231,-0.10246772319078445,-0.377705454826355
1725629315122001200,10.748001220703125,0.8090803027153015,-0.07131074368953705,-0.40892714262008667
1725629315131954200,10.7579541015625,0.8057790398597717,-0.0891488641500473,-0.4547865092754364
1725629315141908200,10.767908203125,0.8183086514472961,-0.045818425714969635,-0.4341707229614258
1725629315151861200,10.777861328125,0.8137704133987427,-0.0300850048661232,-0.4389902353286743
1725629315161814300,10.787814208984376,0.8127407431602478,-0.04096754267811775,-0.448200523853302
1725629315171768000,10.79776806640625,0.8045624494552612,-0.06906922161579132,-0.46756115555763245
1725629315181721000,10.80772119140625,0.81598299741745,-0.06289039552211761,-0.4577668011188507
1725629315191674000,10.817674072265625,0.8293871879577637,-0.0404822900891304,-0.45060449838638306
1725629315201628200,10.827628173828124,0.8270432353019714,0.024076171219348907,-0.40911543369293213
1725629315211581200,10.837581298828125,0.8452669978141785,0.10499125719070435,-0.37058189511299133
1725629315221534200,10.8475341796875,0.8204699158668518,0.12311484664678574,-0.3712485730648041
1725629315231487000,10.857487060546875,0.806571900844574,0.16131949424743652,-0.3545018136501312
1725629315241441300,10.867441162109374,0.7497577667236328,0.1858711987733841,-0.33526116609573364
1725629315251394000,10.87739404296875,0.74294114112854,0.16920220851898193,-0.3325231671333313
1725629315261347000,10.88734716796875,0.6988227963447571,0.17482629418373108,-0.32999441027641296
1725629315271301000,10.897301025390625,0.6288295984268188,0.1673976629972458,-0.3518480658531189
1725629315281254100,10.907254150390624,0.5699740648269653,0.18043407797813416,-0.3525567650794983
1725629315291207200,10.917207275390625,0.5137832760810852,0.24251767992973328,-0.3409382104873657
1725629315301161000,10.927160888671875,0.46884599328041077,0.3127638101577759,-0.3327087461948395
1725629315311114000,10.937114013671875,0.398296982049942,0.3288098871707916,-0.3384486436843872
1725629315321067000,10.94706689453125,0.3337305188179016,0.3464307487010956,-0.3428460359573364
1725629315331020000,10.95702001953125,0.3348623514175415,0.3074455261230469,-0.32245075702667236
1725629315340974000,10.96697412109375,0.31585854291915894,0.28715306520462036,-0.34615644812583923
1725629315350927000,10.976927001953126,0.2794581949710846,0.2721155285835266,-0.3157239556312561
1725629315360880000,10.986880126953125,0.22625868022441864,0.22852297127246857,-0.30159053206443787
1725629315370834200,10.996834228515626,0.17488816380500793,0.3039844334125519,-0.2733732759952545
1725629315380787200,11.006787109375,0.1486428827047348,0.2724250853061676,-0.2693861126899719
1725629315390740200,11.016740234375,0.06401055306196213,0.22257524728775024,-0.2932421863079071
1725629315400693200,11.026693359375,0.0159715935587883,0.4850062131881714,-0.15959371626377106
1725629315410647000,11.03664697265625,0.01879774034023285,0.3416586220264435,-0.1648728996515274
1725629315420600000,11.04660009765625,-0.019467279314994812,0.2867759168148041,-0.1470102071762085
1725629315430553000,11.056552978515626,-0.10920541733503342,0.4001008868217468,-0.0666826069355011
1725629315440507100,11.066507080078125,-0.0859268382191658,0.24766109883785248,-0.04398093372583389
1725629315450460200,11.076460205078124,-0.12483721971511841,0.2559400796890259,0.012515632435679436
1725629315460413200,11.0864130859375,-0.1744084656238556,0.20651164650917053,0.017924286425113678
1725629315470367200,11.0963671875,-0.20936165750026703,0.32694298028945923,0.09603267163038254
1725629315480320300,11.1063203125,-0.1376929134130478,0.15056072175502777,0.13386784493923187
1725629315490273300,11.116273193359374,-0.11664382368326187,0.12997129559516907,0.15237228572368622
1725629315500226300,11.126226318359375,-0.10228472948074341,0.12660790979862213,0.17776581645011902
1725629315510180400,11.136180419921875,-0.08922591805458069,0.08275976777076721,0.1684892326593399
1725629315520133400,11.14613330078125,-0.0780249834060669,0.02426197938621044,0.11850233376026154
1725629315530086100,11.156086181640624,-0.06075412034988403,-0.08495638519525528,0.07893042266368866
1725629315540040200,11.166040283203126,-0.04467455670237541,-0.14180821180343628,0.06559906899929047
1725629315549993000,11.175992919921875,-0.048612575978040695,-0.1645904928445816,0.03138091415166855
1725629315559946000,11.185946044921875,-0.0471687875688076,-0.17957071959972382,0.019130630418658257
1725629315569899000,11.19589892578125,-0.03862882778048515,-0.2151678502559662,0.044092703610658646
1725629315579853000,11.20585302734375,-0.005320449359714985,-0.21481157839298248,0.07943790405988693
1725629315589806000,11.21580615234375,0.019992629066109657,-0.23056098818778992,0.08159346878528595
1725629315599759000,11.225759033203126,0.006907504051923752,-0.27571627497673035,-0.0028066830709576607
1725629315609713200,11.235713134765625,-0.0062479786574840546,-0.3282492458820343,-0.11189695447683334
1725629315619666200,11.245666259765626,-0.04145432263612747,-0.4017917811870575,-0.21542108058929443
1725629315629619200,11.255619140625,-0.06931870430707932,-0.4278561472892761,-0.23857033252716064
1725629315639572200,11.265572265625,-0.09399660676717758,-0.4288449287414551,-0.21608270704746246
1725629315649526000,11.275526123046875,-0.0929957926273346,-0.3787463307380676,-0.13701611757278442
1725629315659479000,11.28547900390625,-0.0995783731341362,-0.3996652364730835,-0.09752225130796432
1725629315669432000,11.29543212890625,-0.0995061993598938,-0.4375210106372833,-0.05443577095866203
1725629315679386000,11.30538623046875,-0.09100145101547241,-0.49693864583969116,-0.05833053961396217
1725629315689339100,11.315339111328125,-0.09722792357206345,-0.5122920274734497,-0.07449512928724289
1725629315699292200,11.325292236328124,-0.09772833436727524,-0.6189808249473572,-0.05136871337890625
1725629315709245200,11.3352451171875,-0.17212268710136414,-0.4673340618610382,-0.0183953158557415
1725629315719199200,11.34519921875,-0.1909364014863968,-0.4853612184524536,-0.018320025876164436
1725629315729152300,11.35515234375,-0.2747306227684021,-0.41086113452911377,0.0467015877366066
1725629315739105300,11.365105224609374,-0.3116154968738556,-0.3276776075363159,0.07830534875392914
1725629315749058300,11.375058349609375,-0.34879642724990845,-0.3222506046295166,0.07127087563276291
1725629315759012000,11.38501220703125,-0.3952721357345581,-0.32833924889564514,0.0970262959599495
1725629315768965000,11.394965087890625,-0.3953070342540741,-0.18825671076774597,0.11815953999757767
1725629315778918100,11.404918212890625,-0.4150296151638031,-0.1584719866514206,0.13161808252334595
1725629315788872200,11.4148720703125,-0.45508623123168945,-0.17151214182376862,0.1313040852546692
1725629315798825200,11.4248251953125,-0.4603208303451538,-0.0824122428894043,0.15174373984336853
1725629315808778000,11.434778076171876,-0.5027660131454468,-0.07748912274837494,0.17026042938232422
1725629315818731000,11.44473095703125,-0.5362972021102905,-0.030284665524959564,0.24489259719848633
1725629315828685000,11.45468505859375,-0.578330397605896,0.01987330988049507,0.2977651357650757
1725629315838638000,11.46463818359375,-0.6240421533584595,0.04865246266126633,0.30431511998176575
1725629315848591000,11.474591064453126,-0.6593508720397949,0.05907633900642395,0.32908597588539124
1725629315858544000,11.484544189453125,-0.686795711517334,0.08549913763999939,0.3768000304698944
1725629315868498200,11.494498291015624,-0.7240205407142639,0.06046541780233383,0.3640996813774109
1725629315878451200,11.504451171875,-0.756421685218811,0.03159317001700401,0.39852219820022583
1725629315888404200,11.514404296875,-0.7487163543701172,0.03360864892601967,0.41819655895233154
1725629315898358000,11.52435791015625,-0.7615538239479065,0.059197526425123215,0.42358994483947754
1725629315908311000,11.53431103515625,-0.7653563022613525,0.05575885623693466,0.4313509166240692
1725629315918264000,11.54426416015625,-0.7655580639839172,0.09401555359363556,0.4580308794975281
1725629315928217000,11.554217041015624,-0.7538585066795349,0.1411716192960739,0.5393020510673523
1725629315938171100,11.564171142578125,-0.7684259414672852,0.14780619740486145,0.47092580795288086
1725629315948124200,11.574124267578124,-0.7695130705833435,0.14011606574058533,0.45473963022232056
1725629315958077200,11.5840771484375,-0.7343306541442871,0.1662781536579132,0.502180278301239
1725629315968031200,11.59403125,-0.7072076797485352,0.19445572793483734,0.5104965567588806
1725629315977984300,11.603984375,-0.7040745615959167,0.1747097373008728,0.4935590326786041
1725629315987937300,11.613937255859375,-0.6849847435951233,0.1519029587507248,0.509215772151947
1725629315997890300,11.623890380859375,-0.6845077872276306,0.13444893062114716,0.49496227502822876
1725629316007844000,11.633843994140625,-0.6797220706939697,0.1281907707452774,0.4684464931488037
1725629316017797000,11.643797119140626,-0.6538264155387878,0.13154929876327515,0.4331378638744354
1725629316027750100,11.653750244140625,-0.64327073097229,0.08969799429178238,0.3863290846347809
1725629316037703000,11.663702880859375,-0.5757948160171509,0.10664425790309906,0.42358171939849854
1725629316047657200,11.6736572265625,-0.5294166803359985,0.04841957241296768,0.3570612668991089
1725629316057610000,11.68360986328125,-0.5008537769317627,0.02615409530699253,0.29096171259880066
1725629316067563000,11.69356298828125,-0.48413339257240295,-0.02993607148528099,0.22395817935466766
1725629316077516000,11.70351611328125,-0.46591198444366455,-0.07254254072904587,0.17878606915473938
1725629316087470000,11.713469970703125,-0.40519535541534424,-0.09257403761148453,0.16912971436977386
1725629316097423000,11.723423095703126,-0.35185858607292175,-0.10277105122804642,0.16160237789154053
1725629316107376000,11.733376220703125,-0.31129544973373413,-0.12024164944887161,0.12676316499710083
1725629316117330200,11.743330078125,-0.2630913555622101,-0.12801726162433624,0.11618998646736145
1725629316127283200,11.753283203125,-0.2243276983499527,-0.1216946542263031,0.0906129851937294
1725629316137236200,11.763236328125,-0.18803095817565918,-0.1509024053812027,0.026839178055524826
1725629316147189000,11.77318896484375,-0.12340936809778214,-0.15788601338863373,0.0008256873697973788
1725629316157143000,11.78314306640625,-0.0436735600233078,-0.16371983289718628,-0.00042792875319719315
1725629316167096000,11.793095947265625,0.03170641511678696,-0.15135984122753143,-0.010577768087387085
1725629316177048800,11.803048828125,0.1235523521900177,-0.1375364512205124,-0.0354071781039238
1725629316187001900,11.813001953125,0.19491149485111237,-0.1283208429813385,-0.07245281338691711
1725629316196956000,11.822955810546874,0.28415268659591675,-0.0744454637169838,-0.07803965359926224
1725629316206909000,11.832908935546875,0.35229870676994324,-0.05475751683115959,-0.11046284437179565
1725629316216862000,11.842862060546874,0.4093117415904999,-0.09528889507055283,-0.1615391969680786
1725629316226816000,11.85281591796875,0.4720715284347534,-0.12578421831130981,-0.19977925717830658
1725629316236769000,11.86276904296875,0.5024079084396362,-0.13278818130493164,-0.25074851512908936
1725629316246722000,11.87272216796875,0.5352774262428284,-0.09883367270231247,-0.25203508138656616
1725629316256675000,11.882675048828125,0.5671299695968628,-0.050078362226486206,-0.23425410687923431
1725629316266628900,11.89262890625,0.5912371873855591,-0.04842187836766243,-0.24835553765296936
1725629316276582000,11.902581787109375,0.6278287768363953,-0.028749514371156693,-0.24604006111621857
1725629316286535000,11.912534912109376,0.6441249251365662,-0.06785217672586441,-0.2979778051376343
1725629316296488000,11.922488037109375,0.6798545122146606,-0.08934979140758514,-0.3326397240161896
1725629316306442000,11.93244189453125,0.7108726501464844,-0.08186790347099304,-0.3746846318244934
1725629316316395000,11.94239501953125,0.7119486331939697,-0.08812946826219559,-0.44007667899131775
1725629316326348000,11.95234814453125,0.7337942719459534,-0.07258566468954086,-0.4685717225074768
1725629316336302000,11.962302001953125,0.7483876943588257,-0.04335338994860649,-0.4805450141429901
1725629316346255000,11.972255126953126,0.7517430186271667,-0.017491433769464493,-0.48505428433418274
1725629316356208000,11.9822080078125,0.7559229135513306,0.0124322809278965,-0.4876917004585266
1725629316366161200,11.9921611328125,0.7794708609580994,0.04850160330533981,-0.47055506706237793
1725629316376115200,12.002115234375,0.7775177955627441,0.06140768155455589,-0.4767765700817108
1725629316386068200,12.012068115234374,0.7692087292671204,0.018448764458298683,-0.5211408734321594
1725629316396021200,12.022021240234375,0.7917231917381287,0.04276648163795471,-0.48882871866226196
1725629316405974000,12.03197412109375,0.8057348728179932,0.0659777894616127,-0.47272777557373047
1725629316415928000,12.041927978515625,0.817790687084198,0.05548534914851189,-0.47575971484184265
1725629316425880800,12.051880859375,0.8446816802024841,0.07868814468383789,-0.43639951944351196
1725629316435833900,12.061833740234375,0.8694126605987549,0.1102226972579956,-0.395050972700119
1725629316445787000,12.071786865234374,0.8676568269729614,0.149322971701622,-0.3350486159324646
1725629316455741000,12.081740966796875,0.8413262963294983,0.1563548445701599,-0.32459041476249695
1725629316465694000,12.09169384765625,0.8266714811325073,0.19558587670326233,-0.28726381063461304
1725629316475647000,12.10164697265625,0.8000400066375732,0.21563002467155457,-0.27566564083099365
1725629316485601000,12.11160107421875,0.7421167492866516,0.17816254496574402,-0.2688356935977936
1725629316495554000,12.121553955078125,0.6903975009918213,0.1663617342710495,-0.19303542375564575
1725629316505507000,12.131507080078125,0.6621570587158203,0.16250626742839813,-0.16983211040496826
1725629316515460000,12.141460205078126,0.5865732431411743,0.09776633977890015,-0.16780740022659302
1725629316525414000,12.151413818359375,0.5457214117050171,0.04109400138258934,-0.1361916959285736
1725629316535367000,12.161366943359376,0.5089043974876404,0.07656265795230865,-0.08430986851453781
1725629316545320000,12.17131982421875,0.4805942177772522,0.049958474934101105,-0.07409664243459702
1725629316555274000,12.18127392578125,0.4342076778411865,0.05446339771151543,-0.0915597602725029
1725629316565227000,12.19122705078125,0.38833287358283997,-0.029013918712735176,-0.12428494542837143
1725629316575180000,12.201179931640626,0.3292301595211029,-0.06051798537373543,-0.17199786007404327
1725629316585133000,12.211133056640625,0.3253118395805359,-0.11370104551315308,-0.18770731985569
1725629316595087000,12.221087158203124,0.2869487702846527,-0.15098486840724945,-0.1710025817155838
1725629316605040000,12.2310400390625,0.2284548580646515,-0.15055103600025177,-0.17762905359268188
1725629316614993200,12.2409931640625,0.21640637516975403,-0.13262562453746796,-0.18934044241905212
1725629316624947000,12.250947021484375,0.211920827627182,-0.11983420699834824,-0.12736229598522186
1725629316634900000,12.26089990234375,0.1994463950395584,-0.12902574241161346,-0.0937366932630539
1725629316644853000,12.27085302734375,0.15241603553295135,-0.0028004427440464497,-0.06972803175449371
1725629316654806000,12.280805908203124,0.2027978152036667,-0.1396728903055191,-0.021427972242236137
1725629316664760000,12.290760009765625,0.18341027200222015,-0.16667334735393524,0.009906248189508915
1725629316674713000,12.300713134765624,0.16665300726890564,-0.13596969842910767,0.07146678864955902
