time,seconds_elapsed,z,y,x
1725629492571211800,0.024211669921875,0.6571449350878595,-0.768473850980401,0.8038914935812354
1725629492581164800,0.034164794921875,0.5231038366496563,-0.7443669992059468,1.8555667846366761
1725629492591117800,0.044117919921875,0.5105120661020278,-1.0642512795120478,2.601672444203496
1725629492601071900,0.05407177734375,0.653169893977046,-1.7588994313031434,2.9646763197898864
1725629492611025000,0.06402490234375,0.6731845080018043,-1.5490297694206236,3.0869694050282237
1725629492620978000,0.07397802734375,0.7772861029893159,-0.7779553805530071,3.1491411990419027
1725629492630932000,0.083931884765625,1.0261918902307747,-0.08252572299540042,3.0681659203588962
1725629492640885000,0.093885009765625,0.9437743037849664,0.26959786213636394,3.0245147024199364
1725629492650837800,0.103837646484375,1.425744750535488,-0.31800095077753066,2.5805595135480166
1725629492660791800,0.113791748046875,2.461819152355194,-1.1822072123289107,1.7456369218870997
1725629492670744800,0.123744873046875,3.366158686852455,-1.3335977972358464,0.8878367279857396
1725629492680697600,0.133697509765625,3.8990006581842898,-1.1910451833009719,0.38773558126091956
1725629492690652000,0.14365185546875,3.567264027521014,-1.3522960679650307,-0.8300921027645468
1725629492700604700,0.153604736328125,2.1941168947070837,-0.8972557137161493,-2.410913725504279
1725629492710557700,0.1635576171875,1.1988450433969497,2.783458167374134,-2.566304485963285
1725629492720511700,0.17351171875,-2.4943863739609715,0.3264993145316839,-4.813605273847282
1725629492730464800,0.18346484375,-7.248526190143823,1.0943138248205184,-6.72670420999825
1725629492740418600,0.19341845703125,-10.415514888304472,3.471753735268116,-7.2647636237174265
1725629492750371600,0.20337158203125,-10.913031863754988,3.5981519177377224,-8.348461946499347
1725629492760324600,0.21332470703125,-11.17629117051959,3.629260757228732,-8.855584954684971
1725629492770278700,0.223278564453125,-8.73665579292178,5.036290870422125,-6.8541182915121315
1725629492780231700,0.233231689453125,-7.702079520705341,4.676771914342045,-3.463029453803599
1725629492790184700,0.243184814453125,-6.495072213640809,5.402592618510127,-2.0716697879508135
1725629492800137700,0.2531376953125,-1.0185036738157272,8.625788357061147,-0.06708703858405352
1725629492810091800,0.263091796875,2.138809433504939,7.4970233965843915,1.1634627643704414
1725629492820044800,0.273044921875,3.4533091470390556,5.898075457784533,2.042460060079396
1725629492829998800,0.282998779296875,5.260607575330138,7.16785164797306,1.646459047037363
1725629492839952000,0.292951904296875,4.506378522801399,7.736027967536449,0.858607710891962
1725629492849905000,0.30290478515625,3.325643136590719,7.154543253588676,0.1696247452557087
1725629492859858700,0.312858642578125,4.698385195735097,6.340998673260212,2.4048645084679126
1725629492869811700,0.322811767578125,3.9742426539123055,6.452674502894282,4.837369888055324
1725629492879764700,0.3327646484375,3.6385008792608975,7.418003051361441,3.5165666904628274
1725629492889717800,0.3427177734375,3.9034664054214954,6.604330460739136,1.1860901912420987
1725629492899671800,0.352671875,4.719361932790279,4.974246794441342,-0.4229764059901237
1725629492909624800,0.362624755859375,5.719796281430125,4.156081568574905,-1.4587269826829432
1725629492919577900,0.372577880859375,5.44779428076148,2.1657599842727184,-1.4378800094872712
1725629492929532000,0.382531982421875,5.723994902163744,-0.15500059209764003,-1.9070014960587023
1725629492939485000,0.39248486328125,6.413469450709224,-0.23346476474255323,-1.685264286249876
1725629492949438700,0.402438720703125,6.467780886611342,0.4489396992862224,0.7031342405855655
1725629492959391700,0.412391845703125,6.01005640784502,0.6980690661504865,2.5848463970869777
1725629492969344800,0.4223447265625,4.964875154983997,1.6714789220035076,2.660640181478858
1725629492979298800,0.432298828125,3.6280695016175506,2.9467846892684695,1.3250970953941343
1725629492989251800,0.442251953125,3.011809242364764,3.8373926355332135,1.091228133764863
1725629492999204900,0.452204833984375,4.433478706285357,3.5932089083775876,1.8937696740418672
1725629493009159000,0.462158935546875,5.774833108997345,-0.49092415305674075,1.0218056379705667
1725629493019112000,0.47211181640625,7.275904026412963,-2.5910484665974973,-3.375412252888083
1725629493029065000,0.48206494140625,8.691210969564318,-2.5056904427856206,-3.5109880135476588
1725629493039018800,0.492018798828125,6.435615816065669,-0.16218363546952605,0.9350579133659601
1725629493048971800,0.5019716796875,2.5989912422955035,2.9351152942627667,3.7720711453169584
1725629493058924800,0.5119248046875,-0.1278793609380722,3.4339641028389334,3.467190372875333
1725629493068878800,0.52187890625,-0.735824065657705,1.233783378048241,0.42046588447391986
1725629493078831600,0.53183154296875,-0.38553281051963567,0.6657732088319956,-2.0422721362918614
1725629493088784600,0.54178466796875,-3.034465895330906,1.438836871820688,-2.237977079221606
1725629493098738700,0.55173876953125,-6.128959850645065,1.0134085426338015,-2.243054236355424
1725629493108691700,0.561691650390625,-7.0751786249727004,0.21195750100724398,-3.0492110445201397
1725629493118644700,0.571644775390625,-8.238150975477694,-4.230661885523796,-7.789350392401218
1725629493128598800,0.581598876953125,-6.4925979324817655,-8.150500749075412,-14.710344417834282
1725629493138551800,0.5915517578125,-3.381304525797069,-9.655669164937734,-12.92749303305745
1725629493148504800,0.6015048828125,-1.2157292504414916,-3.7839410313308237,-2.0995260553866624
1725629493158458600,0.611458740234375,-2.4032106037810443,-4.802444997407496,-0.8401286358714103
1725629493168411600,0.62141162109375,-2.7670605748027564,-3.998379316303134,-3.3083985718011855
1725629493178364700,0.63136474609375,-3.4750045537576075,-1.738698354795575,-2.5697365062385797
1725629493188318700,0.641318603515625,-7.03317897363305,-1.3260428518116474,-3.7507173916429277
1725629493198271700,0.651271728515625,-11.656818432724474,-1.0842477733582259,-7.601088166692852
1725629493208224800,0.661224853515625,-14.498369892627,0.03718172966390848,-7.405812847352028
1725629493218178800,0.6711787109375,-12.956525066274404,3.322918387801945,-0.7225093876630068
1725629493228131800,0.6811318359375,-10.537296516889333,3.4085219108074902,5.897703701862692
1725629493238084900,0.6910849609375,-9.169103791612386,4.6322231630414725,6.384529771950841
1725629493248038700,0.70103857421875,-7.450016146215796,2.465582888802886,2.501808632916212
1725629493257991700,0.71099169921875,-5.3443467657685275,-0.06933306394517422,2.241832585605979
1725629493267944700,0.72094482421875,-4.5213855377972125,1.8128402803272008,-3.634708501240611
1725629493277898800,0.730898681640625,-2.149931716021895,3.724400462603569,-10.499359877204894
1725629493287851300,0.740851318359375,-0.17477262953817843,1.5114654701799153,-7.8292767445981495
1725629493297804300,0.75080419921875,-0.9397142147392034,0.5050777660936117,-5.161433499872684
1725629493307758300,0.76075830078125,-1.0147340921491383,2.9484985074490306,-4.350599347546696
1725629493317711400,0.77071142578125,12.41933659017086,0.4382347653985023,-8.176593221709131
1725629493327664400,0.780664306640625,15.537890635508298,-1.849338411641121,-7.929107822659612
1725629493337618400,0.790618408203125,17.147225528287887,-1.9742787965178488,-2.014223268893361
1725629493347571500,0.800571533203125,1.1061027545526623,0.2793295670777559,2.190685751214623
1725629493357524500,0.8105244140625,-7.673285387897491,0.14773732309639453,-3.245276929716766
1725629493367478300,0.820478271484375,-6.009052199238538,3.5779666233211755,-8.546769180881977
1725629493377431300,0.830431396484375,-0.9801131528839468,0.5970446866512298,-5.3265761312782764
1725629493387384000,0.840384033203125,0.26568828747719525,1.476042274621129,-1.625209045998752
1725629493397338400,0.85033837890625,-0.5675879982814193,2.840582907131314,-0.9187266640290618
1725629493407291100,0.860291015625,-1.5790619195908306,3.0361504874169825,-1.1479568599417804
1725629493417244200,0.870244140625,-0.6812725373893975,2.4422131191313263,-1.0955150173038244
1725629493427198200,0.8801982421875,-2.08275407654494,2.7107588418662547,-0.7276815296038985
1725629493437151200,0.890151123046875,-3.111267979982495,2.739067236983776,-0.8158285996124148
1725629493447104300,0.900104248046875,-3.1678684036046265,2.721498847067356,-0.5651308143876492
1725629493457058300,0.910058349609375,-2.319502685263753,2.788449984312057,0.22092180177271364
1725629493467011300,0.92001123046875,-2.1638024204641577,3.09376447199583,0.36193376213684675
1725629493476964400,0.92996435546875,-3.963969097179174,3.687774905517697,0.5811788628689945
1725629493486918100,0.939918212890625,-4.927134914654493,3.262033126467466,-0.48761020620316264
1725629493496871200,0.94987109375,-5.213807830232382,2.854674560847878,-1.3353633456036447
1725629493506824200,0.95982421875,-4.996043031185865,3.0480308948248624,-0.7495929171606898
1725629493516778200,0.9697783203125,-4.6643058160007,3.4393343977004287,0.19444570011626927
1725629493526731300,0.979731201171875,-5.108616101920604,3.0206594882965088,-1.0114704141780733
1725629493536684300,0.989684326171875,-1.7831179267585278,-0.16667758588790893,-4.264811407884955
1725629493546638300,0.999638427734375,0.5764093103796243,-1.9770272184431552,-4.746961302855611
1725629493556591400,1.00959130859375,-8.084211290609836,0.23486907858252523,-0.12340879139527677
1725629493566544400,1.01954443359375,-10.852675302469729,1.2111287709087133,-2.688122647166252
1725629493576498200,1.029498291015625,1.465687469345331,-4.838838207042217,-8.111826442766189
1725629493586451200,1.039451171875,10.949065300166605,-11.326603312540053,-9.916315658855437
1725629493596404200,1.049404296875,1.8925532839894295,-6.683049777188897,-5.525376117613911
1725629493606358300,1.059358154296875,-1.4752771354675291,-4.995943077942728,-4.783434591989219
1725629493616311300,1.069311279296875,2.9744670614421365,-6.892445391818881,-5.874087263953686
1725629493626264300,1.079264404296875,10.04988358682394,-10.470809490025044,-9.393658396929501
1725629493636218400,1.08921826171875,11.781622039479016,-12.068413028478622,-13.150237958604096
1725629493646171400,1.09917138671875,5.466689535367489,-8.801388085073231,-11.677073285245894
1725629493656124400,1.10912451171875,-0.2538818220883608,-3.8999464146018026,-6.1002761924743645
1725629493666078200,1.119078125,-1.3589450044602154,-2.3061779242664575,-1.1866026708088815
1725629493676031200,1.12903125,1.7330945434391498,-1.4585907890826464,0.24816373670250175
1725629493685984300,1.138984375,4.239304041662812,-2.950411647593975,0.04643368826434016
1725629493695938300,1.148938232421875,4.1085488330274815,-2.2611621399760247,0.055522857518494124
1725629493705891300,1.158891357421875,2.014657568657398,-0.13945698600709439,0.41700054645091295
1725629493715844400,1.16884423828125,-2.515742465722561,3.55485112067163,0.5031337924189865
1725629493725798400,1.17879833984375,-2.218708315128088,4.345851276236773,-0.5256104126431047
1725629493735751400,1.18875146484375,1.415567639914155,2.6974013476431367,-1.8920220997221766
1725629493745704200,1.1987041015625,2.4928724622666834,1.3494494463622568,-0.925306042419374
1725629493755658500,1.208658447265625,2.35498024135828,0.22473463805913924,-0.3098261198893189
1725629493765611300,1.218611328125,3.590013034945726,-1.8634622140616177,0.054041386789083476
1725629493775564300,1.228564208984375,10.255157153087854,-8.295818736070395,0.33869704426042735
1725629493785518000,1.23851806640625,12.078138303679227,-18.14283231064081,-3.3432726090446114
1725629493795471000,1.24847119140625,3.098264706024527,-6.195916248586774,-4.222661534419656
1725629493805424000,1.258424072265625,-6.549260899946093,-2.4695547150433064,1.5190851514033972
1725629493815378200,1.268378173828125,-16.827848612982034,3.3136054927945136,-1.1050855403341353
1725629493825331200,1.278331298828125,-17.7124815764904,6.478780419531464,0.5856733247440308
1725629493835284200,1.2882841796875,-7.5300319322168825,6.448522643911838,-0.4627161861063912
1725629493845238300,1.29823828125,1.2047127663865684,5.387458762264251,-1.9777112551845608
1725629493855191300,1.30819140625,5.941630521872639,4.543226782727241,-2.263230324552208
1725629493865144300,1.318144287109375,8.631725930416584,2.8671359830141068,-2.7373151326194405
1725629493875098000,1.32809814453125,4.542914063516259,3.591574292913079,-3.0797417918622494
1725629493885051100,1.338051025390625,1.8197753402873873,3.545577680891752,-2.4798507758691906
1725629493895004200,1.348004150390625,-0.22467209421694279,2.904883237606287,-2.842558006596565
1725629493904958200,1.357958251953125,-1.480613235798478,1.8111995273828505,-3.029127456912398
1725629493914911200,1.3679111328125,-2.1711495683565736,1.4267863685429096,-3.2146856843590736
1725629493924864300,1.3778642578125,-1.8241227218419311,1.2855273015499113,-2.91821209025681
1725629493934818300,1.387818359375,-0.8152636592060327,0.42883273080289364,-2.572790340851247
1725629493944771300,1.397771240234375,-0.2940729627013206,-0.13846505236029624,-1.3135568797260522
1725629493954724400,1.407724365234375,0.46690205695629117,-0.4725391860604286,-0.7642081563599408
1725629493964678400,1.417678466796875,1.1389864947617054,-0.6239841315031052,-0.7397575326491147
1725629493974631400,1.42763134765625,1.512521701234579,-1.1757646120607852,-1.0676594805203377
1725629493984584400,1.43758447265625,0.5704156229227781,0.0014256488889455795,-0.8997238573953509
1725629493994538200,1.447538330078125,-0.543621139499545,1.0835206281274556,-1.178734275521338
1725629494004491300,1.4574912109375,0.9281807210728525,0.11524959646761417,-1.4084021321989595
1725629494014444300,1.4674443359375,1.6768907179191708,0.029462241327762602,-0.6443341149620712
1725629494024398300,1.4773984375,1.5253814750686288,0.03571428745985031,-0.17901918106675146
1725629494034351400,1.487351318359375,1.277157824872434,0.10726853458583355,0.19465952553004026
1725629494044304400,1.497304443359375,1.5369938791900872,-0.7164817979365586,-0.6609037030994892
1725629494054258400,1.507258544921875,1.6283450059369204,-1.765062045586109,-1.48350018941164
1725629494064211500,1.51721142578125,1.565907546724379,-2.1143582983374594,-1.0042860556319355
1725629494074164500,1.52716455078125,0.6470914508461952,-2.8815953009992836,-0.1246530923679471
1725629494084118300,1.5371181640625,2.504268885549903,-3.485702181121707,-1.4806284333676099
1725629494094071300,1.5470712890625,-1.6907056005209684,0.7216454643100499,0.542123594418168
1725629494104024000,1.557024169921875,-0.5285889900624752,-0.46271103500723837,0.3679841482169926
1725629494113978400,1.566978271484375,1.927965519762784,-2.665379484960437,-0.4366562640354037
1725629494123931100,1.57693115234375,2.8938316822379826,-1.8681909961491823,-2.0449286421500146
1725629494133884200,1.58688427734375,-2.7306249873310326,2.301273785611987,1.3319620127275584
1725629494143838200,1.596838134765625,0.42038003282137215,-1.820273645198345,0.5213707292467356
1725629494153791200,1.606791259765625,-0.18897651145756245,0.5825596497029065,0.6975789445459842
1725629494163744300,1.616744140625,0.18060615799725055,1.2082014852851628,1.1176445776559412
1725629494173698300,1.6266982421875,0.8844342991311103,2.5969489228129383,0.10413637403994798
1725629494183651300,1.6366513671875,1.1443746175408362,2.5332407130122183,0.15124445443451404
1725629494193604400,1.646604248046875,0.6472422574937343,3.1336499076604842,-0.32014965324401856
1725629494203558100,1.65655810546875,0.03953245750851929,2.9468355426728725,0.7681386276766657
1725629494213511200,1.66651123046875,-0.0644230435391888,0.8420546354979276,0.2563333068937063
1725629494223464200,1.676464111328125,0.1700953949747607,0.8752712609231471,0.7593081093586981
1725629494233418200,1.686418212890625,0.919685060732439,0.85644790250957,0.5784016532406211
1725629494243371300,1.696371337890625,-0.08401040859520435,1.1208341674774884,-0.20628391235023735
1725629494253324300,1.70632421875,-0.6315414150148629,0.4456219530403614,-1.0475853913933038
1725629494263278300,1.7162783203125,-0.8311836973935365,0.5566214908480643,-1.0794826047830284
1725629494273231400,1.7262314453125,-0.4495733210146427,0.12453648025095462,-1.1430160425387321
1725629494283184400,1.736184326171875,0.33240590822696686,0.4244190060138702,-0.3173822343572974
1725629494293138200,1.74613818359375,0.5130184594323859,0.9330652782440185,0.23216858745217323
1725629494303091200,1.75609130859375,0.04235858431253582,0.9037228639036416,0.003354278863966465
1725629494313044200,1.766044189453125,-0.1588759722262621,0.5750912135183811,-0.7716711857169866
1725629494322998300,1.775998291015625,0.07023034157846123,-1.334624217674136,-1.1914634087130427
1725629494332951300,1.785951416015625,-0.008141257412172854,-0.7948211751580238,-1.6937589967422186
1725629494342904300,1.795904296875,-0.8835399075746536,-1.1171773985356093,-1.2043252283737063
1725629494352858400,1.8058583984375,-1.1508733319103717,-1.0537906757742166,-1.1703322117485104
1725629494362811400,1.815811279296875,-0.6492839924544096,-0.45274376774430275,-2.0687419178053736
1725629494372764400,1.825764404296875,0.42601825790405273,0.22671675178706643,-2.6111604035168883
1725629494382718200,1.83571826171875,0.3800947111189365,1.4405986207962036,-2.1552602175682782
1725629494392671200,1.845671142578125,0.007695806066459044,1.361562493482232,-2.439470834685862
1725629494402624300,1.855624267578125,0.3033785511851311,-1.9400871885806321,-1.5730305304720997
1725629494412578300,1.865578369140625,0.12124503749012946,-2.093382730326056,-1.0084458056598902
1725629494422531300,1.87553125,-1.2447744354009627,-5.050468448856472,-2.0756874991595744
1725629494432484400,1.885484375,-1.4020505712151528,-4.701822184446454,-1.0968766610458494
1725629494442438400,1.8954384765625,-0.1786076776564121,-0.484045499458909,0.5657432471975684
1725629494452391400,1.905391357421875,-0.9771627786457538,-2.122738588669896,0.32071576269418
1725629494462344400,1.915344482421875,-0.9440285708069801,-0.7576841614186763,-0.1407628079086542
1725629494472298500,1.925298583984375,-1.4432079265117645,-1.29073305349946,0.0637047026693821
1725629494482251500,1.93525146484375,-0.9149696495831012,0.5548924750983715,0.23044015622437
1725629494492204500,1.94520458984375,-0.6604156273216009,1.7144482951581477,0.017906828090548513
1725629494502158300,1.955158447265625,-1.365840609192848,0.3783347157090902,0.20368717385530472
1725629494512111400,1.965111328125,-0.93770638204813,0.24886837784051893,0.23945552958995103
1725629494522064100,1.975064208984375,-1.6055121196210382,0.02685118204653263,0.690421474006772
1725629494532018400,1.985018310546875,-1.8142559923440218,0.706434451174736,-0.7216805356234312
1725629494541971200,1.99497119140625,-1.6844933018773793,0.4428706085056066,-0.2210968660786748
1725629494551924200,2.00492431640625,-2.2655150744885204,-0.5983961012601852,-0.749945091599226
1725629494561878300,2.014878173828125,-2.021955908972025,0.23511340873241424,0.1283648063674569
1725629494571831300,2.024831298828125,-0.8232236782997846,0.11853519400954246,0.4687681430891156
1725629494581784300,2.034784423828125,-0.26772154687047,0.9438204810142516,0.29545711053609847
1725629494591738000,2.044738037109375,-0.24825104965977368,1.3082330543547869,0.06727905402481556
1725629494601691100,2.054691162109375,-0.4092114269446581,1.9047405653893947,-0.6504536207556724
1725629494611644200,2.06464404296875,-0.3889578895974904,2.4857260976433753,-0.7661413163796067
1725629494621598200,2.07459814453125,-0.19683591972105205,2.7791724528789516,-0.273859318973124
1725629494631551200,2.08455126953125,-0.2127840149592608,4.041448058179021,-0.25920798554718494
1725629494641504300,2.094504150390625,-0.5850099654644727,2.558673844954371,-0.3810445591896772
1725629494651458300,2.104458251953125,-0.9167950383793562,1.5807207927137612,-0.6261579684108496
1725629494661411300,2.114411376953125,-0.8625929811358451,1.0378729756742715,-0.657369683754444
1725629494671364400,2.1243642578125,-1.0342950441222638,0.7062900742679834,-0.4708496255382895
1725629494681318400,2.134318359375,-0.8391953005440532,0.7779401829838752,-0.49319648190289733
1725629494691271400,2.144271484375,-0.7757306902408599,0.814020965668559,0.12780658796280622
1725629494701224400,2.154224365234375,-0.4954125505171716,1.4541595286369322,0.08820464541465044
1725629494711178200,2.16417822265625,-0.8236427804946899,2.5717805792868136,0.4162745702639222
1725629494721131300,2.17413134765625,-1.153745087954402,2.3475983144134283,0.3493322008475661
1725629494731084300,2.184084228515625,-0.6455822153270244,3.571381984233856,0.3778767428085208
1725629494741038300,2.194038330078125,0.530098956234008,1.4956126520097255,0.5147320218846202
1725629494750991400,2.203991455078125,1.0505934871681033,-1.817640374085307,0.6440148198798299
1725629494760944400,2.2139443359375,-0.007517536023259163,-0.4748223285615444,1.3519497387453914
1725629494770898400,2.2238984375,-0.08261851584538817,-0.38545068519413467,0.915231223128736
1725629494780851500,2.2338515625,0.5476275986619293,-1.93940095988214,1.3803513651043176
1725629494790804500,2.243804443359375,0.737765555114299,-1.7350497691601514,1.845242374499142
1725629494800758300,2.25375830078125,0.40873409175649283,-0.7740010899692773,1.2809507874146102
1725629494810711300,2.263711181640625,0.43399478974118827,-0.63801850207448,0.9331070715591311
1725629494820664300,2.273664306640625,0.37444399188086386,-0.7630921579420566,0.8189943701669573
1725629494830618400,2.283618408203125,0.7165373275160789,-0.5623065507471561,0.7751587355718016
1725629494840571400,2.2935712890625,0.938448724848032,-0.283861365288496,0.9891194661602377
1725629494850524400,2.3035244140625,0.31394846051633357,-0.45046822402775283,1.4382880057662724
1725629494860478500,2.313478515625,0.3995300639510154,-0.7804828532040119,1.7179285384893417
1725629494870431500,2.323431396484375,0.8256704869300127,-0.6578828939735889,1.8189809750393031
1725629494880384300,2.33338427734375,0.9185995305180549,-0.3569821310788393,1.5334683354124425
1725629494890338300,2.34333837890625,0.628342911234498,-0.27795126446187496,0.7246139587268233
1725629494900291300,2.353291259765625,0.49365971550047394,-0.3980126451253891,0.20470073481202125
1725629494910244400,2.363244384765625,1.0184610037177801,-0.2379951016485691,-0.04501432298570871
1725629494920198100,2.3731982421875,0.9629708794251084,-0.08974164572358131,-0.04023351844996214
1725629494930151200,2.383151123046875,0.6845929139837622,-0.15356500633656978,-0.21562720249593256
1725629494940104200,2.393104248046875,0.6387656671799719,-0.2086591170489788,-0.3967711206316948
1725629494950058200,2.403058349609375,0.8664268602102995,-0.0757166275024414,-0.03920855931639671
1725629494960011300,2.41301123046875,0.9377943525925279,0.001056231054663658,0.1549883171379566
1725629494969964300,2.42296435546875,0.634348289129138,-0.23525720111727713,0.18810294349342582
1725629494979918300,2.43291845703125,0.6106373048044741,-0.22110826425552366,0.5555225896954537
1725629494989871400,2.442871337890625,0.7951568368531763,-0.3448737601339817,0.7782648848935961
1725629494999824400,2.452824462890625,0.8878209458947182,-0.7099491812974215,0.874838714724779
1725629495009778200,2.462778076171875,0.6345856050163508,-0.6806529441863298,0.8523974580749869
1725629495019731200,2.472731201171875,0.32151392733454703,-0.5504582920432091,0.19283406366854905
1725629495029684200,2.482684326171875,0.30327859794199463,-0.49153848556280133,-0.07982727769166231
1725629495039638300,2.49263818359375,0.08026946850121021,-0.2261824987798929,0.4236275633752346
1725629495049591300,2.50259130859375,-0.036017508190125225,-0.21051789665818213,0.6321876039639115
1725629495059544300,2.51254443359375,-0.638348756942153,0.04690671260356903,0.2330021156668663
1725629495069498400,2.522498291015625,-1.1030851602971554,0.41998073130547997,0.15490677633434533
1725629495079451400,2.532451416015625,-1.2386650126099585,1.017077440404892,-0.09623159226477146
1725629495089404400,2.542404296875,-1.2128705000095068,1.13879126445055,-0.31770255235284567
1725629495099358200,2.552358154296875,-0.6036360477402806,1.0678139404296874,-0.673576722189784
1725629495109311200,2.562311279296875,-0.324447642698884,1.090584575164318,-0.5815022496044635
1725629495119264300,2.57226416015625,-0.46664822832569475,1.119089369636774,-1.1173366807505487
1725629495129218300,2.58221826171875,-0.8228256188929081,1.0162573561936616,-1.0952183724448084
1725629495139171300,2.59217138671875,-0.6749684688091278,0.5814467200249434,-0.9960314375057816
1725629495149124400,2.602124267578125,-0.4762957621149718,0.221803260782361,-1.1480889618888497
1725629495159078400,2.612078369140625,-0.5411684856504202,0.21958500021100044,-1.1434881900951266
1725629495169031400,2.622031494140625,0.14129837609007953,-0.23488310710787771,-0.7639654336452484
1725629495178984400,2.631984375,0.23963848494142292,-0.21406769809424875,-0.9479603572979569
1725629495188938500,2.6419384765625,-0.1367101715169847,-0.1918546972423792,-0.9999705305203794
1725629495198891500,2.6518916015625,0.08311872045248746,-0.36968671435117717,-0.9055579703763127
1725629495208844500,2.661844482421875,-0.2693031169734895,-0.5003969148010016,-0.7894017804577946
1725629495218798300,2.67179833984375,-0.520679824373126,-0.7067717203050852,-0.8352160216495395
1725629495228751400,2.68175146484375,-0.6906354090183973,-0.705749976041913,-0.7119450312897563
1725629495238704000,2.6917041015625,-1.297712244862318,-0.21882161462306976,-0.9181251910045742
1725629495248658400,2.701658447265625,-1.6292137515954672,-0.7799626287221908,0.15654899058341978
1725629495258611200,2.711611083984375,-1.4604671043485402,-1.1488035398989915,0.3986845530375838
1725629495268564200,2.721564208984375,-1.6514128700524568,-1.1002034673810004,0.23303397210985421
1725629495278518300,2.731518310546875,-1.578645740005374,-1.0171534282505512,-0.1551630891829729
1725629495288471600,2.741471435546875,-1.4855068530589342,-0.8764350440055131,-0.1706874060511589
1725629495298424600,2.751424560546875,-1.2498491083167493,-0.7109492982506752,-0.13855039255619048
1725629495308378400,2.76137841796875,-1.2424421930611134,-0.6897673940122128,0.391315485574305
1725629495318331400,2.771331298828125,-0.7792956892460584,-0.04165419890284538,0.7038435578987002
1725629495328284400,2.781284423828125,-0.6608265462100505,0.542140545552969,-0.17032251826152203
1725629495338238500,2.791238525390625,-0.34968013750240207,0.6048930620640516,-1.078109416733682
1725629495348191500,2.80119140625,-0.4862326342396438,0.716568891698122,-0.9702065297670662
1725629495358144500,2.81114453125,-0.20916063683032987,0.9692956985324621,-1.1374164689660071
1725629495368098600,2.8210986328125,0.028071225360780952,0.9679314244419336,-0.7760846182450651
1725629495378051600,2.831051513671875,-0.08342354861795902,0.5253332031369209,-0.9054387279108166
1725629495388004600,2.841004638671875,-0.7445207284629345,0.1167553248554468,-0.7332714585654437
1725629495397958400,2.85095849609375,-1.1706610783766955,-0.3067448127478361,-0.6420009958393872
1725629495407911400,2.860911376953125,-1.3724550588965416,-0.6186573835223913,-0.14557108497321605
1725629495417864400,2.870864501953125,-1.1881528959255665,-0.5000047006130218,0.08501403267979621
1725629495427818500,2.880818603515625,-0.7813063714813441,-0.3739274206608534,-0.22640490935891866
1725629495437771500,2.890771484375,-0.9118791362218558,-0.23055998321175575,-0.3672258771955967
1725629495447724500,2.900724609375,-0.3613800007116049,-0.05276420646011829,-0.8537157010667026
1725629495457678600,2.9106787109375,-0.1720259611785412,0.20325813478827476,-1.2587702275276182
1725629495467631600,2.920631591796875,-0.5950601983031257,0.5013870948821306,-1.50688749473989
1725629495477584600,2.930584716796875,-0.8015197229485959,0.48468905805945395,-1.8869323753677307
1725629495487538700,2.94053857421875,-0.140932903778553,0.9154355135291814,-2.258913338135928
1725629495497491700,2.95049169921875,0.06885664207246155,1.1331208175987004,-3.407774307310581
1725629495507444700,2.96044482421875,-0.46916817525736987,0.9934633405834435,-3.0319521589443084
1725629495517398500,2.9703984375,-0.32505901606287807,1.0423100813388824,-2.974565845641494
1725629495527351600,2.9803515625,-0.355242593935132,0.3181073337614536,-2.621066880503297
1725629495537304600,2.9903046875,-0.6300748495936394,-0.2541822663396597,-2.1491537173867226
1725629495547258600,3.000258544921875,-1.0615788454324007,-0.8341998303443193,-1.574119933144003
1725629495557211600,3.010211669921875,-0.3579652968972921,-1.108358132264018,-1.1183338750943541
1725629495567164700,3.02016455078125,-0.05959611657308414,-0.3796621649205684,-2.503490594653785
1725629495577118700,3.03011865234375,0.1503518895089626,-0.768652714678645,-1.954291362760961
1725629495587071700,3.04007177734375,0.36627836721241475,-0.1272515844285488,-2.2386329127818345
1725629495597024800,3.050024658203125,0.13121990353763102,0.2708955007314682,-2.45118216913715
1725629495606978600,3.059978515625,0.2907949456776492,0.647477819815278,-2.115214915166795
1725629495616931600,3.069931640625,0.5014239197611808,0.7256704820424318,-1.6923203422412276
1725629495626884400,3.07988427734375,0.6711532944351434,0.07162380523085594,-1.5449787404641508
1725629495636838700,3.089838623046875,0.8462485800564289,-0.7021791318178177,-0.8879179034631699
1725629495646791400,3.09979150390625,0.8986018676280975,-0.8831108685076237,-0.0830582224369049
1725629495656744400,3.109744384765625,0.6368821915209293,-1.0732967557549475,0.6488339105993509
1725629495666697500,3.119697509765625,0.02750234856479801,-1.000637177735567,1.4566145205736158
1725629495676651500,3.129651611328125,0.11153555351370013,-2.2974457517564297,1.7266642181307077
1725629495686604500,3.1396044921875,0.27644378250837326,-2.7822563903689383,1.8312015741869807
1725629495696557600,3.1495576171875,0.3665174366652965,-2.5628052456706762,1.9511866747438906
1725629495706511600,3.15951171875,0.47524084623456,-2.446139937186241,2.2526170144706965
1725629495716464600,3.169464599609375,0.5936175982793793,-2.102090352916717,2.3543097947508094
1725629495726417700,3.179417724609375,0.7412532510995864,-1.6149761135369538,2.402037322217971
1725629495736371500,3.189371337890625,0.4377659788429737,-0.9748340434372424,2.2032029952213166
1725629495746324500,3.199324462890625,-0.46030225683245807,-0.6533055030554532,1.812512801938504
1725629495756277500,3.209277587890625,-1.4055319835901259,-0.7873837186336516,1.5351488358452916
1725629495766231600,3.2192314453125,-2.506165074560046,-1.1962310615062712,1.1518620506867765
1725629495776184600,3.2291845703125,-2.226843690788746,-0.8661825300604105,-0.3946475526064634
1725629495786138600,3.239138671875,-1.4201508760511874,0.12434534159302711,-0.9859351370356977
1725629495796091600,3.249091552734375,-1.1887333992272615,0.5751520037949085,-0.6989727369919418
1725629495806044700,3.259044677734375,-1.180123318726942,0.9403425757706165,-0.9439704108789563
1725629495815997700,3.268997802734375,-1.1718892319321632,0.994911785826087,-0.770193514379859
1725629495825951500,3.278951416015625,-1.232767186743021,0.5523386989623308,-0.39529140346795316
1725629495835904500,3.288904541015625,-1.1528262195438146,0.48593175159692764,-0.13513839215561746
1725629495845857500,3.298857421875,-0.9622241527110338,0.7013976260513067,0.09473112457394599
1725629495855811600,3.3088115234375,-0.7587170115977525,0.9581582184463738,-0.22097908491790294
1725629495865764600,3.3187646484375,-0.6093763449579477,1.2268752060949801,-0.8453570380441844
1725629495875717600,3.328717529296875,-0.8202151441335678,1.6976169873446225,-1.2412531294070184
1725629495885671700,3.338671630859375,-0.6969236955076455,2.316339252796769,-1.3234326693132519
1725629495895624700,3.348624755859375,-0.510196387748979,2.6882220158874985,-1.716395775964111
1725629495905577700,3.35857763671875,-0.4745282775184139,2.7525404665410518,-1.7909226091600954
1725629495915531500,3.368531494140625,-0.2885924854636192,2.6751193732082843,-1.5813631822705267
1725629495925484500,3.378484619140625,-0.17926811432652173,2.408577391511202,-1.4546413208045064
1725629495935437600,3.3884375,0.06234159762263298,2.072366245782375,-1.5646708445362745
1725629495945391600,3.3983916015625,0.4034136273860931,1.708127275443077,-1.4782069053091107
1725629495955344600,3.4083447265625,0.40884975402541457,1.4647019654393196,-1.680471937406808
1725629495965297400,3.41829736328125,-0.042028292912244795,1.0521353097826243,-1.8983434116981923
1725629495975251700,3.428251708984375,-0.6314513986438512,0.35377135233879087,-1.680904483605176
1725629495985204500,3.43820458984375,-0.9850749400097876,0.10771452478766441,-1.0503956265084444
1725629495995157500,3.448157470703125,-1.374874979519844,0.06043138008713722,-0.49469870315939185
1725629496005111600,3.458111572265625,-1.7568799081742763,-0.10379121386408806,0.19868702748045325
1725629496015064600,3.468064697265625,-1.7464836018443106,-0.4375619807034731,0.4829984746240079
1725629496025017600,3.478017578125,-1.527656142002344,-0.8501783207207918,0.4940551445588469
1725629496034971400,3.487971435546875,-1.1021786399114877,-1.204771510836482,0.27187910494133827
1725629496044924400,3.49792431640625,-0.6039384647529572,-1.2982833227485417,0.02089884951338172
1725629496054877400,3.50787744140625,-0.33807284794747827,-1.177961829844117,-0.14467998135238885
1725629496064831500,3.51783154296875,-0.323968334749341,-0.8788292456656693,-0.11413286739736794
1725629496074784500,3.527784423828125,-0.3592548252511769,-0.5374614478260279,-0.130074825155735
1725629496084737500,3.537737548828125,-0.3917559958834201,-0.08304302486777305,0.37010362458899615
1725629496094691600,3.547691650390625,-0.49555122833549975,-0.3536959490150213,0.5895531618520617
1725629496104644600,3.55764453125,-0.5573287623345852,-0.7601245403081178,0.8089635361485182
1725629496114597600,3.56759765625,-0.8318177575133741,-1.2842109582543373,0.8009566091731191
1725629496124551400,3.577551513671875,-0.8539215989023446,-1.8276497269243002,0.6239739023700356
1725629496134504400,3.58750439453125,-0.7321877549819648,-2.105215791460872,0.4781877133414149
1725629496144457500,3.59745751953125,-0.38653197762481867,-1.9937743551045655,0.30023586924523116
1725629496154411500,3.60741162109375,-0.14025602743029594,-1.793098638024926,0.35394875473231074
1725629496164364500,3.617364501953125,-0.29484350868239995,-1.5756851366341114,0.5723699718609452
1725629496174317600,3.627317626953125,-0.233638660004735,-1.458593127170205,0.8901303918808698
1725629496184271600,3.637271728515625,0.31473698054552074,-1.6887848615914582,1.0980404441282152
1725629496194224600,3.647224609375,0.4938702895112335,-1.464590906280279,1.1595894300684333
1725629496204177700,3.657177734375,0.777161015304923,-1.2249649885594844,1.3622837934941052
1725629496214131700,3.667131591796875,0.9753829094916582,-0.852290782830119,1.373854696561396
1725629496224084700,3.677084716796875,1.2041520637638867,-0.7774515226840972,1.2956859997317194
1725629496234037800,3.687037841796875,1.3256079675257204,-0.45858197237849235,0.8757572908744216
1725629496243991600,3.696991455078125,1.4435576167322695,-0.08550561558902263,0.39112726952582594
1725629496253944600,3.706944580078125,1.4006063637562096,0.5181050054490566,-0.5045782921388745
1725629496263897600,3.716897705078125,1.0614445515282451,0.6774550249278545,-0.6049722647801041
1725629496273851600,3.7268515625,0.16182093963697552,0.3018780834943056,-0.9126113960191607
1725629496283804400,3.736804443359375,-0.8386237842664122,0.3650187225401401,-1.1812617481723426
1725629496293757200,3.746757080078125,-0.6228340846851468,0.2917383822739124,-0.7624468457758427
1725629496303711500,3.75671142578125,0.3224690361022949,-0.058977089625596994,-0.23256080164015291
1725629496313664500,3.76666455078125,-0.05336071104854345,0.31998364902734755,-0.7654372597634792
1725629496323617300,3.7766171875,0.4302645171716809,0.12615794397294522,-0.935194106966257
1725629496333571300,3.7865712890625,0.7752996053472161,0.023846739533543587,-0.6873962809666991
1725629496343524000,3.796524169921875,0.1351210026293993,0.0011994389176368714,-0.7714584197491406
1725629496353477000,3.80647705078125,0.4622042545288801,0.5304191280990839,-1.1064783098667859
1725629496363431200,3.81643115234375,0.5305868858814239,1.0486737711519003,-1.0901160808697343
1725629496373384200,3.82638427734375,0.5690041486896574,1.3222621642291545,-1.4345099485322832
1725629496383337200,3.836337158203125,0.7297574590951204,1.5230442642927169,-1.2942536288410424
1725629496393291300,3.846291259765625,0.8917457181230187,1.578699516019225,-1.2511974541857838
1725629496403244300,3.856244384765625,0.9082000093176961,1.1760264778673648,-1.0256307492166756
1725629496413197300,3.866197265625,1.0076680992856621,0.651429772311449,-0.75971011428833
1725629496423151400,3.8761513671875,0.9665374858655035,0.3405833694636822,-0.05908025773912668
1725629496433104400,3.8861044921875,0.3417793012499809,-0.14230010047852992,0.8226569843277335
1725629496443057400,3.896057373046875,0.45915319639518853,-0.6872931128531694,0.5443044455885887
1725629496453011200,3.90601123046875,0.18981033193320035,-0.6374883407205343,0.4787345335692167
1725629496462964200,3.915964111328125,-0.4342518332421779,-0.5215823261708021,0.7798647213056683
1725629496472917200,3.925917236328125,-0.2242225968837738,-0.9449959545344113,0.8697583427205682
1725629496482871300,3.935871337890625,0.04324409844279289,-0.8940548718482255,0.6984779392123222
1725629496492824300,3.94582421875,-0.34989217281788587,-0.726155050688982,0.4930900989189744
1725629496502777300,3.95577734375,-0.18788082517534493,-0.9248024768114089,0.09620733460634946
1725629496512731400,3.9657314453125,0.0952732686266303,-0.9974509489148855,0.4712877246946096
1725629496522684400,3.975684326171875,-0.5270755167596042,-0.6103279465943574,0.3097437023028731
1725629496532637400,3.985637451171875,-0.49841158620268106,-0.8828823204487561,-0.1661158603519201
1725629496542591200,3.99559130859375,-0.40005174973756075,-0.9154682467550038,-0.20445465109646319
1725629496552544300,4.005544189453125,-0.5519637281700969,-0.4258621905595064,-0.3437938559427857
1725629496562497300,4.015497314453125,-0.4076227695137262,-0.35507366710901256,-0.648587534622848
1725629496572451300,4.025451416015625,-0.22086846415027975,-0.4968342538833618,-0.7227952188670634
1725629496582404400,4.035404296875,-0.28248247815072536,-0.18667466425597667,-1.0091299885317682
1725629496592357400,4.045357421875,-0.24185879133939742,-0.3308393895626068,-1.205340250635147
1725629496602311400,4.0553115234375,-0.22983809867799282,-0.3063303867280483,-1.362067812655866
1725629496612264400,4.065264404296875,-0.2103676745325327,-0.31438451384603977,-1.3831987173594533
1725629496622217500,4.075217529296875,-0.16880466104447842,-0.14598843360245228,-1.5905197176724672
1725629496632171500,4.085171630859375,-0.32147242628037925,-0.33231004663705827,-1.6707244503743945
1725629496642124300,4.095124267578125,-0.2077308962881565,-0.47914603697955604,-1.6973881470248102
1725629496652077300,4.105077392578125,-0.5853372977226973,-0.4194032236784696,-1.5928873235866428
1725629496662031400,4.11503125,-0.6483423276901245,-0.5033920049637556,-1.7183235291562973
1725629496671984400,4.124984375,-0.3054521425887942,-0.6281126096099615,-1.6391776578575372
1725629496681937200,4.134937255859375,-0.4384959005527198,-0.23593290842175482,-1.4034811885401606
1725629496691891500,4.144891357421875,-0.10134783929996193,-0.0842260971724987,-1.752899460235983
1725629496701844200,4.15484423828125,-0.04231777737811208,-0.010176526099443434,-2.2738161621049047
1725629496711797200,4.16479736328125,-0.46749183954298495,0.15594868660271166,-2.2967821732811626
1725629496721751300,4.174751220703125,-0.2842535794764757,0.2488566874027252,-1.9831616295449435
1725629496731704300,4.184704345703125,-0.27873510831594467,0.5270756628900766,-1.6930753983922302
1725629496741657300,4.1946572265625,-0.5705499898921698,0.5024596925497055,-1.4770273401357232
1725629496751611100,4.204611083984375,-0.11599427735507488,0.3259551246523857,-1.635530971918255
1725629496761564200,4.214564208984375,-0.12777648508548736,0.5892810669124126,-1.401621239887178
1725629496771517200,4.22451708984375,0.05089373641312122,0.6257289293438196,-1.124502480726689
1725629496781471200,4.23447119140625,-0.050793710104748604,0.9787778126269578,-0.6762320590041577
1725629496791424300,4.24442431640625,0.07100947272479534,0.68512862829566,-1.1209557480305432
1725629496801377300,4.254377197265625,-0.3596954086255282,0.6076777243465185,-1.0705636775292455
1725629496811331300,4.264331298828125,-0.4176180938273668,0.7640607107132673,-0.5098021642670035
1725629496821284400,4.274284423828125,-0.4259392743837088,1.1893395484268665,0.32005072291418907
1725629496831237400,4.2842373046875,-0.026934184154868125,-0.3713286363393068,-0.5141359556876123
1725629496841191200,4.294191162109375,-1.0486703370857984,0.1604652872443199,-0.31300738027393815
1725629496851144200,4.304144287109375,-0.19196392977051435,-0.2771352719038725,-0.34969694250673056
1725629496861097200,4.31409716796875,0.33856201970390976,-0.15947393811941146,0.19242548286765812
1725629496871051300,4.32405126953125,0.14177578434348106,0.8366337794929742,1.309691874860972
1725629496881004300,4.33400439453125,1.1673580182433128,-0.33711130943894385,1.1386913112074135
1725629496890957300,4.343957275390625,-0.10847440324425697,-0.6976940953582524,-0.30831556919589637
1725629496900911400,4.353911376953125,-0.6151017368674278,-0.31945933289229866,0.17211144750490784
1725629496910864400,4.363864501953125,0.06381283921897411,-0.27092940300107,1.0478124781474472
1725629496920817400,4.3738173828125,0.053945452133938664,0.16651099714934825,0.7856848057612776
1725629496930771500,4.383771484375,0.05755787047743797,-0.11351122836768626,0.8080231865584849
1725629496940724500,4.393724365234375,0.21797698049247263,-0.5378209287881851,0.8727055020883678
1725629496950677500,4.403677490234375,0.30662447430379686,-0.04063888438045978,0.8595810859687626
1725629496960631300,4.41363134765625,0.2609615512162447,-0.19786475131213663,0.9385466322645545
1725629496970584300,4.423584228515625,0.30107487735264,-0.08461071257591248,0.804338798957318
1725629496980537300,4.433537353515625,0.1928372054737061,0.2242962466418743,0.6808532890640199
1725629496990491400,4.443491455078125,0.3839063052963465,0.34363924990296363,0.5640566092848778
1725629497000444400,4.4534443359375,0.4251595221828669,0.6155711079448462,0.49052536299750205
1725629497010397400,4.4633974609375,0.40013095245361324,0.641267274737358,0.22555150739997623
1725629497020351500,4.4733515625,0.48055122760236263,0.424715943133831,0.14918079990297556
1725629497030304500,4.483304443359375,0.24680567315705118,0.2536842536896467,0.28533932888656854
1725629497040257300,4.49325732421875,0.22566695047318935,0.007754851910471916,0.3734717858478427
1725629497050211300,4.50321142578125,0.16568207204453647,0.015377601873874663,0.5771611516602337
1725629497060164000,4.5131640625,-0.11872224101424217,0.025679800179600715,0.7102728602938354
1725629497070117000,4.5231171875,-0.2125016908865422,-0.009640519526600838,0.6274890708841383
1725629497080071200,4.5330712890625,-0.4446363760691136,-0.29767829371690746,0.8270442595012486
1725629497090024200,4.543024169921875,-0.149752096984908,-0.1643435899823904,0.9579869535326957
1725629497099977200,4.552977294921875,-0.21628946579694747,0.17344810293614862,0.7367066937111317
1725629497109931300,4.56293115234375,-0.3318926249425858,0.07888532066643238,0.7872463559895754
1725629497119884300,4.57288427734375,-0.20885661238245665,0.19527590386271476,0.882076118632406
1725629497129837300,4.58283740234375,-0.7531389192044734,0.5041454536795615,0.9196787040568888
1725629497139791400,4.592791259765625,-0.9207569277476518,0.4108610207825899,0.7525964828908444
1725629497149744400,4.602744384765625,-0.6250280875980854,0.06498012943267822,0.8815034333109855
1725629497159697400,4.612697509765625,-0.4359142865616828,0.19397768074572086,0.7307771575316786
1725629497169651200,4.622651123046875,-0.3208767254095524,0.1847077480971813,0.48354631776511664
1725629497179604200,4.632604248046875,-0.29672077379636463,0.20973463732600212,0.1972682467237115
1725629497189557200,4.64255712890625,-0.5773644191473722,0.4827911154836416,0.14549597391039132
1725629497199511300,4.65251123046875,-0.9402472987025976,0.6136655665844678,0.00682750793248415
1725629497209464300,4.66246435546875,-0.6730243490040302,0.4149614418387413,0.02128887174427509
1725629497219417300,4.672417236328125,-0.3387807039558887,0.4582341818541288,0.07147153727859258
1725629497229371400,4.682371337890625,-0.7482061389774084,0.7147527821868658,-0.0548880667462945
1725629497239324400,4.692324462890625,-0.89516546343863,0.4579325685590505,-0.35800182951539755
1725629497249277400,4.70227734375,-1.1055021583110094,0.033760230782628055,-0.5163736516118049
1725629497259231200,4.712231201171875,-0.9026865065932274,-0.4710521623730659,-0.5771197967365383
1725629497269184300,4.722184326171875,-1.0539338836371899,-0.5429308191478253,-0.3098684977263212
1725629497279137300,4.73213720703125,-1.0353723910301924,-0.330111659809947,0.04787263502627611
1725629497289090800,4.7420908203125,-0.8616216518856584,-0.13744798427224159,0.4851736267060041
1725629497299043800,4.7520439453125,-0.5636427677869796,0.028842063602805137,0.46147769381999965
1725629497308996900,4.761996826171875,-0.267439076667279,0.07118775190114975,0.27426117777228354
1725629497318951000,4.771950927734375,-0.3766792035870254,0.21023381901979446,0.3123030313968658
1725629497328904000,4.781904052734375,-0.3297046864442527,0.21584932081401348,0.33673721542954443
1725629497338857000,4.79185693359375,0.13345321554765105,0.41291912235617634,-0.23729455216377973
1725629497348811000,4.80181103515625,-0.6833188023947179,0.43876492675244805,0.13636954138576984
1725629497358764000,4.811763916015625,-0.7727430527321993,0.4169955780148506,0.4482882496401667
1725629497368717000,4.821717041015625,-0.19012436631843446,0.5215484239012003,0.4790168576419353
1725629497378670800,4.8316708984375,-0.1385707046918571,0.5888087732255458,0.619560469841957
1725629497388624000,4.841623779296875,0.34853096746727824,0.4463754017561674,0.6606643413856625
1725629497398577000,4.851576904296875,0.6990770741492509,0.4200824381142854,0.4545458487302065
1725629497408531000,4.861531005859375,0.23372779959291218,0.27789398131668563,0.27300240988284347
1725629497418484000,4.87148388671875,-0.043792233844846484,0.39546471420824525,0.32099224154800177
1725629497428437000,4.88143701171875,0.36323067007958887,0.035086510950326916,0.816961987556517
1725629497438391000,4.89139111328125,0.4752887770295143,0.58579848549366,0.6514926084145903
1725629497448344000,4.901343994140625,0.38299306290894747,0.5365554388970136,0.7249009589746594
1725629497458297000,4.911297119140625,0.5631532307043672,0.5423129795104265,0.8456272332876921
1725629497468251000,4.9212509765625,0.5279042226687073,0.5199930111527442,0.8954176846340298
1725629497478204000,4.931203857421875,0.3148252433508634,0.3153974902808666,0.944808323007822
1725629497488157000,4.941156982421875,0.3248372265383601,0.2550438516050577,1.0328574855998158
1725629497498111000,4.951111083984375,0.6942761036083102,0.29948271279037,1.3706138149440288
1725629497508064000,4.96106396484375,1.320271282672882,0.4533727132976055,1.359800159984827
1725629497518017000,4.97101708984375,1.067188209746778,0.7524743178158998,1.1276745348915458
1725629497527971000,4.98097119140625,0.6507245466515421,0.3843991303145885,0.6413914856389165
1725629497537924000,4.990924072265625,0.6982125662744045,-0.2031780552893877,0.7029165061816572
1725629497547876900,5.000876953125,0.6601648674309253,-0.2645166133493185,0.7983683462455868
1725629497557831200,5.0108310546875,0.7426359376296401,-0.0973667337745428,0.6350111369520426
1725629497567784000,5.020783935546875,0.7452621944800019,0.1437087982326746,0.6473521476089954
1725629497577737000,5.030737060546875,0.736830173960328,0.23846505724787712,0.7003299968197941
1725629497587690800,5.040690673828125,0.6859191941514611,-0.0015033903002738952,0.5336021420493722
1725629497597643800,5.050643798828125,0.504260312230885,-0.4553372913688421,0.6521469806700945
1725629497607596800,5.0605966796875,0.5271434674292802,-0.7704203088730573,0.7635688355430961
1725629497617550800,5.07055078125,0.567776798851788,-0.9488029456019401,0.7938704503044486
1725629497627503900,5.08050390625,0.6151072898253798,-0.7783002484679221,1.2285866861879824
1725629497637457000,5.090456787109375,0.9068877576753497,-0.4155483018159866,1.6092884232893585
1725629497647411000,5.100410888671875,0.7815621728733182,-0.12197685889601707,0.9929416547968983
1725629497657364000,5.110364013671875,0.3361462637990713,-0.2441512861907482,0.5411722850427031
1725629497667317000,5.12031689453125,-0.044317865154147144,-0.15495266130268573,0.44092531965672965
1725629497677270800,5.130270751953125,-0.2200432653725147,-0.22897709793448448,0.35601445509046314
1725629497687223800,5.140223876953125,0.08158668857961893,-0.35826515662670133,0.786918731470406
1725629497697176800,5.1501767578125,-0.027224691534042358,0.18826222570836543,0.8668208279639482
1725629497707131000,5.160130859375,-0.18173486976623535,0.10199322453141212,0.23314649257361889
1725629497717084000,5.170083984375,0.5541039550691843,-0.13649638263583183,0.4310360860660672
1725629497727037000,5.180036865234375,-0.0449339512258768,0.46355683818161486,0.39219372971355915
1725629497736991000,5.189990966796875,-0.16745003156512975,0.4955272629380226,0.07658639607429504
1725629497746944000,5.199944091796875,-0.2998199819207191,0.2538245389431715,0.03209580470174551
1725629497756897000,5.20989697265625,-0.0471900595895946,0.2436380759716034,0.604095774206519
1725629497766851000,5.21985107421875,0.02549216865301132,0.5989543196648359,0.15436083288937807
1725629497776804000,5.22980419921875,-0.06392126802951097,0.3875193081617355,0.13240882106125354
1725629497786757000,5.239757080078125,-0.06264613352715968,0.39083296275436874,0.1326928986996412
1725629497796711000,5.2497109375,-0.4356260442048311,0.3850537948310375,0.3573372281268239
1725629497806664000,5.259663818359375,-0.10775880232080817,0.21062311059832572,0.08010287976264953
1725629497816617000,5.269616943359375,-0.19711247164011,0.22140227876603602,0.45903088518977164
1725629497826571000,5.279571044921875,-0.3468498825125396,0.46468145829737184,0.40901276256740093
1725629497836524000,5.28952392578125,-0.6029162090331316,0.541015925437212,0.40404549554884434
1725629497846477000,5.29947705078125,-0.3397486722052097,0.10790098727047442,0.391011534191668
1725629497856431000,5.30943115234375,-0.2948860326498747,0.19718378331065176,0.29695582466125486
1725629497866384100,5.319384033203125,-0.4200058657467365,0.06853694513142108,-0.1140326218932867
1725629497876337200,5.329337158203125,-0.2132464448392391,-0.08798924909830093,-0.2172571417853236
1725629497886291000,5.339291015625,-0.8302708203323185,0.4696633383631706,-0.004084638965129852
1725629497896244000,5.349243896484375,-0.256460732665658,0.6733014123797416,-0.21830285144597292
1725629497906196700,5.35919677734375,0.28404066737815736,0.635599750494957,-0.7352253691121935
1725629497916151000,5.369151123046875,-0.8490893564403057,0.6452449461966753,-0.5721536987617611
1725629497926103800,5.379103759765625,-0.28935411748588086,0.038810499909520145,-0.6969780560433865
1725629497936056800,5.389056884765625,-0.19859306558668613,-0.08398527415394783,-0.6454913221731782
1725629497946011000,5.399010986328125,-0.28818215109705925,0.1516898601144552,-0.5231318937003612
1725629497955964000,5.4089638671875,-0.24440891421362756,0.3133645231485367,-0.5819486781977117
1725629497965917000,5.4189169921875,-0.27196853679046035,0.12070084761083125,-0.8583991827078163
1725629497975870700,5.42887060546875,0.1835318361856043,-0.341596345898509,-1.0608097607560456
1725629497985823700,5.43882373046875,-0.1045003850467503,-0.21523089665472506,-0.8881567537203431
1725629497995776800,5.44877685546875,-0.001236263796687126,-0.11481295861601828,-1.2752809250846504
1725629498005730800,5.458730712890625,0.19483283627033232,-0.054496729341149325,-1.3606164448037743
1725629498015683800,5.468683837890625,-0.42777766879200935,0.12428455131649971,-1.225351649789512
1725629498025636900,5.478636962890625,-0.6047687050320207,-0.0979898341089487,-1.474068198069185
1725629498035591000,5.4885908203125,-0.3350729354791343,-0.14809037431776523,-0.8673711553230882
1725629498045544000,5.4985439453125,0.022071108163148164,-0.3868406782478094,-1.1174794502221048
1725629498055497000,5.5084970703125,-0.03569324467182159,-0.5768541315376758,-1.4156559027194977
1725629498065451000,5.518450927734375,-0.1021301487840712,-0.1291203009098768,-0.8744073375701904
1725629498075404000,5.528404052734375,0.015185294172167777,0.0014934534281492232,-0.8607195884793997
1725629498085357000,5.538357177734375,-0.1289028587669134,-0.3689548929452896,-1.0030931925855577
1725629498095310800,5.548310791015625,0.07415960731878876,-0.2865630254626274,-0.6930316565051674
1725629498105263900,5.558263916015625,0.14773162400797007,-0.15367197384238243,-0.2672270413517952
1725629498115217000,5.568216796875,0.4898984632708132,0.017665420550107953,-0.08235095095038414
1725629498125171000,5.5781708984375,0.7227958033889532,0.5281856699585914,0.15268530089259147
1725629498135124000,5.5881240234375,0.873263866623491,0.16513912427425384,-0.07713686956390738
1725629498145077000,5.598076904296875,0.36154841608107086,0.21140110923349856,-0.1608952030941844
1725629498155031000,5.608031005859375,0.8043763544887303,0.7052934644460678,-0.03793035607412457
1725629498164984000,5.617984130859375,0.5984422784894704,0.3575567160964012,0.5943056170761585
1725629498174937000,5.62793701171875,-0.07960968941822648,-0.39177462751865383,-0.5987732640095055
1725629498184891000,5.637890869140625,0.3331665173359215,0.3032446956723928,-0.23200609036684036
1725629498194844000,5.647843994140625,0.9004787674158811,-0.07003858186602592,0.10072422750890254
1725629498204797000,5.657796875,0.7101105093389749,0.260198165628314,-0.06637260670438408
1725629498214751000,5.6677509765625,0.4833627778917551,0.10974281574487685,0.06067030340954661
1725629498224704000,5.6777041015625,0.6681755937986076,-0.07536883697807788,0.09731514971777797
1725629498234657000,5.687656982421875,0.5585409146033227,-0.15115151545405386,0.5018725403115153
1725629498244611000,5.697611083984375,0.5182943905413151,-0.14864742367863654,0.7086239240430295
1725629498254564000,5.707564208984375,0.7022597958385944,0.046159109106659886,0.4192787205159664
1725629498264516900,5.717516845703125,-0.03854629601538181,0.16717852114737033,0.6171364575654268
1725629498274471200,5.72747119140625,-0.009549480242282152,-0.2617418879389763,0.7205779812090098
1725629498284424000,5.737423828125,-0.06933423298895358,-0.02463642860651016,0.5237660999506711
1725629498294377200,5.747377197265625,-0.2953016277134418,-0.1552022521495819,0.4870050799168646
1725629498304331300,5.757331298828125,-0.14409107554852962,-0.45078152776062486,0.2651034733265638
1725629498314284300,5.7672841796875,-0.21020795392617583,-0.46541620231270786,0.035806203527003526
1725629498324238300,5.77723828125,-0.23415698479041455,-0.2716752529323101,-0.29150705773606894
1725629498334191400,5.78719140625,-0.3605810323536396,-0.23479718239009378,0.03864288825765252
1725629498344144400,5.797144287109375,-0.22691621988192198,0.06292495046854019,0.11510492729991674
1725629498354098400,5.807098388671875,-0.008189882326871156,0.22075521303415296,0.017974194238334892
1725629498364051500,5.817051513671875,-0.15089154934361576,0.04652560433149337,-0.020724515859782695
1725629498374004500,5.82700439453125,-0.18613295859470963,-0.11747370225787163,0.15634426179155705
1725629498383958300,5.836958251953125,-0.2753196007840335,0.3116670715808868,0.06609276684969663
1725629498393911300,5.846911376953125,-0.5266242658607662,0.603171060577035,-0.09611293432116508
1725629498403864300,5.8568642578125,-0.7801053981937468,0.4833838206797838,-0.21872458398938177
1725629498413818400,5.866818359375,-0.5551468882508576,0.4408943399965763,-0.3640887482136488
1725629498423771400,5.876771484375,-0.9270258519493043,0.5532049604028463,-0.5522404992848634
1725629498433724200,5.88672412109375,-1.1715618996739388,0.6098766956955194,-0.6591457535162568
1725629498443678500,5.896678466796875,-0.9235654823623597,0.3474994324624538,-0.7095704111129045
1725629498453631200,5.90663134765625,-0.7539724474191665,0.2784592139840126,-0.7382742352887988
1725629498463584300,5.916584228515625,-0.8992465952724218,0.33002924222350116,-0.6342766851976513
1725629498473538000,5.9265380859375,-0.6591920768760144,0.3225982154399156,-0.3503732343330979
1725629498483491000,5.936490966796875,-0.5888379993200302,0.4618804294019937,-0.3286865954428911
1725629498493444000,5.946444091796875,-0.6333072556436061,0.2853770305484533,-0.4902347094878554
1725629498503398100,5.956398193359375,-0.9030331280738115,-0.11450550010204315,-0.5221805843248963
1725629498513351200,5.96635107421875,-0.6042535951167345,-0.0946650736004114,-0.23054069398939608
1725629498523305200,5.97630517578125,-0.27002982381284235,-0.15289572877287863,-0.06974485961645842
1725629498533258200,5.98625830078125,-0.7745559473730623,0.03207154704332352,0.21134762548059224
1725629498543211300,5.996211181640625,-0.5582810946233571,0.0375315660148859,0.1763920474335551
1725629498553165300,6.006165283203125,-0.29307036153003574,0.11369126110970973,0.3713604927822947
1725629498563118300,6.016118408203125,-0.37436873468756676,0.2798480379939079,0.6563315728783607
1725629498573071400,6.0260712890625,-0.054829322296380996,0.29549685802459713,0.5684530906781554
1725629498583025200,6.036025146484375,0.21482640750706194,0.055933484145998955,0.14097498935461045
1725629498592978200,6.045978271484375,0.12264146028459072,-0.13793021483123302,0.30306846232265233
1725629498602931200,6.05593115234375,0.2656400644212961,-0.007387772163748741,0.1559475175589323
1725629498612885200,6.06588525390625,0.2299474042713642,0.08097673998773097,-0.015911562620103358
1725629498622838300,6.07583837890625,-0.04265665394365787,-0.07689969980716704,0.18299626800417898
1725629498632791300,6.085791259765625,0.08758855934292077,-0.09017536096572876,0.22984803555011749
1725629498642745300,6.095745361328125,-0.14039514364004135,0.017078560572862625,0.15967442912757396
1725629498652698400,6.105698486328125,0.20814371487274766,-0.03614683365821838,-0.07499415844678878
1725629498662651400,6.1156513671875,0.4751221882909536,0.11813421199321746,-0.08212737132757901
1725629498672605200,6.125605224609375,0.4361874774798751,0.2407265724390745,-0.19080489592850208
1725629498682558200,6.13555810546875,0.35578035407364367,0.12753800015449523,-0.1596747213885188
1725629498692511200,6.14551123046875,0.5136436421260238,0.12972002036869526,-0.26462445763796566
1725629498702465300,6.15546533203125,0.5386166092105209,0.04346212510764599,0.0880079537987709
1725629498712418300,6.165418212890625,0.4687272265568375,-0.024904139631986618,0.4700163895845413
1725629498722371300,6.175371337890625,0.5948807866156101,-0.17769231637716293,0.3253755711987614
1725629498732325400,6.185325439453125,0.8174880572572351,-0.3138397394448519,0.48203065250515936
1725629498742278400,6.1952783203125,1.1263152292370795,-0.19676117398440837,0.7558581150352954
1725629498752231400,6.2052314453125,0.6621846828207373,-0.354254167419672,0.7396142517209052
1725629498762185200,6.215185302734375,0.9255319601297378,-1.212619301727414,0.43046763852834696
1725629498772138200,6.22513818359375,0.8060986482366919,-0.6671586718410253,0.5260562567144632
1725629498782091300,6.23509130859375,0.8770221962437034,-0.47681554820537564,0.512544740973413
1725629498792045300,6.24504541015625,0.9307768750458956,-0.6495131250351667,0.4929913147196173
1725629498801998300,6.254998291015625,0.5548685097008943,-0.5766296751320362,0.23835867426395416
1725629498811951000,6.264951171875,-0.2130512145280838,-0.5784744262158871,0.22993454478979108
1725629498821905400,6.274905517578125,0.1853179889500141,-0.808092160141468,0.4520049320757389
1725629498831858200,6.284858154296875,0.10200286914259195,-0.9268722688227892,1.0808441023945807
1725629498841812500,6.2948125,-0.04454612095206976,-1.057792312631011,1.2447285504326224
1725629498851765500,6.304765625,0.2247141797930002,-1.2277543270170688,1.1387529782667756
1725629498861718300,6.31471826171875,0.039980128210783006,-1.0491320363134145,1.0889981827557087
1725629498871672300,6.32467236328125,-0.18119769414961337,-0.8615805892229079,1.0098097874894738
1725629498881625000,6.334625,0.26512042446136475,-0.8257190022468567,0.9581628946214914
1725629498891578000,6.344578125,0.6273650061130523,-0.5822802482396364,0.8716396264225243
1725629498901532200,6.3545322265625,0.18154606919586658,-0.43853287156224247,0.6614189591452478
1725629498911485200,6.364485107421875,0.44615562152564525,-0.47593408919572827,0.43888095434755087
1725629498921438200,6.374438232421875,0.10252104779779911,-0.1695803215920925,0.3798874981090426
1725629498931392300,6.384392333984375,-0.3442668802820146,0.0937415290147066,0.11262158605158329
1725629498941345300,6.39434521484375,-0.005969575928896665,0.0957984615445137,-0.1690294097110629
1725629498951298300,6.40429833984375,-0.0004294774584472179,0.30265315952003,0.0021539631634950635
1725629498961252000,6.414252197265625,-0.22789456339478492,0.6846469822585582,-0.21825170578062533
1725629498971205000,6.424205078125,-0.43014381340146063,0.49040860475003717,-0.3850383050009608
1725629498981158100,6.434158203125,0.19611410825252532,0.10448153421580791,-0.43915977128893136
1725629498991112200,6.4441123046875,-0.03057634004950523,0.5694383023232221,-0.5240975238621235
1725629499001065200,6.454065185546875,-0.22175474546551704,0.3439899630367756,-0.8787064960688352
1725629499011018200,6.464018310546875,-0.27719898478984834,-0.15319091232717036,-0.8487576402679086
1725629499020972300,6.47397216796875,0.009861030409485102,-0.11169687242209911,-0.4253586249515414
1725629499030925300,6.48392529296875,-0.4209964842192828,0.3804775729566812,-0.4451853151887655
1725629499040878300,6.49387841796875,-0.2958247748047113,-0.05137772053778171,-0.7845397273793816
1725629499050832400,6.503832275390625,-0.5528561469651758,-0.3165320472687483,-0.271022634242475
1725629499060785400,6.513785400390625,-0.3872060044288635,0.5036439338982105,0.18878771088719368
1725629499070738400,6.523738525390625,-0.5984602525375783,0.8455319562196731,0.09632336220145225
1725629499080692200,6.533692138671875,0.15242168152034283,0.4073047896057367,-0.5524360218569636
1725629499090645200,6.543645263671875,-0.8655974236488342,0.23008768952488898,-0.32888884001672264
1725629499100598300,6.553598388671875,-0.3564199671514332,-0.12601765871942042,-0.34892537361234427
1725629499110552300,6.56355224609375,-0.8882973312348127,0.17349194207787513,0.015967092199623584
1725629499120505300,6.57350537109375,-1.1677087313771246,0.3566419393390417,0.2691471957594156
1725629499130459400,6.58345947265625,-0.7423398772925138,0.217674198153615,0.2751581266120076
1725629499140412400,6.593412353515625,-0.4012209396474063,0.4028080627083778,0.4930085581153631
1725629499150365400,6.603365478515625,-0.36131460732519627,0.603465659609437,0.30792905409634114
1725629499160319200,6.6133193359375,-0.8317306637518107,0.6280547419428825,0.32009660788252947
1725629499170272300,6.623272216796875,-0.18218582840412853,0.45188802769780156,0.3419118415884673
1725629499180225300,6.633225341796875,0.11672712167426944,0.4776052372783422,0.40867300921902056
1725629499190179300,6.643179443359375,0.07417977332398296,0.6164443836480379,-0.015039455960690975
1725629499200132400,6.65313232421875,-0.3253612504124641,0.6034966392695903,-0.05839008351787924
1725629499210085400,6.66308544921875,-0.25054054883643984,0.5672913534224033,0.0013888240098953247
1725629499220039400,6.673039306640625,-0.17818448380827903,0.29275486584007737,-0.19185557402521372
1725629499229992400,6.682992431640625,0.08970891249775886,0.7943968122661114,0.14047931479215622
1725629499239945200,6.6929453125,-0.11813830364644527,-0.09955752181708812,-0.4113322915561497
1725629499249899300,6.702899169921875,0.29448636580780146,-0.19135843815803527,-0.4149724016241729
1725629499259852300,6.712852294921875,-0.09181304517015815,-0.0003863689690828323,-0.011161737744510174
1725629499269805300,6.722805419921875,0.37252033034190535,-0.31388942380547524,0.14949658785387873
1725629499279759000,6.732759033203125,-0.05659107127189636,-0.579421936199069,0.1084564291961491
1725629499289712400,6.74271240234375,0.005083586874604225,-0.48800505073964595,0.2191162136554718
1725629499299665400,6.75266552734375,0.6499016859613359,0.08865794214010238,0.7046295937098562
1725629499309619500,6.762619384765625,0.44563773513138294,-0.5926467439532279,0.002514320908486843
1725629499319572500,6.772572509765625,0.6613742432206868,-0.5103899010270834,-0.4764019989684224
1725629499329525500,6.782525390625,0.7439343068771064,0.05246493125259876,-0.10975742879211901
1725629499339479600,6.7924794921875,0.3938414969205856,-0.05789455508589744,-0.1561960854925215
1725629499349432600,6.8024326171875,0.5096797069311142,-0.16353519620895385,-0.4135913225293159
1725629499359385600,6.812385498046875,-0.3015336539708078,-0.1275134502351284,-0.23510420251265166
1725629499369339400,6.82233935546875,0.09849559167400002,-0.40990532749295233,-0.15837956701144576
1725629499379292400,6.83229248046875,0.42263636038079855,-0.17961071721911429,-0.2549097038313746
1725629499389245400,6.842245361328125,0.45446050853431225,0.0720177729845047,-0.3061028615824878
1725629499399199500,6.852199462890625,0.8511078566558659,0.01301145726442337,-0.5276499556466937
1725629499409152500,6.862152587890625,0.5658762259274721,0.31442309229075904,-0.4394612384535372
1725629499419105500,6.87210546875,0.6653330638490617,0.15172668499350547,0.12642448595464229
1725629499429059600,6.8820595703125,0.18683482325375078,-0.4105938942790031,-0.3900320216350257
1725629499439012600,6.8920126953125,-0.1822773060798645,0.09772153856158255,-0.2626568108268082
1725629499448966400,6.90196630859375,-0.04963774500265717,-0.10979951436817645,-0.024110212775319814
1725629499458919400,6.91191943359375,0.02315744209513068,-0.13840484660565852,-0.23655030966773627
1725629499468872400,6.92187255859375,0.13061229303330182,-0.28936814601123334,-0.45502880994156003
1725629499478826500,6.931826416015625,-0.04635083228647709,-0.23517595257461069,-0.2622770177289843
1725629499488779500,6.941779541015625,-0.03516249879598617,-0.08732114057838916,-0.2227940253853798
1725629499498732500,6.951732666015625,-0.009799363350123167,0.06290858385562896,-0.19304595285356044
1725629499508686600,6.9616865234375,-0.5489776980966329,0.265735341489315,-0.10318404175117611
1725629499518639600,6.9716396484375,-0.4884187461070716,0.19792086541354656,-0.1250176878966391
1725629499528592600,6.981592529296875,-0.2479763974368572,0.015797873112559317,0.19695216651186345
1725629499538546700,6.991546630859375,-0.4191659077912569,0.31700375643372536,0.14758008670806885
1725629499548499700,7.001499755859375,-0.4174737169206142,0.1567535732448101,0.23542130563780664
1725629499558452500,7.011452392578125,0.003465630283951759,-0.018926818788051605,0.03169453042447567
1725629499568406500,7.021406494140625,-0.1724805730782449,0.12961539095044136,0.26362814007699487
1725629499578359600,7.031359619140625,-0.2856720679722726,0.26633038477301596,0.16906623459011316
1725629499588312600,7.0413125,-0.10453180309832096,0.08560147717893123,0.2565817286968231
1725629499598266600,7.0512666015625,-0.08067498056218028,0.1741647267729044,0.06693681645840406
1725629499608219600,7.0612197265625,-0.615079963427037,0.05918693298399448,-0.15485563066899777
1725629499618172700,7.071172607421875,-0.25703049537762995,0.0387993939936161,-0.46186786218136544
1725629499628126700,7.081126708984375,-0.7467794671751559,0.08791969099342822,-0.7826502603709697
1725629499638079700,7.091079833984375,-0.881477275956422,-0.20047464154958725,-0.6612202217027544
1725629499648032500,7.101032470703125,-0.5081722249776125,-0.08761457056701183,-0.47481736012548204
1725629499657986600,7.110986572265625,-0.38069545349106193,0.46271395761668677,-0.4682867893129587
1725629499667939300,7.120939208984375,-0.7319722125351429,0.3315232801735401,-0.3036149902895093
1725629499677892400,7.130892333984375,-0.06812529559060931,0.14362754969000815,-0.43304216519147154
1725629499687846400,7.140846435546875,-0.11070683847144246,0.23878479072153566,-0.5655354496657848
1725629499697799400,7.15079931640625,-0.48944589719772336,0.2296247481882572,-0.35429888334423304
1725629499707752400,7.16075244140625,-0.010027473017573356,0.18241583776772022,-0.5034469500213861
1725629499717706500,7.17070654296875,-0.13532207815945146,0.5340513471215963,-0.3088078827574849
1725629499727659500,7.180659423828125,-0.11185966176837682,0.6617857466310262,-0.0915872735902667
1725629499737613300,7.19061328125,0.5655079771369695,0.628628157916665,-0.22286299896836279
1725629499747566300,7.20056640625,0.3356844915062189,0.6888461875140667,-0.34072774637043474
1725629499757519400,7.210519287109375,0.07743409894481301,0.538397267371416,-0.12511515692174435
1725629499767473400,7.220473388671875,0.5854800671942532,0.31783962273597716,-0.15797317816764114
1725629499777426400,7.230426513671875,0.6468531120456755,0.5743506242841482,0.0629223201200366
1725629499787379500,7.24037939453125,0.3364689198821783,0.73201488263309,0.0315732421323657
1725629499797333500,7.25033349609375,0.48057402395606036,0.5745575450330972,-0.03627192134261131
1725629499807286500,7.26028662109375,0.8279390163838863,0.4807721768766641,0.11175210974067448
1725629499817239600,7.270239501953125,0.5533733027070761,0.7092571073800324,0.048427054038643835
1725629499827193600,7.280193603515625,0.3598129705905914,0.5090379018962383,-0.04617927511185407
1725629499837146600,7.290146728515625,0.8100757351741195,0.1623486167728901,0.17601707664132119
1725629499847099600,7.300099609375,0.7578545495495199,0.3591980535626411,0.2794491018041968
1725629499857053400,7.310053466796875,0.5842077091708779,0.21883096697330473,0.551767621076107
1725629499867006500,7.32000634765625,0.8283625024929642,0.19742051467597482,0.9410831650048493
1725629499876959500,7.32995947265625,0.8905822273015975,0.1551899771898985,1.136943006235361
1725629499886913500,7.33991357421875,0.8522957512661814,0.14454758714437485,1.1810127418473362
1725629499896866600,7.349866455078125,1.220784195743501,0.04719780450463295,0.8389359189555049
1725629499906819600,7.359819580078125,1.0514002735063432,0.19087211594581602,1.109950662152469
1725629499916773600,7.369773681640625,1.0185346534758806,0.09507131631374359,1.1806351407065987
1725629499926726700,7.3797265625,0.6539116522550582,-0.7708557776808739,1.1332666558101772
1725629499936679700,7.3896796875,0.4879401688098907,-1.0836521455526351,1.3337018421322107
1725629499946633500,7.399633544921875,0.856362270052731,-0.9067518563359975,1.0061883821219206
1725629499956586500,7.40958642578125,1.1565040312737225,-0.6633744771271943,0.8731506155073642
1725629499966539500,7.41953955078125,0.7564192560493945,-0.3601490706771612,0.6673655925899744
1725629499976493600,7.42949365234375,0.4266027797937393,-0.6610720454037189,0.15023586191385985
1725629499986446600,7.439446533203125,0.3845879308849573,-0.9237871622890234,0.6118862819522619
1725629499996399600,7.449399658203125,0.4626531673401594,-0.6194120012819767,1.0231167205691336
1725629500006353700,7.459353759765625,0.24184739316254852,-0.4438742325901985,0.6095432259574532
1725629500016306700,7.469306640625,0.26218670909702774,-0.6476695429950952,0.21940146033763885
1725629500026259500,7.479259521484375,0.24639029728919265,-0.6453408077865839,0.3244020499914884
1725629500036213800,7.4892138671875,0.36441081977486606,-0.3886994578570127,0.12833324218541384
1725629500046166500,7.49916650390625,0.439755399094522,-0.3590238660395145,-0.015169219820201396
1725629500056120600,7.50912060546875,0.44552199979722495,-0.4116881192564964,0.23327713321596383
1725629500066073300,7.5190732421875,0.5636041893422603,-0.5545312405705451,0.3383241923600435
1725629500076026400,7.5290263671875,0.3256567262277007,-0.3281897518366575,0.15856529884189366
1725629500085980400,7.53898046875,-0.029249475359916684,-0.08247370054721832,-0.09375175814777612
1725629500095933400,7.548933349609375,0.07676993594765663,-0.155851071447134,-0.47292175563722844
1725629500105886500,7.558886474609375,0.025642975300550458,-0.016020575952529908,-0.432310343785584
1725629500115840500,7.568840576171875,-0.13414455881267784,0.31283845344781874,-0.575798192743957
1725629500125793500,7.57879345703125,-0.23543869516402482,0.23321254354715346,-0.7340043028846382
1725629500135746600,7.58874658203125,-0.12447247510403393,0.17556348765492438,-0.5912260635003447
1725629500145700400,7.598700439453125,-0.47593175110816954,0.3012941461265087,-0.7326330145314336
1725629500155653400,7.6086533203125,-0.12497019549310207,0.03005260843634605,-0.7170797638297081
1725629500165606400,7.6186064453125,-0.015143208596110343,0.23313772474527358,-0.5923617895320058
1725629500175560400,7.628560546875,-0.5791068789005279,0.5148462959140538,-0.6714902713045477
1725629500185513500,7.638513427734375,-0.24472893994823097,0.3294838833004236,-0.9402508058339357
1725629500195466500,7.648466552734375,-0.1168079318255186,-0.1332429337978363,-0.9346686217874288
1725629500205420500,7.658420654296875,-0.669322571876645,-0.27725860602259633,-0.7966340697988867
1725629500215373600,7.66837353515625,-1.3937633659936486,0.5387053104072809,0.3536567860484123
1725629500225326600,7.67832666015625,-0.3695430680967867,1.973715317416191,0.2981456189677119
1725629500235280600,7.68828076171875,0.5538245536059141,1.5255939487755297,-0.7760238279685377
1725629500245233400,7.6982333984375,0.29059374228343365,0.28743980829715726,-1.1616565917313098
1725629500255186400,7.7081865234375,-0.47191038663759827,-0.23256080164015291,-0.7188076105356216
1725629500265140500,7.718140380859375,0.9261024534940719,-0.6701204442560672,-1.070047106309235
1725629500275093500,7.728093505859375,-0.7382112530551851,-0.2551747845083475,-0.5635203104510903
1725629500285046500,7.738046630859375,-0.9320458720684051,-0.2914525510698557,-0.008883271418511867
1725629500295000800,7.748000732421875,-0.808562115740776,-0.23735914183259008,0.4955877609536051
1725629500304953600,7.75795361328125,-0.4510835794471204,-0.49113867259025573,0.5950011981248855
1725629500314906600,7.76790673828125,-0.02795841263607144,-0.5328793807327747,0.46514469189494845
1725629500324861000,7.77786083984375,-0.04815934301316738,-0.37217970021069047,0.16237404347509143
1725629500334813700,7.787813720703125,0.24662892835065722,-0.17064473595321178,-0.6036150049522518
1725629500344767700,7.797767822265625,-0.3203828774780035,0.15772271053791045,-0.838424462302029
1725629500354720500,7.807720458984375,-0.3230798614770174,0.15746493638455866,-0.7977756410494447
1725629500364673500,7.817673583984375,0.21200185160562396,0.3787053025871515,-0.5574538500189781
1725629500374627600,7.827627685546875,-0.3552447858922183,0.46245033824443815,-0.20817191805392501
1725629500384580600,7.83758056640625,-0.22453180896341798,0.1276180796533823,-0.4529588717997074
1725629500394533600,7.84753369140625,-0.3677500472001731,0.10856500413715839,-0.6667068364202976
1725629500404487700,7.85748779296875,-0.03842836872413754,0.07051788981556892,-0.7358350254431366
1725629500414440700,7.867440673828125,-0.5993897884726525,0.1889174747467041,-0.5168503292128444
1725629500424393700,7.877393798828125,0.006570756692439317,0.0585194089859724,-0.8310621168404817
1725629500434347500,7.887347412109375,0.9008144291110336,0.6243558874249457,-0.13010258994549512
1725629500444300500,7.897300537109375,0.14630816707611083,1.0421306331187485,0.5640045868366956
1725629500454253600,7.907253662109375,0.09557458966076374,-0.1756634408980608,-0.15553016892969607
1725629500464207600,7.91720751953125,0.21795944483578203,-0.0557224717438221,-0.24142127670496702
1725629500474160600,7.92716064453125,0.18343699750900266,-0.07755728693306446,-0.20425591365396975
1725629500484113700,7.93711376953125,0.005878975035995245,0.1701291876465082,0.00729892483651638
1725629500494067700,7.947067626953125,-0.01465294086113572,0.14104747006893156,-0.04014613242745399
1725629500504020700,7.957020751953125,0.11883490760847926,0.3009983780503273,-0.0719151893928647
1725629500513973800,7.966973876953125,-0.4499934461228549,0.06221767898201942,-0.12926438555568456
1725629500523927800,7.976927734375,0.4744599249899387,-0.18556465718746185,-0.02162409504801035
1725629500533880800,7.986880859375,0.6127179104708135,-0.1491068578839302,0.35361879212558267
1725629500543833900,7.996833740234375,0.6401048068292439,-0.05254384170770645,0.6289245105147362
1725629500553787600,8.00678759765625,0.5160289298273623,-0.38298166473209855,0.8267872160002588
1725629500563740700,8.01674072265625,0.5782511388540268,-0.5994225216984749,1.2207847802653908
1725629500573693700,8.026693603515625,0.5784545524716377,-0.4634843574672937,1.4901251605093477
1725629500583647700,8.036647705078124,0.41556101516708727,-0.17302081743478773,1.5068684977784752
1725629500593600800,8.046600830078125,-0.038851854833215474,-0.18237609027922153,1.6250009562060237
1725629500603553800,8.0565537109375,-0.4258195204615593,-0.531108863928914,1.7109946475729345
1725629500613507800,8.0665078125,-0.10858970018699765,-0.5578361273348331,1.5709864574238657
1725629500623460900,8.0764609375,0.13418649825826287,-0.018446926316618917,1.1080150179147719
1725629500633414000,8.086413818359375,0.3509691543996334,0.3355652490407228,0.31104017185419797
1725629500643367700,8.09636767578125,0.23008009074032304,0.7681324901968241,-0.3255389450669288
1725629500653320700,8.10632080078125,-0.39990006630718705,1.1424416036516427,-0.8737778074949979
1725629500663274800,8.116274658203125,-0.5055921453565358,0.834032657083869,-0.9948229384988546
1725629500673227800,8.126227783203126,-0.40929800924956794,0.5852174707353115,-0.31012422605305906
1725629500683180800,8.136180908203125,-0.5108955124616623,1.1018430512815713,0.14079612565636634
1725629500693134800,8.146134765625,-0.759632811268419,0.7044476612716912,-0.06615589521378279
1725629500703087900,8.156087890625,-0.6114547586672008,0.05370762479007244,0.1624047308743
1725629500713040600,8.16604052734375,-0.5036901111274957,0.036569442984461784,0.4236187955468893
1725629500722994700,8.17599462890625,-0.7033055054992436,0.4780120645135641,0.427522817248106
1725629500732947700,8.18594775390625,-0.04329027567207813,0.08783025914430617,0.4537117359936237
1725629500742900700,8.195900634765625,0.1391109490483999,0.22378537451028824,0.4516542189419269
1725629500752854500,8.2058544921875,-0.44526948634088037,0.5882295120328664,0.3631874154597521
1725629500762807600,8.2158076171875,0.09244052941873669,0.21026713676750658,0.4874374799847603
1725629500772760600,8.225760498046874,-0.23827976380884647,0.5289303508460521,0.3375201825007796
1725629500782714600,8.235714599609375,-0.8284060493737458,0.44776422576606273,-0.1030678680256009
1725629500792667600,8.245667724609374,-0.18829495893418788,-0.00008241758644580841,-0.10918313603550195
1725629500802620700,8.25562060546875,-0.4462216724991798,0.652974079144001,-0.10896043319553136
1725629500812574700,8.26557470703125,-1.0807178456664084,0.7690881834864616,-0.5569283648401498
1725629500822527700,8.27552783203125,-0.43031624735891816,0.5151069926768541,-0.7187310381680727
1725629500832480800,8.285480712890624,-0.6933763782896101,0.5863607955515384,-0.7621969626680016
1725629500842434600,8.2954345703125,-1.4494400988996028,0.6922615489155054,-0.7763824321478605
1725629500852387600,8.3053876953125,-0.593594984588772,0.1913707131177187,-0.6319488267719745
1725629500862340600,8.315340576171875,-0.10009411291182041,0.5051029005348682,-0.07064619237035513
1725629500872294700,8.325294677734375,-0.5716407808035612,1.057523432561755,-0.0004921674311161041
1725629500882247700,8.33524755859375,0.16385492968261242,0.7829892830669879,-0.3094020492583513
1725629500892200700,8.34520068359375,1.0113315902292728,0.6192202781021595,0.27835692265331746
1725629500902154800,8.35515478515625,0.9475380402326583,0.8453069152921437,0.5678790901824832
1725629500912107800,8.365107666015625,0.45173634426742787,0.54029228733778,0.19768121143877504
1725629500922060800,8.375060791015626,0.5655816268950701,-0.04012158250808716,0.06893412775546312
1725629500932014600,8.3850146484375,0.6083452483445405,-0.21491934648752212,0.5848723105594515
1725629500941967600,8.394967529296874,0.5027575064525008,0.04683949258625507,0.9355302070528269
1725629500951920600,8.404920654296875,0.5458510905086994,-0.0005208090037107468,0.6165697635933757
1725629500961874700,8.414874755859374,0.41175124762058257,-0.09118599931299685,0.5129033451527357
1725629500971827700,8.42482763671875,0.23884558099806308,-0.1882329996138811,0.6328641880512237
1725629500981780700,8.43478076171875,0.5173962726578116,-0.26274960367679595,0.668526160801947
1725629500991734800,8.44473486328125,0.6575351034492254,-0.18622107526957987,0.6257566941335797
1725629501001687800,8.454687744140625,0.6488508617341519,-0.21210370454490182,0.8242045060306787
1725629501011640800,8.464640869140625,0.711447603161633,-0.2151245136708021,0.963044236922264
1725629501021595000,8.474594970703125,0.6308905498906969,-0.3963070102512836,1.1041346693500875
1725629501031548000,8.4845478515625,0.8259989882320166,-0.41249651302993295,1.1905503855213522
1725629501041501000,8.4945009765625,0.7747323268532752,-0.5235860672086476,1.0987491769194602
1725629501051454700,8.504454833984376,0.35905922961384057,-0.4199059125036001,1.071481523026526
1725629501061407700,8.51440771484375,0.603280950692296,-0.183994046869874,1.3074439498037098
1725629501071361800,8.52436181640625,0.4669251455709338,0.25503742186427114,1.4715359031125903
1725629501081314800,8.534314697265625,-0.22799422437697647,0.4026420584917068,1.2042021865159271
1725629501091267600,8.544267578125,-0.22963731540888546,0.12817337544858454,0.8696046134635805
1725629501101222000,8.554221923828125,-0.07360445765405893,0.1316957043558359,1.0317898563683032
1725629501111174700,8.564174560546874,-0.08676993643641472,0.5678583396553993,0.8928378972738981
1725629501121127700,8.574127685546875,0.11528379099816083,0.4551403074920177,0.9391066042348742
1725629501131081500,8.58408154296875,0.4596557390898466,0.22356442523598669,1.1156561803176999
1725629501141034500,8.594034423828125,0.6294330445587635,-0.13658230735361576,1.3450436126187444
1725629501150987500,8.603987548828124,0.5943053248152137,-0.2342120759785175,1.3241492931500076
1725629501160941600,8.613941650390625,0.7599962377533316,-0.38292847324013707,1.404476044796407
1725629501170894600,8.62389453125,0.9918106049403548,-0.39944998445212837,1.1967708674713968
1725629501180847600,8.63384765625,0.859747236315906,-0.41616906406283377,0.8623392986357211
1725629501190801700,8.6438017578125,0.9585513094171881,-0.36873043653964993,0.7431333657577633
1725629501200754700,8.653754638671876,0.7070429384618997,-0.37038755609691143,0.4614575278148055
1725629501210707700,8.663707763671875,0.00978109704107046,-0.33092882141172886,0.1184329026788473
1725629501220661800,8.673661865234376,-0.14013210878968238,-0.11991700375676155,0.28282237762957807
1725629501230614800,8.68361474609375,-0.09473346266150474,0.28718028057813644,0.1959977883964777
1725629501240567800,8.69356787109375,-0.3205995889686048,0.4367722916305065,-0.36964638234078884
1725629501250521600,8.703521484375,-0.2756353887349367,0.395006449046731,-0.5004468914225697
1725629501260474600,8.713474609375,-0.0011409867286682129,0.7304933721542358,-0.426457818365097
1725629501270427600,8.723427734375,-0.06092413204014301,0.8321405597269534,-0.62082303712368
1725629501280381700,8.733381591796874,0.07741963202804326,0.5548311002999544,-0.4393032714128494
1725629501290334700,8.743334716796875,-0.15214520266652107,0.3537380345910787,-0.1859025108397007
1725629501300287700,8.753287841796874,-0.04965455000698566,0.011061492240428924,-0.09440262327194213
1725629501310241800,8.76324169921875,0.03087459234371781,0.049046062719821926,0.4021265101850033
1725629501320194800,8.77319482421875,-0.16114494007155297,-0.007162146714329719,0.20010493145436048
1725629501330147800,8.78314794921875,-0.07911386872529982,-0.38065351404547687,0.12154548174142837
1725629501340101600,8.7931015625,0.20793328699246047,-0.616175503578782,0.2762821622058749
1725629501350054700,8.8030546875,-0.10371405697464943,-0.4068126221746206,0.049993280442059036
1725629501360007700,8.813007568359374,-0.14995309944972396,-0.3114624889194965,0.0090299864128232
1725629501369961700,8.822961669921876,-0.397435575889796,-0.1086953525185585,-0.11412585313469172
1725629501379914800,8.832914794921875,-0.7729756924442946,0.092726214492321,-0.1478600726932287
1725629501389867500,8.842867431640625,-0.7290655313082038,0.0840910726159811,-0.13113660916835068
1725629501399821800,8.85282177734375,-0.33034707600101826,0.11901976265609264,-0.4408148450195789
1725629501409774600,8.862774658203126,-0.5496352852225304,0.1851829643934965,-0.5343108748406171
1725629501419727600,8.8727275390625,-0.383774422544986,0.274333073964715,-0.8545777247235179
1725629501429681700,8.882681640625,-0.39762744520008564,0.25771803925037384,-0.8327516773626208
1725629501439634700,8.892634765625,-0.645601504549384,0.4795119476824999,-0.5429302346259355
1725629501449588500,8.90258837890625,-0.4225163872629404,0.39585166769921776,-0.5608432001963257
1725629501459541500,8.91254150390625,-0.20419044720232485,0.45756022811532016,-0.2451321139216423
1725629501469494500,8.92249462890625,-0.1872432579241693,0.8693401173084974,0.11807196041196584
1725629501479448600,8.932448486328125,-0.21910496160909532,0.6635042409867048,-0.4476636880010366
1725629501489401600,8.942401611328124,-0.2784678356818855,0.5772463457256555,-0.342269715115428
1725629501499354600,8.952354736328125,-0.4913748194336891,0.7881669779658317,-0.08509995739758014
1725629501509308700,8.96230859375,-0.13710720801055432,0.741073218357563,-0.27120588185489175
1725629501519261700,8.97226171875,-0.01321647831723094,0.8699667247742414,-0.20389526364803312
1725629501529214700,8.982214599609375,-0.1546804202325642,0.5970353343009949,-0.30059973412156105
1725629501539168500,8.99216845703125,0.14854089456424116,0.5773246716588736,-0.1237511750921607
1725629501549121500,9.00212158203125,-0.10412263777554034,0.01702595360279083,-0.45528351535499095
1725629501559074600,9.012074462890626,-0.11565291657149791,0.07956511962413787,0.06294979264885187
1725629501569028600,9.022028564453125,0.13955810829401016,-0.3326134134978056,0.1191694002598524
1725629501578981600,9.031981689453126,0.20306597321704029,-0.11926292376220225,0.17611147692650556
1725629501588934700,9.0419345703125,0.3621224165767431,0.5806745666086673,1.1915662845656274
1725629501598888700,9.051888671875,0.8273259990520775,-0.4224678719460964,0.12353928590714931
1725629501608841700,9.061841796875,0.483859036976099,-0.36708150028884406,-0.3480743097409606
1725629501618794800,9.071794677734376,0.29540844908878205,-0.3667062372356653,-0.15500117661952972
1725629501628748500,9.08174853515625,0.38876550883054733,-0.2405097148180008,0.15662205581963062
1725629501638701600,9.09170166015625,0.6964782898277044,-0.6294248612523079,0.012625672817230224
1725629501648654600,9.101654541015625,0.8767099154241382,-0.5232534742534161,0.41940526950508356
1725629501658608600,9.111608642578124,0.17634630859568715,-0.39683717160522936,0.019251812958717345
1725629501668561700,9.121561767578125,0.4237574733652174,0.23773615845143795,-0.00020575170516967773
1725629501678514700,9.1315146484375,0.34051322683691976,-1.520959274712205,-0.49229544140994547
1725629501688468700,9.14146875,-0.22978768366500735,-0.5020902747154236,-0.6659978113681078
1725629501698421800,9.151421875,0.8280496371515095,-0.13838088120818137,-0.1615022290766239
1725629501708374800,9.161374755859375,0.6420629551596939,0.26624387553334233,0.14567045369446277
1725629501718328800,9.171328857421875,0.2736183498241007,0.10171265402436255,0.03527764960825443
1725629501728281900,9.18128173828125,0.38416488316729663,0.12830313930809498,-0.15636019001305101
1725629501738235000,9.19123486328125,-0.008475567400455474,0.285142637270689,-0.001291208854317665
1725629501748188700,9.201188720703126,-0.17644684636071323,-0.1419663384795189,0.19287673376649617
1725629501758141700,9.2111416015625,0.32426658704355354,-0.564158900615573,0.2543263509854674
1725629501768094500,9.221094482421876,0.23551570592299104,-0.2221440370440483,0.40826691263616083
1725629501778048800,9.231048828125,0.28175547905042764,0.26713234880566594,0.0872889918744564
1725629501788001500,9.24100146484375,0.0479711269646883,0.1582049410969019,-0.045101709008216855
1725629501797954600,9.25095458984375,-0.3689375034190714,0.2857756744772196,-0.014294775073230266
1725629501807908600,9.26090869140625,-0.9380005426891147,0.41524084330201144,-0.17265373768806455
1725629501817861600,9.270861572265625,-0.9889256971538066,0.058415364089608186,-0.0340676892966032
1725629501827815400,9.2808154296875,-0.6945528747230768,0.1470937644958496,0.10352934805750846
1725629501837768400,9.2907685546875,-0.8435241235285997,0.3642775487840175,0.14841858335882424
1725629501847721500,9.300721435546874,-0.6926064168304205,0.3656336395680904,-0.037028584928810594
1725629501857675500,9.310675537109375,-0.268731454565376,0.34950668063163753,-0.2801815077319741
1725629501867628500,9.320628662109375,-0.6541852084994316,0.4357429485827684,-0.0990875662177801
1725629501877581600,9.33058154296875,-0.5872573059998453,0.6363327409446239,-0.17030571325719354
1725629501887535600,9.34053564453125,-0.589537672021985,0.32471126207113266,-0.12730740626901388
1725629501897488600,9.350488525390626,-0.842212456408143,0.302692322486639,-0.17304039891809225
1725629501907441700,9.360441650390625,-0.6894258870981633,0.09120061236023902,0.026771979330480096
1725629501917395700,9.370395751953126,-0.2876044973395765,0.2581172677010298,0.007149579493701458
1725629501927348700,9.3803486328125,-0.6740335260465741,0.4016501248449087,0.07503916663229465
1725629501937301800,9.3903017578125,-0.2749158422887325,0.099680855935812,-0.1233063539341092
1725629501947255600,9.400255615234375,-0.29933906653597947,0.06057108081877231,0.07978022367954253
1725629501957208600,9.41020849609375,-1.0157168195761739,0.012862988704442977,0.4714098897695541
1725629501967161600,9.42016162109375,0.14816928477287292,-0.13509995984137058,0.23274726412296293
1725629501977114600,9.430114501953126,0.01619578638896346,-0.05243628968000412,0.026367197921872136
1725629501987068700,9.440068603515625,-0.6005477263361215,-0.08564356275498866,-0.19498130483031273
1725629501997021700,9.450021728515624,-0.5407704262435435,-0.19087386951148508,-0.2092094444081187
1725629502006974700,9.459974609375,-0.4420611918188631,0.382359733441472,0.18485095596015452
1725629502016928800,9.4699287109375,-0.930977366054058,0.6795505359023809,0.2456149290025234
1725629502026881800,9.4798818359375,-0.012874094620347023,0.46814767310321326,-0.2011880505159497
1725629502036834800,9.489834716796874,0.6199902395613491,0.49956689371764657,-0.23199469218999147
1725629502046788600,9.49978857421875,-0.29272374004945156,1.0234937371879815,0.42607524878829717
1725629502056741600,9.50974169921875,-0.4344119922399521,1.0642793365627528,0.4262976593673229
1725629502066694700,9.519694580078125,0.3606149346232414,0.5113058468282222,0.03185965785831213
1725629502076648700,9.529648681640625,0.21044483142197132,0.3535200079262256,0.11096417423337697
1725629502086601700,9.539601806640626,0.12016191842854022,0.21319676047861574,0.28316461519598957
1725629502096554800,9.5495546875,0.6319897433042526,0.3354898457169533,0.44713528021275994
1725629502106508800,9.5595087890625,0.48200507967248557,0.5657014538824557,0.742988696590066
1725629502116461800,9.5694619140625,0.5800825920648872,0.5016664963454007,0.8675602481544017
1725629502126414600,9.57941455078125,0.8795102136671542,0.39518998892009255,0.7835507163420319
1725629502136368600,9.58936865234375,0.5216849097624421,0.35578093859553334,1.1022048703312872
1725629502146321400,9.5993212890625,0.6383239147618412,0.25578560988307,0.997035938373208
1725629502156274400,9.6092744140625,0.6784674168407917,0.11352467237114906,0.9414172192648053
1725629502166228500,9.619228515625,0.6159831958770752,-0.03094458884000778,1.1229805318564177
1725629502176181500,9.629181396484375,0.7551417834594846,-0.000090016371011734,1.002492742474377
1725629502186134500,9.639134521484374,0.8231739939391612,0.00343465062379837,0.8570385618790983
1725629502196088600,9.649088623046875,0.98712887686491,0.25837737994194027,0.9454042430743574
1725629502206041600,9.65904150390625,1.0453352743789552,0.27541970015764233,0.7054547924876212
1725629502215994600,9.66899462890625,0.8798115347012877,0.10036182393729687,0.6188894387125968
1725629502225948700,9.67894873046875,0.8663684080213307,0.011547814452648162,0.9340735785037279
1725629502235901700,9.688901611328125,0.7853431527167558,-0.04992167651057243,1.0811723114356397
1725629502245854700,9.698854736328125,0.5616922182410955,-0.3715945937991142,0.9125544051349163
1725629502255808500,9.70880859375,0.37398061215281486,-0.8701368206441402,0.8684840850010513
1725629502265761500,9.718761474609375,0.5433721331745386,-1.0770224982798098,0.8989350451052188
1725629502275715600,9.728715576171876,1.0574410149753093,-0.9600181670993566,0.7170268645986915
1725629502285668600,9.738668701171875,1.1186150301232933,-0.7250649173647165,0.3678694357961416
1725629502295622100,9.7486220703125,0.806284818458557,-0.4502922829389572,0.14249036235362292
1725629502305576200,9.758576171875,0.4401052354454994,-0.3870189574241638,0.11304799477010964
1725629502315529200,9.768529296875,0.33826544791013,-0.2720586992919445,0.21929478509277103
1725629502325483000,9.77848291015625,0.41047669764012096,-0.20510230135023594,0.17001286779046057
1725629502335436000,9.78843603515625,0.5721472690209746,-0.24740064337551593,0.005911269870400428
1725629502345389000,9.79838916015625,0.5541033705472946,-0.34546763437390327,-0.13431933085769415
1725629502355343000,9.808343017578125,0.48259910004287954,-0.300392813372612,0.0316954072073102
1725629502365296000,9.818296142578125,0.3390986838638782,-0.17595336375534534,0.08537380590289831
1725629502375249000,9.828248779296874,-0.24473434677571057,-0.04592354678511619,-0.0028586043015122412
1725629502385203200,9.838203125,-0.1055278283983469,-0.34387773483395573,-0.10916355455219745
1725629502395156200,9.84815625,0.1429305073365569,-0.29819734915494917,-0.06943067910075187
1725629502405109000,9.85810888671875,-0.3149202281579375,0.18909166226983068,-0.07744739681780338
1725629502415063000,9.86806298828125,-0.12613865475058555,0.36466099514365197,-0.4437330705538392
1725629502425015800,9.878015869140626,0.25120091244131326,0.49892391963899135,-0.43444764807522296
1725629502434968800,9.88796875,-0.09265373377799987,0.9262298792660236,-0.391677304624021
1725629502444923000,9.8979228515625,-0.310210150770843,0.7119061605840921,-0.7357321495905518
1725629502454876000,9.9078759765625,0.1176052196830511,0.25969196967184544,-0.546765575005114
1725629502464829000,9.917828857421876,0.00390869787633419,0.35199031414091586,-0.418210799023509
1725629502474783000,9.927782958984375,-0.3425133146129548,0.2814940516352653,-0.4426914525464177
1725629502484736000,9.937736083984374,-0.04825856560394168,-0.061283028480410576,-0.2412961890205741
1725629502494689000,9.94768896484375,-0.3280288621865213,-0.0506897382736206,-0.002542377959191799
1725629502504643000,9.95764306640625,-0.42073067288994787,-0.30133564718067646,0.06930676046013831
1725629502514596000,9.96759619140625,-0.22332784000113606,-0.37168344112634655,0.14812281528264284
1725629502524549000,9.977549072265624,-0.36338454546704885,-0.24722820941805837,0.1676394166573882
1725629502534503000,9.9875029296875,-0.37998423648178575,-0.2230927160710096,-0.16716361583918332
1725629502544456000,9.9974560546875,-0.012295856340974569,-0.1374339557468891,-0.4032327178612351
1725629502554409000,10.007408935546875,-0.2954411823146045,0.28614216970205303,-0.3790332193672657
1725629502564363000,10.017363037109375,-0.3838962953589856,0.6359113006621598,-0.6894970526382327
1725629502574316000,10.02731591796875,-0.3344020504802465,0.6404226406067609,-0.5860264490306377
1725629502584270000,10.03727001953125,-0.31006475095078345,0.7499556129932403,-0.3529872162237763
1725629502594223000,10.04722314453125,-0.3811369136482477,0.7300877139627933,-0.3075175506860018
1725629502604176100,10.057176025390625,-0.029136078113317487,0.5447241323053836,-0.2299979654148221
1725629502614130000,10.0671298828125,0.07298062666729092,0.39742110897302624,-0.02365530861467123
1725629502624083000,10.0770830078125,0.07230828036367892,0.45153673004209993,0.23366934740394352
1725629502634036000,10.087035888671876,0.30791312587484715,0.2732517084687948,0.04063479272723198
1725629502643990000,10.096989990234375,-0.09066745533160865,0.05548398681282997,0.001439385153353214
1725629502653943000,10.106943115234374,-0.4800011925041675,0.14970657734274864,0.38652971260249613
1725629502663896000,10.11689599609375,-0.27394261334240433,-0.2973112139701843,0.15853431918174027
1725629502673850000,10.12685009765625,-0.17617431302964687,-0.3425070310026407,-0.12824702520668507
1725629502683803100,10.13680322265625,0.02617839735150337,0.11057692848145961,0.07430792974829674
1725629502693756200,10.146756103515624,0.3902835121780634,-0.1713496693521738,-0.577480446742475
1725629502703710000,10.1567099609375,-0.11829429792575537,0.4163590336769819,-0.30480069294273854
1725629502713663000,10.1666630859375,-0.09952873411402105,0.007376081725955009,-0.6789709824487566
1725629502723616000,10.176615966796875,-0.359644043764472,-0.0828887110888958,-0.4418056096225977
1725629502733570000,10.186570068359375,0.018579028263688086,0.6099246264904737,0.47464580295085906
1725629502743523000,10.196523193359376,0.6054699851691723,-0.1681295382618904,-0.0525657612785697
1725629502753476000,10.20647607421875,0.19248583475276826,0.06063362466096878,-0.10128799887150526
1725629502763430100,10.21643017578125,0.28787995328009125,0.07079846032261848,0.1851262657701969
1725629502773383200,10.226383056640625,0.5315811576157808,-0.05956219603717327,0.2627338215857744
1725629502783337200,10.236337158203124,0.3007791823416948,-0.015102292063832281,0.419115346647799
1725629502793290200,10.246290283203125,0.976150532863289,-0.18628245006799696,0.43833997933864594
1725629502803243000,10.256242919921876,1.1931154137037694,0.3043699003100395,0.4979407538205385
1725629502813197000,10.266197021484375,0.791809864512831,0.49082595337927337,0.3158598470956087
1725629502823149800,10.27614990234375,0.7413999660938978,0.0539706596404314,-0.20199322941899298
1725629502833102800,10.286102783203125,-0.027075638452172278,-0.29697394483983514,-0.4818076574042439
1725629502843057000,10.296056884765624,-0.16933832952976227,-0.40311142956912516,-0.5254591676041483
1725629502853010000,10.306010009765625,-0.1876537384212017,-0.15832009190917015,-0.4113298073381185
1725629502862963000,10.315962890625,-0.17810791144073007,0.02640285375714302,0.028064064967632293
1725629502872917000,10.3259169921875,0.10490063641071319,0.18841887757480144,0.20947861673831938
1725629502882870000,10.3358701171875,0.15481471413671968,0.3272328895032406,0.2919178304940462
1725629502892823000,10.345822998046875,0.08701265915110706,-0.0038350481182336804,0.3166930830493569
1725629502902776800,10.35577685546875,0.4621535472549498,-0.5616314279645681,0.45503041737675665
1725629502912729900,10.365729736328126,0.6418839453309774,-0.6130518186002969,0.43987551834285255
1725629502922683000,10.375682861328125,0.9042818129606545,-0.5945043545186519,0.4167182223781943
1725629502932637000,10.385636962890626,0.7270378248728812,-0.3043389206498861,0.31669600565880535
1725629502942590000,10.39558984375,0.19055179795026778,-0.2294856319785118,0.04388356539011001
1725629502952544000,10.4055439453125,0.0830156984694302,-0.43750937373340126,-0.0523605940952897
1725629502962497000,10.4154970703125,-0.548657818492502,-0.13683540533185004,-0.057308279630541796
1725629502972450000,10.425449951171874,-0.0832661660991609,-0.08240355792045592,-0.1513224881067872
1725629502982404000,10.435404052734375,-0.09816066063120961,0.15183949771821498,-0.18068302262574434
1725629502992357000,10.445357177734374,-0.43044601121842857,0.3517261102467775,-0.36572219463437794
1725629503002310100,10.45531005859375,-0.27678675072714687,0.23556173702180383,-0.8130804699480533
1725629503012264000,10.465263916015624,-0.940024595862627,0.29033494521677494,-0.8814438120782375
1725629503022217000,10.475217041015625,-0.9311860403686761,0.41911856151819227,-0.3051435150310397
1725629503032170000,10.485169921875,-0.6952450947709381,0.5146335299462079,-0.19833470691144464
1725629503042124000,10.4951240234375,-1.2067226449042558,0.8827660005927085,-0.3758198102787137
1725629503052077000,10.5050771484375,-1.065376338019222,0.6531967819839716,-0.3754281806126237
1725629503062030000,10.515030029296875,-0.6313913390196859,0.38242403084933757,-0.4817877836599946
1725629503071984000,10.524984130859375,-0.7584498850941658,0.34337270792126656,-0.44738691688627
1725629503081937200,10.534937255859376,-1.0627660093903541,0.09756254860758781,-0.30681407859176396
1725629503091890200,10.54489013671875,-0.5595725957386195,-0.16098668076992034,-0.13563392058759927
1725629503101844000,10.554843994140626,-0.4280469872526824,-0.009024433454871177,0.00009907646030187607
1725629503111797000,10.564796875,-0.7107018993608654,0.1831301235169172,0.07069616899192332
1725629503121750000,10.57475,-0.429167661845684,0.15454291145801544,-0.24232056363224982
1725629503131704000,10.5847041015625,-0.2059568723529577,0.15239420899152756,-0.2011097245827317
1725629503141657000,10.594656982421874,-0.6541945608496665,0.4612310255825519,-0.10442454333156347
1725629503151610000,10.604610107421875,-0.18093290573358534,0.45104397808909413,-0.1884051413103938
1725629503161564200,10.614564208984374,-0.29117022699713707,0.3802396725475788,-0.216236274304986
1725629503171517200,10.62451708984375,-0.6309153920710087,0.3968915321409702,-0.20633856514692306
1725629503181471200,10.63447119140625,0.17357231383770702,0.14907763178944586,-0.16099778668582437
1725629503191424300,10.64442431640625,0.5010837280213832,0.21138766523003577,0.028761107321083543
1725629503201377000,10.654376953125,0.2836985759422183,0.3756377317100763,0.047049043683707714
1725629503211331000,10.6643310546875,0.5563531953006983,0.314206819191575,-0.07198562428057194
1725629503221283800,10.674283935546875,0.7236705403968692,0.3291121273785829,0.02327010868936777
1725629503231236900,10.68423681640625,0.330648835426569,0.4565753087311983,0.23110095822066068
1725629503241191000,10.69419091796875,0.5203662283793091,0.4594751218259334,0.30378771650791164
1725629503251144000,10.70414404296875,0.8141618354439735,0.3471305991500616,0.3729068454414606
1725629503261097000,10.714096923828125,0.4926511229798197,0.3367728712648153,0.6144660693123937
1725629503271051000,10.724051025390626,0.6445519954964518,0.12759703686535356,0.26527532276213167
1725629503281004000,10.734004150390625,0.7215497488506137,-0.07505611776709556,0.4152870205312967
1725629503290956300,10.743956298828126,0.5714511034503579,-0.11624386820197105,0.6356368676349521
1725629503300910300,10.753910400390625,0.4837336570307612,-0.05151216057240963,0.7438087808012962
1725629503310863400,10.76386328125,0.6407154860734939,-0.08052782717645168,1.0728902207806705
1725629503320816000,10.773816162109375,0.820442230887711,0.048940848779678345,1.151437980055809
1725629503330770200,10.783770263671874,1.0398296626999974,-0.01035363623201847,1.2037640873596072
1725629503340723000,10.793722900390625,1.0535165350079536,0.009019172757863998,0.8742106459543109
1725629503350676000,10.803676025390626,0.6757479287490248,-0.11995733576714991,0.5871545762777328
1725629503360630000,10.813630126953125,0.9099845546469092,0.02494505616426468,0.7338248546645045
1725629503370583000,10.8235830078125,0.9001119799301027,0.043077509704232214,0.935511210091412
1725629503380536000,10.8335361328125,0.6690323567584157,0.09512567684948443,0.694461104786396
1725629503390490000,10.843489990234374,0.8934797023087739,0.2512415367126465,0.6132832892686129
1725629503400443100,10.853443115234375,0.9586404490053653,0.23673837958574293,0.5713350758552551
1725629503410397000,10.86339697265625,0.4215519261449575,-0.2829945193260908,0.7421449392423033
1725629503420350000,10.873349853515625,0.2658373405590653,-0.8280757945060729,0.88409666467458
1725629503430303000,10.883302978515625,0.5695768340110778,-0.8617401636987924,0.9873983414560555
1725629503440257000,10.893257080078126,0.911195391741395,-0.5859142208278179,1.0939815241262316
1725629503450210000,10.9032099609375,0.7743027032643556,-0.17252046669721602,0.4224766397744417
1725629503460163000,10.9131630859375,0.23536387636214492,-0.05901742163598537,0.31692835310995576
1725629503470117000,10.9231171875,0.17452976069301365,0.09386310956776142,0.6413412167564034
1725629503480070100,10.933070068359376,0.030192309167981147,0.0867354496449232,0.5539753602534532
1725629503490023200,10.943023193359375,0.2587891756132245,-0.32640637555122376,0.8477797351464629
1725629503499977200,10.952977294921874,0.29555706377923485,-0.5230313559353351,0.7966340697988867
1725629503509930200,10.96293017578125,0.40126697074621914,-0.9717740713447331,0.4147808245748281
1725629503519883300,10.97288330078125,0.7063865203797817,-0.7338730777204037,0.6015010815382004
1725629503529837000,10.982837158203125,0.16407061825990676,-0.16521686568558216,0.01175882685482502
1725629503539790000,10.9927900390625,0.2880525333680212,-0.2354845801323652,-0.5564315212339163
1725629503549743000,11.0027431640625,0.35630876186192034,0.04328501497507095,-0.5413815438792109
1725629503559697200,11.012697265625,-0.06077683252394199,0.46400925812423227,-0.6682412063807248
1725629503569650200,11.022650146484375,0.16293167735785244,0.26398995912671086,-0.586009205634892
1725629503579603200,11.032603271484374,0.021835107450187206,0.5584826085448265,-0.4847656304270029
1725629503589557200,11.04255712890625,-0.04332695442065596,0.4965086751908064,-0.4184060293346643
1725629503599510300,11.05251025390625,-0.3642512452989816,0.3102513595640659,-0.7119125903248786
1725629503609463300,11.06246337890625,-0.23931202946603297,-0.2581815651088953,-0.5817445339277386
1725629503619417000,11.0724169921875,-0.28690029459297656,-0.034762685823440546,-0.3824076642364263
1725629503629370000,11.0823701171875,-0.22178397156000135,0.010734744504094123,-0.5355410011574626
1725629503639324200,11.09232421875,-0.27267303179800506,-0.10074877742826938,-0.5926660331755876
1725629503649277200,11.102277099609376,-0.4420744896918535,-0.37861177908480165,-0.5927624792873859
1725629503659230200,11.112230224609375,-0.3125507225476205,-0.4368932876616716,-0.2339972641840577
1725629503669184300,11.122184326171874,-0.36454701337516304,0.28173019847869873,-0.11598755535334349
1725629503679137300,11.13213720703125,-0.22891981478929518,1.0702110646992922,-0.595436666932702
1725629503689090300,11.14209033203125,0.9364077205397188,0.7497381708502769,-1.5423013379484414
1725629503699044400,11.15204443359375,-0.25734628332853315,0.5336182164013386,-1.2562646744474768
1725629503708997400,11.161997314453124,-0.2137162543080747,0.47709904132187364,-1.2202803378745912
1725629503718950100,11.1719501953125,-0.35633506534695625,0.19407646494507788,-1.1452546152457594
1725629503728904200,11.181904296875,-0.44312546004951,0.04439034586846828,-0.6516995291635393
1725629503738857200,11.191857177734375,-0.2076923178434372,0.11104396147131919,-0.1423810567602515
1725629503748810000,11.20181005859375,0.09322598070800305,0.2868634697139263,0.011365443623065947
1725629503758764300,11.211764404296876,0.6193814600132406,0.20424422321617602,-0.44067134489566084
1725629503768717000,11.221717041015625,-0.06520458583831787,0.37937165754139424,-0.3215373082101345
1725629503778670000,11.231670166015626,0.2283082587622106,0.11350187601745128,-0.4562392086446285
1725629503788624100,11.2416240234375,-0.06197261817976832,-0.04444879805743694,-0.5865487193390727
1725629503798577200,11.2515771484375,-0.5878045646190643,0.14903203908205032,0.14508359371721744
1725629503808530200,11.2615302734375,-0.17133330273926256,-0.05135317061841488,0.26637626974135636
1725629503818484000,11.27148388671875,-0.024115619602799416,-0.012004910570383071,0.26153409040719267
1725629503828437000,11.28143701171875,0.3279987593092024,-0.048747956556081766,-0.06305120719671249
1725629503838390000,11.29139013671875,0.3706500064253807,-0.12802607593238352,-0.5035644389212132
1725629503848344000,11.301343994140625,0.21030454616844652,0.09923194312453269,-0.29030864173173904
1725629503858297000,11.311297119140624,-0.16624226321056484,-0.05807575687170028,-0.4756172783315181
1725629503868250000,11.32125,-0.3273836961507797,-0.4005331035137176,-0.3306380217716098
1725629503878204200,11.3312041015625,-0.0017525427557528019,-0.1438122586071491,0.2232031907081604
1725629503888157200,11.3411572265625,0.5568142369411886,0.6345470265716314,0.3420560723647475
1725629503898111200,11.351111328125,0.4257680825352669,0.49760582277774806,0.07339139942526816
1725629503908064000,11.36106396484375,0.6396838049381971,0.20013386528789995,0.24398674327880143
1725629503918017000,11.37101708984375,0.9358423417419195,0.24514321983754633,0.46707536769658325
1725629503927971000,11.38097119140625,0.8524351597368717,0.3272229526311159,0.42936552250534293
1725629503937924000,11.390924072265625,0.5003564366601407,0.08615092775523663,0.3073302114203572
1725629503947877000,11.400877197265626,0.17375380788445471,-0.29570144068598747,0.2930345595642924
1725629503957831200,11.4108310546875,0.35386093031838534,-0.3624409810066223,0.38675884518325326
1725629503967784200,11.4207841796875,0.4237450522750616,0.10136310993432998,0.5157034972652793
1725629503977737200,11.4307373046875,0.2782343191869557,0.11331073735952377,0.49947015534490347
1725629503987691300,11.440691162109376,0.23987097852304576,-0.3503934003382921,0.03424158455878496
1725629503997644300,11.450644287109375,-0.11936813770234585,-0.5140320569217205,-0.3069736530676484
1725629504007597300,11.460597412109376,-0.17703341407701373,-0.6755488990455866,-0.2644067232340574
1725629504017551000,11.470551025390625,0.13736863542571662,-0.5941407819032669,-0.06736848587393761
1725629504027504000,11.480504150390624,0.14503507840037344,-0.09512567684948443,-0.016765256839990614
1725629504037457200,11.49045703125,0.23122341555655002,-0.05824877535104751,-0.10572072062194347
1725629504047411200,11.5004111328125,0.27973829400911926,-0.16496902840435504,-0.09102379448860883
1725629504057364200,11.5103642578125,0.2081413767851889,-0.04463526054024696,-0.016261106710135937
1725629504067317200,11.520317138671874,0.33165202111974357,-0.025077742633223533,-0.3623556408107281
1725629504077271300,11.530271240234375,-0.1033263728313148,0.03601005553603172,-0.5705281433865428
1725629504087224300,11.540224365234375,-0.13913827544674276,-0.04141629849374294,-0.401409009565413
1725629504097177300,11.55017724609375,0.061234367033094164,0.38631168593764303,-0.024776421599090097
1725629504107131100,11.560131103515625,-0.14214622509106992,1.0927344466745852,0.17755466147214174
1725629504117084200,11.570084228515626,0.04904562432840466,1.154472233185172,-0.26105858184993264
1725629504127038200,11.5800380859375,-0.1524571912251413,0.7335504216372967,-0.4113131484642625
1725629504136991200,11.5899912109375,-0.41245325841009617,0.49628129617571826,-0.21249942586421966
1725629504146944000,11.599944091796875,-0.36823169323727484,0.49140579909384247,-0.3280120571821928
1725629504156897000,11.60989697265625,-0.824829798322171,0.24949615435004233,-0.2288794827789068
1725629504166851000,11.61985107421875,-0.9093656920962035,0.16911095051467417,0.21289573170542717
1725629504176804000,11.62980419921875,-0.5179881010711193,0.1418786601960659,0.32918519261479373
1725629504186758100,11.639758056640625,-0.26477014971897006,0.23048925606310366,0.3175491153568029
1725629504196711200,11.649711181640624,-0.48874622449576854,0.284310862621665,0.35781624381542204
1725629504206664200,11.659664306640625,-0.01650733655616641,0.03299626067280769,0.25524901878833767
1725629504216618000,11.669617919921874,-0.03762918117046356,0.08625380360782146,0.4019485232695937
1725629504226571000,11.679571044921875,-0.23289923981428146,0.18244857099354267,0.38278234276771544
1725629504236524000,11.68952392578125,-0.0690576080046594,-0.24443302574157713,0.28019524399638174
1725629504246478000,11.69947802734375,-0.07998582925423979,-0.15491817451119422,0.6107675070554017
1725629504256431000,11.70943115234375,-0.02080474148914218,-0.08093523893356323,0.22724311374872921
1725629504266384100,11.719384033203125,0.18758184222877025,-0.17053952201306818,-0.2491933720111847
1725629504276338200,11.729338134765625,-0.09896189401149749,-0.17701251741945742,-0.18200550340116023
1725629504286291200,11.739291259765626,-0.48922860118523237,-0.07034311777055263,-0.362154273019731
1725629504296244500,11.749244384765625,-0.4843547115385532,-0.03999181864857673,-0.4395037624210119
1725629504306198300,11.7591982421875,-0.3931654973551631,0.21933540936410426,-0.26966566667556763
1725629504316151300,11.7691513671875,-0.28373087077662346,0.45307928330898284,-0.07236380994319916
1725629504326104300,11.779104248046876,0.12604746933579444,0.495539537897706,-0.3082707071408629
1725629504336058400,11.789058349609375,0.5285078876502811,0.39964287667572496,-0.48869157169908284
1725629504346011400,11.799011474609374,0.15902911696135996,0.37662031300663945,-0.3923813612401485
1725629504355964400,11.80896435546875,0.22128186725676058,0.23976152679920196,-0.46070407909899946
1725629504365918500,11.81891845703125,0.32972251436188815,0.18174305307269095,-0.21262831294089554
1725629504375871500,11.82887158203125,0.1488105052858591,0.536349687191844,0.4303089408352971
1725629504385824500,11.838824462890624,0.28279373605698344,0.7795084552139043,0.3820733177155256
1725629504395778300,11.8487783203125,0.3537237138047814,0.6357979034155606,0.4659422720134258
1725629504405731300,11.8587314453125,0.542086185017228,0.5360457358092069,0.6355743237927556
1725629504415684400,11.868684326171875,0.4217492022827267,0.6480307775229215,0.6740317724809051
1725629504425638400,11.878638427734375,0.3463508469492197,0.7962620216161013,0.5616080470889806
1725629504435591400,11.88859130859375,0.3615969313979149,0.8061217368513345,0.5234712086573243
1725629504445544400,11.89854443359375,0.2556326112784445,0.6237497382253409,0.8078013605013489
1725629504455498500,11.90849853515625,0.408555666449666,0.6775748519152403,1.0602274308234452
1725629504465451500,11.918451416015625,0.3809288238555193,0.6759019502669572,1.1771855847746133
1725629504475405600,11.928405517578126,0.33942893873155117,0.5699538506299257,1.0693319437772035
1725629504485358600,11.938358642578125,0.704339086330682,0.21273440366387367,1.0263941348046064
1725629504495311600,11.9483115234375,0.5554841573812067,0.13986790489554404,1.0871206984460353
1725629504505265400,11.958265380859375,0.6398422103703022,0.016449030497670172,1.201677051952481
1725629504515218400,11.968218505859374,0.9853158360935748,-0.16083353603482245,1.2678338239490985
1725629504525171500,11.97817138671875,0.7433113526731729,-0.2092073985815048,1.4525453714385628
1725629504535125500,11.98812548828125,0.6791121444851159,-0.6804372556090355,1.3625053272902965
1725629504545078500,11.99807861328125,0.784537097030878,-1.0594131918311118,1.3020721936374902
1725629504555031300,12.00803125,0.8692122531451284,-0.9711731828421354,1.2906482978254556
1725629504564985600,12.017985595703125,0.8536772687524556,-0.850929431349039,1.0172218173116445
1725629504574938400,12.0279384765625,0.7900169897466898,-0.9084013771086931,0.6975462113201618
1725629504584891400,12.037891357421875,0.5466694211542606,-0.9744272162020206,0.6533095947086811
1725629504594845200,12.04784521484375,0.44444370304122566,-0.8202852867603302,0.44967502782344815
1725629504604798200,12.057798095703125,0.16139643061459064,-0.49912967134416103,0.3040945904999971
1725629504614751200,12.067751220703125,-0.09581015198230743,-0.23889000466167926,0.2742161695867777
1725629504624705300,12.077705322265626,-0.15446400100290775,-0.32723756567835804,0.21770430103093386
1725629504634658300,12.087658203125,-0.11315788488537072,-0.5682768573284149,0.04490092573910951
1725629504644611300,12.097611328125,0.3665022390961647,-0.44410745682418346,-0.13802636868208645
1725629504654565400,12.1075654296875,0.545879732081294,-0.3927005101919174,-0.10998422328531741
1725629504664518400,12.117518310546876,0.2856809819310903,-0.27240824338197706,-0.3004582798242569
1725629504674471400,12.127471435546875,0.09359715210795402,-0.1474327871918678,-0.1311710959598422
1725629504684425500,12.137425537109374,-0.10050152466893196,0.19382862766385078,-0.03087444621324539
1725629504694378500,12.14737841796875,0.054420741495490074,0.30526947949826716,-0.0789341282442212
1725629504704331500,12.15733154296875,0.0735401602461934,0.4041629844486713,-0.05515636229366064
1725629504714285300,12.167285400390625,-0.1852377633206546,0.4646037168860435,-0.1593210856452584
1725629504724238300,12.17723828125,0.04167816430032253,0.2863222024440765,-0.13871113607585428
1725629504734191400,12.18719140625,-0.054866877827793356,0.49983811187446114,-0.15202566794008016
1725629504744145400,12.1971455078125,-0.4388562582977116,0.5995534546017647,-0.2229313880294561
1725629504754098400,12.207098388671875,-0.2262337905757129,0.40904549579322336,-0.11616028157174586
1725629504764051500,12.217051513671874,-0.33875191625282164,0.335745866304636,-0.032276714226603505
1725629504774005500,12.227005615234376,-0.3745871997438371,0.07350947284698486,-0.015528408521413802
1725629504783958500,12.23695849609375,-0.31335560918971894,-0.09058569533228873,0.0032163316980004307
1725629504793912300,12.246912353515626,-0.15437632271945476,-0.20231647002398967,0.005653787977993488
1725629504803865300,12.256865234375,0.08092135653868317,-0.06716565677821636,-0.1496367269769311
1725629504813818400,12.266818359375,-0.04282032007277012,0.1327373223632574,-0.17554098356217146
1725629504823772400,12.2767724609375,-0.4006166901439428,0.26254560553729533,-0.25424305661618707
1725629504833725400,12.286725341796876,-0.5339620614029467,0.2149327904909849,-0.17420447426140306
1725629504843678500,12.296678466796875,-0.45301381685733794,-0.0009516016364097595,-0.17995470835119484
1725629504853632500,12.306632568359374,-0.4250128802537918,-0.18523790945112703,-0.06889438026696443
1725629504863585500,12.31658544921875,-0.0982510423284024,-0.20588672972619532,-0.050289340779185294
1725629504873538600,12.32653857421875,0.04031622829735279,-0.05977496200501919,-0.17972119185626506
1725629504883492400,12.336492431640625,0.23145269426777956,0.08696925840079783,-0.2983852729424834
1725629504893445400,12.3464453125,0.03826280289888382,0.39340778167843815,-0.5185504111289978
1725629504903398400,12.3563984375,-0.20043138692975043,0.35031156727373597,-0.7104173833310604
1725629504913352400,12.3663525390625,0.021864625805616378,0.15183306797742843,-0.7308095984965562
1725629504923305500,12.376305419921875,-0.28994090439788994,0.15043021544218063,-0.7027656995341182
1725629504933258200,12.38625830078125,-0.36463995235562324,0.047775312131643294,-0.795016697730124
1725629504943212500,12.396212646484376,-0.23756898519098757,0.07133271332979202,-0.5889546114370227
