time,seconds_elapsed,z,y,x
1725629492571211800,0.024211669921875,-0.3023126721382141,-0.36970406770706177,-0.274954617023468
1725629492581164800,0.034164794921875,-0.15713387727737427,-0.33056172728538513,-0.353971391916275
1725629492591117800,0.044117919921875,0.039960816502571106,-0.3235926330089569,-0.41279351711273193
1725629492601071900,0.05407177734375,0.23030732572078705,-0.1979505568742752,-0.3986092507839203
1725629492611025000,0.06402490234375,0.34068563580513,0.05941036343574524,-0.3651795983314514
1725629492620978000,0.07397802734375,0.41275927424430847,0.35215437412261963,-0.3136250674724579
1725629492630932000,0.083931884765625,0.5135907530784607,0.5668971538543701,-0.23562057316303253
1725629492640885000,0.093885009765625,0.6155610680580139,0.7418715953826904,-0.2531564235687256
1725629492650837800,0.103837646484375,0.7373090982437134,0.8479375839233398,-0.4750855267047882
1725629492660791800,0.113791748046875,0.883854866027832,0.9710019826889038,-0.8388574123382568
1725629492670744800,0.123744873046875,1.0787800550460815,1.0392824411392212,-1.3348878622055054
1725629492680697600,0.133697509765625,1.174524188041687,0.7993384003639221,-1.8361048698425293
1725629492690652000,0.14365185546875,1.1534409523010254,0.1306850016117096,-2.104458808898926
1725629492700604700,0.153604736328125,1.9209400415420532,0.006825114134699106,-2.895090341567993
1725629492710557700,0.1635576171875,1.57732093334198,0.9344798922538757,-3.1373660564422607
1725629492720511700,0.17351171875,1.6992753744125366,0.7025499939918518,-2.827298402786255
1725629492730464800,0.18346484375,1.612390398979187,1.179288387298584,-1.9625673294067383
1725629492740418600,0.19341845703125,1.582809329032898,1.1223689317703247,-1.1987117528915405
1725629492750371600,0.20337158203125,1.2652394771575928,1.3147187232971191,-0.295456200838089
1725629492760324600,0.21332470703125,1.1672236919403076,0.3680681884288788,0.519976794719696
1725629492770278700,0.223278564453125,1.0335131883621216,-0.09977150708436966,1.3273659944534302
1725629492780231700,0.233231689453125,1.1896494626998901,-0.5379968285560608,2.0686404705047607
1725629492790184700,0.243184814453125,1.747029185295105,-1.6572774648666382,2.2046077251434326
1725629492800137700,0.2531376953125,1.8895407915115356,-1.1734812259674072,2.2413032054901123
1725629492810091800,0.263091796875,2.2573583126068115,-0.5629904866218567,1.9570410251617432
1725629492820044800,0.273044921875,2.545452356338501,-0.08685221523046494,1.3503795862197876
1725629492829998800,0.282998779296875,2.7700724601745605,1.099924921989441,0.7901511788368225
1725629492839952000,0.292951904296875,2.8439290523529053,1.8363745212554932,0.2786535322666168
1725629492849905000,0.30290478515625,3.0353944301605225,1.4027326107025146,-0.03503478318452835
1725629492859858700,0.312858642578125,3.397575616836548,0.728459894657135,-0.11333252489566803
1725629492869811700,0.322811767578125,3.56785249710083,0.14442431926727295,-0.10812820494174957
1725629492879764700,0.3327646484375,3.516907215118408,-0.3731714189052582,-0.20304858684539795
1725629492889717800,0.3427177734375,3.3677022457122803,-0.6304341554641724,-0.46200627088546753
1725629492899671800,0.352671875,3.32525897026062,-1.6047818660736084,-0.9333008527755737
1725629492909624800,0.362624755859375,3.047550678253174,-1.5173535346984863,-1.037650227546692
1725629492919577900,0.372577880859375,2.409987211227417,-0.7782832384109497,-0.8653220534324646
1725629492929532000,0.382531982421875,1.9338512420654297,-0.7757598161697388,-0.6178566217422485
1725629492939485000,0.39248486328125,2.1351840496063232,-1.487499713897705,-0.4028383195400238
1725629492949438700,0.402438720703125,2.5815439224243164,-2.270559549331665,-0.14641480147838593
1725629492959391700,0.412391845703125,2.9461162090301514,-2.8375983238220215,0.24757671356201172
1725629492969344800,0.4223447265625,3.523776054382324,-2.8341639041900635,0.44435861706733704
1725629492979298800,0.432298828125,3.9866838455200195,-2.8170738220214844,0.7303639650344849
1725629492989251800,0.442251953125,4.64531946182251,-2.7525954246520996,1.205386996269226
1725629492999204900,0.452204833984375,4.464181900024414,-2.691655397415161,1.4806110858917236
1725629493009159000,0.462158935546875,3.267772674560547,-3.93210768699646,0.8365859985351562
1725629493019112000,0.47211181640625,2.1899917125701904,-4.830760955810547,-0.5317246317863464
1725629493029065000,0.48206494140625,2.06126070022583,-4.198385238647461,-1.5585070848464966
1725629493039018800,0.492018798828125,2.6660163402557373,-3.4499998092651367,-1.957094430923462
1725629493048971800,0.5019716796875,3.3386120796203613,-2.7937464714050293,-2.0572962760925293
1725629493058924800,0.5119248046875,3.586796760559082,-1.719521403312683,-2.588681936264038
1725629493068878800,0.52187890625,3.5735511779785156,-0.3220759630203247,-3.7156858444213867
1725629493078831600,0.53183154296875,3.670664072036743,1.1993488073349,-4.523634433746338
1725629493088784600,0.54178466796875,3.7377679347991943,2.390256881713867,-4.924292087554932
1725629493098738700,0.55173876953125,3.7496509552001953,2.4620773792266846,-4.901235580444336
1725629493108691700,0.561691650390625,3.5654962062835693,1.4029624462127686,-3.5960443019866943
1725629493118644700,0.571644775390625,2.6466729640960693,1.0602633953094482,-2.8270020484924316
1725629493128598800,0.581598876953125,2.0156099796295166,1.1082775592803955,-2.7822141647338867
1725629493138551800,0.5915517578125,2.667649745941162,0.9094818234443665,-3.226182460784912
1725629493148504800,0.6015048828125,3.0792388916015625,1.111761450767517,-3.1306612491607666
1725629493158458600,0.611458740234375,3.3989908695220947,1.3912447690963745,-3.350619077682495
1725629493168411600,0.62141162109375,3.740398645401001,1.0268021821975708,-3.457421064376831
1725629493178364700,0.63136474609375,3.762913465499878,0.18356728553771973,-2.9189467430114746
1725629493188318700,0.641318603515625,3.2815208435058594,-0.5698152780532837,-1.8042737245559692
1725629493198271700,0.651271728515625,2.943861484527588,-0.7317754030227661,-0.4565275013446808
1725629493208224800,0.661224853515625,3.405219078063965,-0.7730157375335693,0.591632604598999
1725629493218178800,0.6711787109375,4.242493629455566,-0.40217190980911255,1.251067042350769
1725629493228131800,0.6811318359375,4.896857738494873,0.07928729057312012,1.7042663097381592
1725629493238084900,0.6910849609375,5.210851669311523,0.4017966091632843,2.0942800045013428
1725629493248038700,0.70103857421875,5.5649495124816895,0.691462516784668,2.4487881660461426
1725629493257991700,0.71099169921875,5.038403511047363,1.0476070642471313,2.8440468311309814
1725629493267944700,0.72094482421875,3.934349775314331,0.6813576221466064,2.851991653442383
1725629493277898800,0.730898681640625,3.4029273986816406,0.38509613275527954,2.6188676357269287
1725629493287851300,0.740851318359375,3.3021974563598633,0.8004031181335449,2.440978527069092
1725629493297804300,0.75080419921875,3.235252857208252,0.7616317272186279,1.8815264701843262
1725629493307758300,0.76075830078125,2.4345133304595947,-0.09710076451301575,0.7447660565376282
1725629493317711400,0.77071142578125,1.9933152198791504,0.04675600677728653,-0.5356943011283875
1725629493327664400,0.780664306640625,2.4872405529022217,1.2213622331619263,-2.2574756145477295
1725629493337618400,0.790618408203125,3.238543748855591,2.4811456203460693,-2.424100160598755
1725629493347571500,0.800571533203125,3.2234623432159424,2.791386604309082,-1.450472354888916
1725629493357524500,0.8105244140625,2.359325647354126,2.1184256076812744,-0.6886810064315796
1725629493367478300,0.820478271484375,1.9215909242630005,1.9353667497634888,-0.34794890880584717
1725629493377431300,0.830431396484375,1.9465091228485107,2.292362689971924,-0.3411424160003662
1725629493387384000,0.840384033203125,2.040816307067871,2.6205992698669434,-0.4371194839477539
1725629493397338400,0.85033837890625,2.1035189628601074,2.9911625385284424,-0.4768493175506592
1725629493407291100,0.860291015625,2.180812120437622,3.380382537841797,-0.5542335510253906
1725629493417244200,0.870244140625,2.186872959136963,3.5242421627044678,-0.4901169240474701
1725629493427198200,0.8801982421875,2.0691425800323486,3.396420478820801,-0.3230718970298767
1725629493437151200,0.890151123046875,1.9573053121566772,3.239537477493286,-0.1883668154478073
1725629493447104300,0.900104248046875,1.9453511238098145,3.241386651992798,-0.19068409502506256
1725629493457058300,0.910058349609375,2.018970012664795,3.3412134647369385,-0.2355692833662033
1725629493467011300,0.92001123046875,2.140076160430908,3.3639745712280273,-0.04380505159497261
1725629493476964400,0.92996435546875,2.101942539215088,3.1922335624694824,0.2704559564590454
1725629493486918100,0.939918212890625,2.068544387817383,3.064466953277588,0.6263043284416199
1725629493496871200,0.94987109375,2.16278338432312,3.075929641723633,0.8506817817687988
1725629493506824200,0.95982421875,2.3971476554870605,3.232891321182251,1.0521236658096313
1725629493516778200,0.9697783203125,2.4246907234191895,3.093491792678833,1.2380517721176147
1725629493526731300,0.979731201171875,2.155940055847168,2.776370048522949,1.328208565711975
1725629493536684300,0.989684326171875,1.9961892366409302,2.8290586471557617,1.1819648742675781
1725629493546638300,0.999638427734375,2.321718692779541,3.3925585746765137,1.9995462894439697
1725629493556591400,1.00959130859375,2.062607765197754,2.9000065326690674,2.359113931655884
1725629493566544400,1.01954443359375,1.3799898624420166,2.4229025840759277,1.611612319946289
1725629493576498200,1.029498291015625,0.8724600672721863,2.3928463459014893,0.8977816104888916
1725629493586451200,1.039451171875,0.6859022378921509,2.2633044719696045,0.8194634914398193
1725629493596404200,1.049404296875,0.45146602392196655,1.7625631093978882,1.0808154344558716
1725629493606358300,1.059358154296875,0.1392732709646225,1.1183865070343018,0.8997879028320312
1725629493616311300,1.069311279296875,-0.5687782168388367,0.21452727913856506,0.1917969137430191
1725629493626264300,1.079264404296875,-1.4112271070480347,-0.47162920236587524,-0.4060358703136444
1725629493636218400,1.08921826171875,-1.796964406967163,-0.5363256335258484,-0.4543003439903259
1725629493646171400,1.09917138671875,-1.6753028631210327,-0.32922908663749695,-0.2758280634880066
1725629493656124400,1.10912451171875,-1.3972278833389282,-0.17686353623867035,-0.0738627091050148
1725629493666078200,1.119078125,-1.2009583711624146,-0.5858101844787598,0.02397967502474785
1725629493676031200,1.12903125,-1.1739743947982788,-1.2237077951431274,0.0035449741408228874
1725629493685984300,1.138984375,-1.2187131643295288,-1.7314645051956177,-0.13285192847251892
1725629493695938300,1.148938232421875,-1.153037190437317,-1.566909670829773,-0.3787218928337097
1725629493705891300,1.158891357421875,-0.9422190189361572,-0.6246988773345947,-0.321748286485672
1725629493715844400,1.16884423828125,-0.7119439840316772,0.4098563492298126,-0.4294973909854889
1725629493725798400,1.17879833984375,-0.6608948707580566,0.8512258529663086,-0.5204968452453613
1725629493735751400,1.18875146484375,-0.6080068945884705,0.8916590213775635,-0.5884021520614624
1725629493745704200,1.1987041015625,-0.5989441871643066,0.918494701385498,-0.7143416404724121
1725629493755658500,1.208658447265625,-0.6590219140052795,0.3992829918861389,-1.0231420993804932
1725629493765611300,1.218611328125,-0.9458754658699036,-0.9661428332328796,-1.9128698110580444
1725629493775564300,1.228564208984375,-2.128751754760742,-2.514052391052246,-2.3171639442443848
1725629493785518000,1.23851806640625,-2.3636844158172607,-3.1466822624206543,-2.979675531387329
1725629493795471000,1.24847119140625,-1.9944878816604614,-2.5547749996185303,-2.730168581008911
1725629493805424000,1.258424072265625,-1.857029914855957,-2.180539131164551,-1.769730806350708
1725629493815378200,1.268378173828125,-1.504947304725647,-0.9974547624588013,-1.4822643995285034
1725629493825331200,1.278331298828125,-1.2459840774536133,1.0218400955200195,-1.8811087608337402
1725629493835284200,1.2882841796875,-1.1495811939239502,2.2908196449279785,-2.2277843952178955
1725629493845238300,1.29823828125,-1.0173234939575195,2.3743653297424316,-1.8786879777908325
1725629493855191300,1.30819140625,-1.0875201225280762,1.325438141822815,-1.0981106758117676
1725629493865144300,1.318144287109375,-1.2307872772216797,0.17439785599708557,-0.22182360291481018
1725629493875098000,1.32809814453125,-1.3047621250152588,-0.39949285984039307,0.24471932649612427
1725629493885051100,1.338051025390625,-1.1513500213623047,-0.3836367428302765,0.3241701126098633
1725629493895004200,1.348004150390625,-0.9491115212440491,-0.26181867718696594,0.12112671136856079
1725629493904958200,1.357958251953125,-0.699726402759552,-0.07557252794504166,-0.22850117087364197
1725629493914911200,1.3679111328125,-0.5315760374069214,-0.00847685243934393,-0.5639643669128418
1725629493924864300,1.3778642578125,-0.4882636070251465,-0.01717253588140011,-0.8163456320762634
1725629493934818300,1.387818359375,-0.5649315118789673,0.043991487473249435,-1.01631760597229
1725629493944771300,1.397771240234375,-0.6544408798217773,0.15991462767124176,-1.24447500705719
1725629493954724400,1.407724365234375,-0.695927619934082,0.21743518114089966,-1.3921661376953125
1725629493964678400,1.417678466796875,-0.7425828576087952,0.19813132286071777,-1.353289008140564
1725629493974631400,1.42763134765625,-0.733098566532135,0.26199471950531006,-1.212903618812561
1725629493984584400,1.43758447265625,-0.6850482225418091,0.4105999171733856,-0.9169540405273438
1725629493994538200,1.447538330078125,-0.6226130723953247,0.469931960105896,-0.534532368183136
1725629494004491300,1.4574912109375,-0.6221809983253479,0.3264099657535553,-0.2894178330898285
1725629494014444300,1.4674443359375,-0.62605220079422,0.07759614288806915,-0.1902656853199005
1725629494024398300,1.4773984375,-0.6219087839126587,-0.04366576671600342,-0.2418230175971985
1725629494034351400,1.487351318359375,-0.5985975861549377,-0.2757091224193573,-0.34475845098495483
1725629494044304400,1.497304443359375,-0.6107904314994812,-0.24761003255844116,-0.6246580481529236
1725629494054258400,1.507258544921875,-0.5815103054046631,-0.7915231585502625,-0.8756860494613647
1725629494064211500,1.51721142578125,-0.33039960265159607,-0.3264881670475006,-0.7522754669189453
1725629494074164500,1.52716455078125,-0.29454305768013,-0.1455085277557373,-1.528847336769104
1725629494084118300,1.5371181640625,0.032142993062734604,0.05460150167346001,-1.814382791519165
1725629494094071300,1.5470712890625,0.18810223042964935,0.11050605028867722,-2.3299548625946045
1725629494104024000,1.557024169921875,0.34227585792541504,0.4596944749355316,-3.011448621749878
1725629494113978400,1.566978271484375,0.0612921305000782,0.9105125069618225,-3.3035833835601807
1725629494123931100,1.57693115234375,-0.2101028561592102,0.8730324506759644,-3.102069616317749
1725629494133884200,1.58688427734375,-0.5496814846992493,0.6447612047195435,-2.6361546516418457
1725629494143838200,1.596838134765625,-0.7325526475906372,0.4036635756492615,-1.9661333560943604
1725629494153791200,1.606791259765625,-0.7873921990394592,0.38478466868400574,-1.364101767539978
1725629494163744300,1.616744140625,-0.8543548583984375,0.24450445175170898,-0.947499692440033
1725629494173698300,1.6266982421875,-0.8006386160850525,0.09782791882753372,-0.6196430325508118
1725629494183651300,1.6366513671875,-0.6739640235900879,0.17600682377815247,-0.37351569533348083
1725629494193604400,1.646604248046875,-0.49687659740448,0.19780640304088593,-0.22498826682567596
1725629494203558100,1.65655810546875,-0.4597272276878357,0.040441352874040604,-0.14061616361141205
1725629494213511200,1.66651123046875,-0.3396197259426117,0.13786138594150543,-0.18922178447246552
1725629494223464200,1.676464111328125,-0.13862977921962738,0.06558645516633987,-0.25361451506614685
1725629494233418200,1.686418212890625,-0.16560280323028564,0.09788820147514343,-0.3490012288093567
1725629494243371300,1.696371337890625,-0.36810892820358276,0.3585938513278961,-0.454087495803833
1725629494253324300,1.70632421875,-0.4191446602344513,0.5049031376838684,-0.33706045150756836
1725629494263278300,1.7162783203125,-0.5256380438804626,0.537099301815033,-0.3188896179199219
1725629494273231400,1.7262314453125,-0.6046247482299805,0.5566932559013367,-0.3240162134170532
1725629494283184400,1.736184326171875,-0.6133241653442383,0.4368817210197449,-0.22563917934894562
1725629494293138200,1.74613818359375,-0.34900254011154175,0.2304305136203766,-0.08170144259929657
1725629494303091200,1.75609130859375,0.044236116111278534,0.08683452755212784,-0.20236937701702118
1725629494313044200,1.766044189453125,0.23031118512153625,0.09821821004152298,-0.38329148292541504
1725629494322998300,1.775998291015625,0.22907118499279022,0.24941368401050568,-0.7101775407791138
1725629494332951300,1.785951416015625,0.11288891732692719,-0.04118645563721657,-0.7328804731369019
1725629494342904300,1.795904296875,0.04015478119254112,-0.2632734477519989,-0.6610299348831177
1725629494352858400,1.8058583984375,-0.17757035791873932,-0.28100770711898804,-0.6182219982147217
1725629494362811400,1.815811279296875,-0.33366259932518005,-0.17851679027080536,-0.6691542267799377
1725629494372764400,1.825764404296875,-0.48419883847236633,-0.057815153151750565,-0.6658146381378174
1725629494382718200,1.83571826171875,-0.6121225953102112,0.05173560231924057,-0.5393117666244507
1725629494392671200,1.845671142578125,-0.739450216293335,0.22860518097877502,-0.4886320233345032
1725629494402624300,1.855624267578125,-0.7610094547271729,0.2554611563682556,-0.39142414927482605
1725629494412578300,1.865578369140625,-0.9724258184432983,0.15569782257080078,-0.011662435717880726
1725629494422531300,1.87553125,-0.8649593591690063,-0.07722177356481552,0.31452101469039917
1725629494432484400,1.885484375,-0.6818238496780396,0.02441670186817646,0.37303492426872253
1725629494442438400,1.8954384765625,-0.7278422713279724,0.2483392059803009,0.37883809208869934
1725629494452391400,1.905391357421875,-0.650166928768158,0.41997969150543213,0.43874695897102356
1725629494462344400,1.915344482421875,-0.4607362449169159,0.5333315134048462,0.5570193529129028
1725629494472298500,1.925298583984375,-0.2379378080368042,0.541338324546814,0.4950180649757385
1725629494482251500,1.93525146484375,-0.13096323609352112,0.46804946660995483,0.4675838351249695
1725629494492204500,1.94520458984375,0.0441846027970314,0.31314322352409363,0.47682979702949524
1725629494502158300,1.955158447265625,0.29222604632377625,0.1445305496454239,0.394907146692276
1725629494512111400,1.965111328125,0.495177298784256,0.029801569879055023,0.4482569098472595
1725629494522064100,1.975064208984375,0.6393150091171265,0.15348772704601288,0.5686176419258118
1725629494532018400,1.985018310546875,0.7148619294166565,0.16987788677215576,0.6065077781677246
1725629494541971200,1.99497119140625,0.7428826689720154,0.18389327824115753,0.7156652808189392
1725629494551924200,2.00492431640625,0.9054228067398071,0.3649437725543976,0.7792258858680725
1725629494561878300,2.014878173828125,0.9302781224250793,0.24891255795955658,0.771607518196106
1725629494571831300,2.024831298828125,0.9092708230018616,0.05647946149110794,0.7870336174964905
1725629494581784300,2.034784423828125,0.7615402340888977,-0.018411923199892044,0.7137211561203003
1725629494591738000,2.044738037109375,0.5044093728065491,-0.043927669525146484,0.5687799453735352
1725629494601691100,2.054691162109375,0.17969393730163574,-0.05143527314066887,0.37320181727409363
1725629494611644200,2.06464404296875,-0.03442873805761337,-0.23419390618801117,0.20091499388217926
1725629494621598200,2.07459814453125,-0.16575844585895538,-0.33239543437957764,-0.0002484610304236412
1725629494631551200,2.08455126953125,-0.17521587014198303,-0.33115068078041077,-0.06899502873420715
1725629494641504300,2.094504150390625,-0.17652930319309235,-0.2758423686027527,-0.04485693201422691
1725629494651458300,2.104458251953125,-0.19154499471187592,-0.17685267329216003,0.049975037574768066
1725629494661411300,2.114411376953125,-0.22773922979831696,-0.0852995291352272,0.17424030601978302
1725629494671364400,2.1243642578125,-0.2927056849002838,-0.03948304057121277,0.2863207757472992
1725629494681318400,2.134318359375,-0.34433624148368835,-0.008388844318687916,0.3123154938220978
1725629494691271400,2.144271484375,-0.4765518009662628,-0.14393813908100128,0.28295761346817017
1725629494701224400,2.154224365234375,-0.7317930459976196,-0.3965277671813965,0.1963793784379959
1725629494711178200,2.16417822265625,-0.9493110179901123,-0.3364998400211334,0.30861592292785645
1725629494721131300,2.17413134765625,-1.3107408285140991,-0.21758997440338135,0.6675089597702026
1725629494731084300,2.184084228515625,-1.2191270589828491,0.0627727061510086,0.9121203422546387
1725629494741038300,2.194038330078125,-0.9997691512107849,0.22191452980041504,0.7765707969665527
1725629494750991400,2.203991455078125,-1.0793750286102295,0.2717689275741577,0.8131836652755737
1725629494760944400,2.2139443359375,-1.0210483074188232,0.35885974764823914,0.7722346782684326
1725629494770898400,2.2238984375,-0.9002558588981628,0.24078132212162018,0.609390914440155
1725629494780851500,2.2338515625,-0.8004727363586426,0.06133764609694481,0.42303666472435
1725629494790804500,2.243804443359375,-0.7013126015663147,0.07182757556438446,0.34276819229125977
1725629494800758300,2.25375830078125,-0.5934021472930908,0.13797280192375183,0.29265275597572327
1725629494810711300,2.263711181640625,-0.4931360185146332,0.1963927000761032,0.2812640070915222
1725629494820664300,2.273664306640625,-0.4312262237071991,0.1884111762046814,0.24375052750110626
1725629494830618400,2.283618408203125,-0.38627180457115173,0.2196577787399292,0.25151070952415466
1725629494840571400,2.2935712890625,-0.35167577862739563,0.22798451781272888,0.3436770439147949
1725629494850524400,2.3035244140625,-0.34353262186050415,0.2162620723247528,0.40810638666152954
1725629494860478500,2.313478515625,-0.3372807204723358,0.18669889867305756,0.44973844289779663
1725629494870431500,2.323431396484375,-0.3194391429424286,0.16909487545490265,0.4796057939529419
1725629494880384300,2.33338427734375,-0.29169994592666626,0.16696108877658844,0.48820915818214417
1725629494890338300,2.34333837890625,-0.26809024810791016,0.10197675973176956,0.45296621322631836
1725629494900291300,2.353291259765625,-0.23265774548053741,0.04725607857108116,0.3690985143184662
1725629494910244400,2.363244384765625,-0.1709594875574112,0.02131742425262928,0.33608919382095337
1725629494920198100,2.3731982421875,-0.1213926449418068,0.0014210277004167438,0.330441415309906
1725629494930151200,2.383151123046875,-0.07541822642087936,-0.021970314905047417,0.32411161065101624
1725629494940104200,2.393104248046875,-0.0536288321018219,-0.0872592180967331,0.3206125795841217
1725629494950058200,2.403058349609375,-0.03971514850854874,-0.1025652065873146,0.35756126046180725
1725629494960011300,2.41301123046875,-0.022401439025998116,-0.13093043863773346,0.3866351842880249
1725629494969964300,2.42296435546875,-0.014214349910616875,-0.14183183014392853,0.3939223885536194
1725629494979918300,2.43291845703125,0.0049972208216786385,-0.1547224074602127,0.37979719042778015
1725629494989871400,2.442871337890625,0.04717237502336502,-0.15424063801765442,0.33693069219589233
1725629494999824400,2.452824462890625,0.07359910011291504,-0.16401776671409607,0.3158530592918396
1725629495009778200,2.462778076171875,0.11016563326120377,-0.14977304637432098,0.28271934390068054
1725629495019731200,2.472731201171875,0.17818522453308105,-0.14692334830760956,0.20034021139144897
1725629495029684200,2.482684326171875,0.249622642993927,-0.09786392748355865,0.1641598343849182
1725629495039638300,2.49263818359375,0.3087606728076935,-0.10621301829814911,0.14478856325149536
1725629495049591300,2.50259130859375,0.36326441168785095,-0.03281629830598831,0.13156330585479736
1725629495059544300,2.51254443359375,0.42272478342056274,-0.008699936792254448,0.0942000150680542
1725629495069498400,2.522498291015625,0.4535822868347168,-0.037928398698568344,0.046994682401418686
1725629495079451400,2.532451416015625,0.46538737416267395,-0.06872282922267914,-0.027546850964426994
1725629495089404400,2.542404296875,0.4591688811779022,-0.11077440530061722,-0.1265203058719635
1725629495099358200,2.552358154296875,0.47513920068740845,-0.1271679550409317,-0.18788526952266693
1725629495109311200,2.562311279296875,0.5069605112075806,-0.10134781897068024,-0.2284287065267563
1725629495119264300,2.57226416015625,0.520871102809906,-0.04759427532553673,-0.2688186466693878
1725629495129218300,2.58221826171875,0.5065829753875732,-0.056912146508693695,-0.29536211490631104
1725629495139171300,2.59217138671875,0.4940966069698334,-0.08721553534269333,-0.35773545503616333
1725629495149124400,2.602124267578125,0.4988005459308624,-0.07279051840305328,-0.4001702666282654
1725629495159078400,2.612078369140625,0.48803701996803284,-0.1690831035375595,-0.48344120383262634
1725629495169031400,2.622031494140625,0.48670172691345215,-0.1823783963918686,-0.5307343602180481
1725629495178984400,2.631984375,0.47949355840682983,-0.16309526562690735,-0.5626175403594971
1725629495188938500,2.6419384765625,0.47610974311828613,-0.19313651323318481,-0.5754361152648926
1725629495198891500,2.6518916015625,0.4756471812725067,-0.21110299229621887,-0.5410031676292419
1725629495208844500,2.661844482421875,0.4885094463825226,-0.2019696831703186,-0.5099502205848694
1725629495218798300,2.67179833984375,0.5349577069282532,-0.2151404768228531,-0.46117380261421204
1725629495228751400,2.68175146484375,0.6065232753753662,-0.17226171493530273,-0.38754725456237793
1725629495238704000,2.6917041015625,0.6804541349411011,-0.20917443931102753,-0.30593717098236084
1725629495248658400,2.701658447265625,0.7513914108276367,-0.2811780571937561,-0.22968794405460358
1725629495258611200,2.711611083984375,0.8359292149543762,-0.28286319971084595,-0.1997932493686676
1725629495268564200,2.721564208984375,0.9072686433792114,-0.20796045660972595,-0.23269207775592804
1725629495278518300,2.731518310546875,0.9685431718826294,-0.1767454296350479,-0.25346919894218445
1725629495288471600,2.741471435546875,1.0483812093734741,-0.15684841573238373,-0.23932434618473053
1725629495298424600,2.751424560546875,1.1183831691741943,-0.12360907346010208,-0.26726287603378296
1725629495308378400,2.76137841796875,1.178123950958252,-0.10907567292451859,-0.3164655566215515
1725629495318331400,2.771331298828125,1.165320873260498,-0.08999864757061005,-0.4056777358055115
1725629495328284400,2.781284423828125,1.0900031328201294,-0.04643625393509865,-0.594445526599884
1725629495338238500,2.791238525390625,1.0432780981063843,0.02526777610182762,-0.6921460628509521
1725629495348191500,2.80119140625,0.9651659727096558,0.008846991695463657,-0.800137996673584
1725629495358144500,2.81114453125,0.9251569509506226,0.021746963262557983,-0.8311671614646912
1725629495368098600,2.8210986328125,0.8807548880577087,0.02317628264427185,-0.8523374795913696
1725629495378051600,2.831051513671875,0.8715270757675171,0.05817752331495285,-0.8037719130516052
1725629495388004600,2.841004638671875,0.857494592666626,0.07180092483758926,-0.745885968208313
1725629495397958400,2.85095849609375,0.8732410669326782,0.08675568550825119,-0.6461920738220215
1725629495407911400,2.860911376953125,0.8979160189628601,0.07234185934066772,-0.5783514976501465
1725629495417864400,2.870864501953125,0.9086581468582153,0.08109870553016663,-0.5523462295532227
1725629495427818500,2.880818603515625,0.9144547581672668,0.1242818608880043,-0.513020396232605
1725629495437771500,2.890771484375,0.9104325175285339,0.13235047459602356,-0.5268017649650574
1725629495447724500,2.900724609375,0.8855263590812683,0.10025245696306229,-0.5103969573974609
1725629495457678600,2.9106787109375,0.8709069490432739,0.1248512789607048,-0.4618310332298279
1725629495467631600,2.920631591796875,0.7042529582977295,0.4489246904850006,-0.386170893907547
1725629495477584600,2.930584716796875,0.7705631256103516,0.1366707682609558,-0.3771343529224396
1725629495487538700,2.94053857421875,0.611894428730011,-0.0327582061290741,-0.3673296570777893
1725629495497491700,2.95049169921875,0.5298373699188232,-0.008991295471787453,-0.36746254563331604
1725629495507444700,2.96044482421875,0.44497573375701904,-0.0615202821791172,-0.375387579202652
1725629495517398500,2.9703984375,0.40459349751472473,-0.11222147941589355,-0.3672035336494446
1725629495527351600,2.9803515625,0.34069734811782837,-0.19828632473945618,-0.3527047634124756
1725629495537304600,2.9903046875,0.19990657269954681,0.21946324408054352,-0.2929133176803589
1725629495547258600,3.000258544921875,0.44301748275756836,-0.26799672842025757,-0.3049587905406952
1725629495557211600,3.010211669921875,0.3658442497253418,-0.621771514415741,-0.2430746853351593
1725629495567164700,3.02016455078125,0.3732920289039612,-0.6982449889183044,-0.23382019996643066
1725629495577118700,3.03011865234375,0.3370220959186554,-0.7604255080223083,-0.2220645546913147
1725629495587071700,3.04007177734375,0.25421616435050964,-0.8180432915687561,-0.17527121305465698
1725629495597024800,3.050024658203125,0.1678008884191513,-0.8713325262069702,-0.13291920721530914
1725629495606978600,3.059978515625,0.07879671454429626,-0.9184337258338928,-0.09028653055429459
1725629495616931600,3.069931640625,-0.08203098177909851,-0.9753485918045044,-0.0540090836584568
1725629495626884400,3.07988427734375,-0.20566904544830322,-0.9589129090309143,-0.023652244359254837
1725629495636838700,3.089838623046875,-0.3023703396320343,-0.9123796820640564,0.0008760780328884721
1725629495646791400,3.09979150390625,-0.37786003947257996,-0.8622488379478455,0.03777124732732773
1725629495656744400,3.109744384765625,-0.413921058177948,-0.7283770442008972,0.10561619699001312
1725629495666697500,3.119697509765625,-0.4961959719657898,-0.6701957583427429,0.12056611478328705
1725629495676651500,3.129651611328125,-0.5562755465507507,-0.6337416768074036,0.15845143795013428
1725629495686604500,3.1396044921875,-0.6058183312416077,-0.6040034890174866,0.26432061195373535
1725629495696557600,3.1495576171875,-0.6196539998054504,-0.5696622729301453,0.40601345896720886
1725629495706511600,3.15951171875,-0.6147772073745728,-0.5397424697875977,0.5094881653785706
1725629495716464600,3.169464599609375,-0.5895875692367554,-0.48264819383621216,0.5157288908958435
1725629495726417700,3.179417724609375,-0.5467706322669983,-0.3766796886920929,0.4658036530017853
1725629495736371500,3.189371337890625,-0.5236808657646179,-0.21692712604999542,0.38889840245246887
1725629495746324500,3.199324462890625,-0.5249586701393127,-0.057477276772260666,0.3447900414466858
1725629495756277500,3.209277587890625,-0.5379382967948914,0.048563964664936066,0.38100937008857727
1725629495766231600,3.2192314453125,-0.5724925398826599,0.07265545427799225,0.3469448685646057
1725629495776184600,3.2291845703125,-0.5878915190696716,0.07193387299776077,0.19829468429088593
1725629495786138600,3.239138671875,-0.5297744274139404,0.09915990382432938,0.0740898996591568
1725629495796091600,3.249091552734375,-0.48950767517089844,0.11070248484611511,-0.03542027622461319
1725629495806044700,3.259044677734375,-0.4282541573047638,0.11543252319097519,-0.11404318362474442
1725629495815997700,3.268997802734375,-0.38186004757881165,0.07725413888692856,-0.13268963992595673
1725629495825951500,3.278951416015625,-0.31569433212280273,0.06134680658578873,-0.10490912944078445
1725629495835904500,3.288904541015625,-0.2335566282272339,0.030107708647847176,-0.04361030459403992
1725629495845857500,3.298857421875,-0.18059781193733215,0.007833561860024929,0.0379500649869442
1725629495855811600,3.3088115234375,-0.19759108126163483,-0.07029307633638382,0.12820754945278168
1725629495865764600,3.3187646484375,-0.21024669706821442,-0.05132337659597397,0.24265103042125702
1725629495875717600,3.328717529296875,-0.21412983536720276,0.010385314002633095,0.3138188421726227
1725629495885671700,3.338671630859375,-0.25204232335090637,0.10339168459177017,0.3378368318080902
1725629495895624700,3.348624755859375,-0.3012649714946747,0.16431406140327454,0.33704912662506104
1725629495905577700,3.35857763671875,-0.3340833783149719,0.2035413682460785,0.30984413623809814
1725629495915531500,3.368531494140625,-0.36060962080955505,0.2490861862897873,0.25701186060905457
1725629495925484500,3.378484619140625,-0.3840954899787903,0.23710915446281433,0.19371835887432098
1725629495935437600,3.3884375,-0.41079622507095337,0.19657735526561737,0.0881701335310936
1725629495945391600,3.3983916015625,-0.4329076409339905,0.1941900998353958,0.003119952743873
1725629495955344600,3.4083447265625,-0.4753839373588562,0.16700616478919983,-0.013318038545548916
1725629495965297400,3.41829736328125,-0.503271758556366,0.17667344212532043,0.03122626058757305
1725629495975251700,3.428251708984375,-0.4872644245624542,0.20420140027999878,0.08179172873497009
1725629495985204500,3.43820458984375,-0.46092337369918823,0.20807816088199615,0.12571071088314056
1725629495995157500,3.448157470703125,-0.4318184554576874,0.2071324735879898,0.15424233675003052
1725629496005111600,3.458111572265625,-0.4025101065635681,0.18467803299427032,0.17883796989917755
1725629496015064600,3.468064697265625,-0.36942148208618164,0.15209119021892548,0.19670456647872925
1725629496025017600,3.478017578125,-0.3579784035682678,0.11945708841085434,0.1889345347881317
1725629496034971400,3.487971435546875,-0.3509543836116791,0.12299752980470657,0.1618591547012329
1725629496044924400,3.49792431640625,-0.3421528935432434,0.1934455931186676,0.1391996592283249
1725629496054877400,3.50787744140625,-0.3315339684486389,0.31912583112716675,0.14523515105247498
1725629496064831500,3.51783154296875,-0.3312886953353882,0.44152870774269104,0.17654140293598175
1725629496074784500,3.527784423828125,-0.3172547519207001,0.6052890419960022,0.14301356673240662
1725629496084737500,3.537737548828125,-0.3323250412940979,0.6465502381324768,0.12264784425497055
1725629496094691600,3.547691650390625,-0.33836448192596436,0.65785813331604,0.10354062169790268
1725629496104644600,3.55764453125,-0.34469643235206604,0.6707659363746643,0.1173216849565506
1725629496114597600,3.56759765625,-0.347284197807312,0.6788337230682373,0.14354155957698822
1725629496124551400,3.577551513671875,-0.3488067090511322,0.7138513922691345,0.15983983874320984
1725629496134504400,3.58750439453125,-0.36440154910087585,0.7531855702400208,0.1518503725528717
1725629496144457500,3.59745751953125,-0.3703848719596863,0.8140723705291748,0.1503416895866394
1725629496154411500,3.60741162109375,-0.3642362058162689,0.8822417855262756,0.20596647262573242
1725629496164364500,3.617364501953125,-0.378836452960968,0.9258047342300415,0.2783921957015991
1725629496174317600,3.627317626953125,-0.3570902943611145,0.9275014400482178,0.3170892298221588
1725629496184271600,3.637271728515625,-0.30474853515625,0.8192279934883118,0.4022446274757385
1725629496194224600,3.647224609375,-0.3532452881336212,0.9891401529312134,0.34864363074302673
1725629496204177700,3.657177734375,-0.35032033920288086,0.9921873807907104,0.3293626010417938
1725629496214131700,3.667131591796875,-0.3674336075782776,0.9370916485786438,0.3021969199180603
1725629496224084700,3.677084716796875,-0.3781810402870178,0.8436676859855652,0.30205339193344116
1725629496234037800,3.687037841796875,-0.4220881760120392,0.7960978150367737,0.26937663555145264
1725629496243991600,3.696991455078125,-0.4523771107196808,0.6650679111480713,0.2785339057445526
1725629496253944600,3.706944580078125,-0.46967360377311707,0.6268051862716675,0.3275187313556671
1725629496263897600,3.716897705078125,-0.458994597196579,0.6290520429611206,0.4792254567146301
1725629496273851600,3.7268515625,-0.4218316972255707,0.65461266040802,0.6220449805259705
1725629496283804400,3.736804443359375,-0.4296046495437622,0.5587564706802368,0.6633793711662292
1725629496293757200,3.746757080078125,-0.40538591146469116,0.4117322862148285,0.643028736114502
1725629496303711500,3.75671142578125,-0.396361768245697,0.3927876353263855,0.7287865281105042
1725629496313664500,3.76666455078125,-0.39111486077308655,0.3067099452018738,0.6997056007385254
1725629496323617300,3.7766171875,-0.3771503269672394,0.3566378355026245,0.6328538656234741
1725629496333571300,3.7865712890625,-0.3206941783428192,0.3174593150615692,0.5526570677757263
1725629496343524000,3.796524169921875,-0.26880061626434326,0.2386273592710495,0.44777488708496094
1725629496353477000,3.80647705078125,-0.2154107689857483,0.17249998450279236,0.36807408928871155
1725629496363431200,3.81643115234375,-0.15386033058166504,0.11376901715993881,0.28234827518463135
1725629496373384200,3.82638427734375,-0.1038617193698883,0.05083583667874336,0.18629701435565948
1725629496383337200,3.836337158203125,-0.08122830837965012,0.009825288318097591,0.11952944099903107
1725629496393291300,3.846291259765625,-0.05579017847776413,-0.010383117012679577,0.04593793302774429
1725629496403244300,3.856244384765625,-0.044566817581653595,-0.02715517394244671,-0.04331551119685173
1725629496413197300,3.866197265625,0.06311479210853577,0.017480673268437386,-0.13240236043930054
1725629496423151400,3.8761513671875,0.1122618317604065,-0.04929942265152931,-0.20138223469257355
1725629496433104400,3.8861044921875,0.1626870036125183,-0.007320544216781855,-0.25476783514022827
1725629496443057400,3.896057373046875,0.20058058202266693,0.03326176851987839,-0.3250763714313507
1725629496453011200,3.90601123046875,0.23198671638965607,0.08407780528068542,-0.347843736410141
1725629496462964200,3.915964111328125,0.24389690160751343,0.06805489957332611,-0.39451563358306885
1725629496472917200,3.925917236328125,0.26205000281333923,0.10273941606283188,-0.43430066108703613
1725629496482871300,3.935871337890625,0.2865486741065979,0.14973515272140503,-0.44294583797454834
1725629496492824300,3.94582421875,0.29949086904525757,0.16128972172737122,-0.48440584540367126
1725629496502777300,3.95577734375,0.3487231433391571,0.20706279575824738,-0.5043315887451172
1725629496512731400,3.9657314453125,0.39930036664009094,0.22394901514053345,-0.4840940833091736
1725629496522684400,3.975684326171875,0.40862837433815,0.24899205565452576,-0.5295531749725342
1725629496532637400,3.985637451171875,0.43504148721694946,0.25943687558174133,-0.5542706251144409
1725629496542591200,3.99559130859375,0.4617660343647003,0.2408493310213089,-0.5648878812789917
1725629496552544300,4.005544189453125,0.46929875016212463,0.23162516951560974,-0.5821192860603333
1725629496562497300,4.015497314453125,0.4829882085323334,0.2045820951461792,-0.5782153606414795
1725629496572451300,4.025451416015625,0.49216127395629883,0.19843725860118866,-0.5851603150367737
1725629496582404400,4.035404296875,0.4886464476585388,0.1764880120754242,-0.587896466255188
1725629496592357400,4.045357421875,0.4962575435638428,0.17617036402225494,-0.5816258192062378
1725629496602311400,4.0553115234375,0.4993137717247009,0.14270374178886414,-0.5919287800788879
1725629496612264400,4.065264404296875,0.5080719590187073,0.1312909573316574,-0.5992631316184998
1725629496622217500,4.075217529296875,0.5193973183631897,0.11909234523773193,-0.5929982662200928
1725629496632171500,4.085171630859375,0.5259385108947754,0.08644425123929977,-0.5693002939224243
1725629496642124300,4.095124267578125,0.5247139930725098,0.07203788310289383,-0.5166189670562744
1725629496652077300,4.105077392578125,0.5014083385467529,0.05974813178181648,-0.4974212944507599
1725629496662031400,4.11503125,0.5102628469467163,0.03241664171218872,-0.4735250174999237
1725629496671984400,4.124984375,0.4963605999946594,-0.015645692124962807,-0.47510001063346863
1725629496681937200,4.134937255859375,0.4933757185935974,-0.016705097630620003,-0.4823667109012604
1725629496691891500,4.144891357421875,0.46327483654022217,-0.016833294183015823,-0.4920293986797333
1725629496701844200,4.15484423828125,0.41591212153434753,-0.011163423769176006,-0.4783668518066406
1725629496711797200,4.16479736328125,0.3875669538974762,-0.018858157098293304,-0.45964163541793823
1725629496721751300,4.174751220703125,0.3847631812095642,0.0016998485662043095,-0.4102431833744049
1725629496731704300,4.184704345703125,0.31674301624298096,-0.03511480987071991,-0.3609939217567444
1725629496741657300,4.1946572265625,0.2396271824836731,-0.03456886112689972,-0.3653375208377838
1725629496751611100,4.204611083984375,0.1517474502325058,-0.07322639226913452,-0.3927178680896759
1725629496761564200,4.214564208984375,0.06520431488752365,-0.14434318244457245,-0.40968194603919983
1725629496771517200,4.22451708984375,0.06658351421356201,-0.09166985005140305,-0.40341734886169434
1725629496781471200,4.23447119140625,-0.014225581660866737,-0.136702299118042,-0.392162024974823
1725629496791424300,4.24442431640625,-0.027413738891482353,-0.06517096608877182,-0.38362041115760803
1725629496801377300,4.254377197265625,-0.14965549111366272,0.15682189166545868,-0.3536316454410553
1725629496811331300,4.264331298828125,-0.03871646150946617,-0.1695660650730133,-0.34049320220947266
1725629496821284400,4.274284423828125,-0.1009710505604744,-0.1738090217113495,-0.29160475730895996
1725629496831237400,4.2842373046875,-0.11495816707611084,-0.1093095913529396,-0.19943022727966309
1725629496841191200,4.294191162109375,-0.20620737969875336,-0.0988239273428917,-0.242101788520813
1725629496851144200,4.304144287109375,-0.1257971078157425,-0.17349371314048767,-0.22972550988197327
1725629496861097200,4.31409716796875,-0.0503992885351181,-0.4083986282348633,-0.2016289085149765
1725629496871051300,4.32405126953125,-0.06154341995716095,-0.48183971643447876,-0.23997682332992554
1725629496881004300,4.33400439453125,-0.10959084331989288,-0.2693333029747009,-0.10052891820669174
1725629496890957300,4.343957275390625,-0.15018752217292786,-0.2718378007411957,-0.011689352802932262
1725629496900911400,4.353911376953125,-0.13349030911922455,-0.2745411694049835,0.09126126021146774
1725629496910864400,4.363864501953125,-0.15026330947875977,-0.35243216156959534,0.1581256240606308
1725629496920817400,4.3738173828125,-0.14977702498435974,-0.27831825613975525,0.2422919124364853
1725629496930771500,4.383771484375,-0.16009175777435303,-0.31453970074653625,0.27467381954193115
1725629496940724500,4.393724365234375,-0.1518993377685547,-0.30423858761787415,0.3072783648967743
1725629496950677500,4.403677490234375,-0.14347779750823975,-0.3175109624862671,0.34596070647239685
1725629496960631300,4.41363134765625,-0.14942942559719086,-0.3273633122444153,0.3626185357570648
1725629496970584300,4.423584228515625,-0.15565162897109985,-0.3038083612918854,0.3871746361255646
1725629496980537300,4.433537353515625,-0.17202287912368774,-0.3260931670665741,0.35685083270072937
1725629496990491400,4.443491455078125,-0.187373548746109,-0.3260989189147949,0.32854798436164856
1725629497000444400,4.4534443359375,-0.2148299366235733,-0.33464154601097107,0.26826468110084534
1725629497010397400,4.4633974609375,-0.2293522208929062,-0.3115287125110626,0.21207191050052643
1725629497020351500,4.4733515625,-0.233271062374115,-0.2904079556465149,0.18979483842849731
1725629497030304500,4.483304443359375,-0.23529362678527832,-0.30750736594200134,0.17140935361385345
1725629497040257300,4.49325732421875,-0.21358300745487213,-0.3122994601726532,0.18074586987495422
1725629497050211300,4.50321142578125,-0.2031499147415161,-0.3579847812652588,0.1823854297399521
1725629497060164000,4.5131640625,-0.20098742842674255,-0.39381149411201477,0.16513825953006744
1725629497070117000,4.5231171875,-0.20375372469425201,-0.40309858322143555,0.17041756212711334
1725629497080071200,4.5330712890625,-0.21508148312568665,-0.42949503660202026,0.14751490950584412
1725629497090024200,4.543024169921875,-0.21484138071537018,-0.43356385827064514,0.1339353770017624
1725629497099977200,4.552977294921875,-0.21570132672786713,-0.42298391461372375,0.1271997094154358
1725629497109931300,4.56293115234375,-0.22313424944877625,-0.41738733649253845,0.1291152983903885
1725629497119884300,4.57288427734375,-0.22847333550453186,-0.37487104535102844,0.17634886503219604
1725629497129837300,4.58283740234375,-0.25965189933776855,-0.3374468684196472,0.1963196098804474
1725629497139791400,4.592791259765625,-0.25198307633399963,-0.3169594407081604,0.18868538737297058
1725629497149744400,4.602744384765625,-0.28228986263275146,-0.31243690848350525,0.16906413435935974
1725629497159697400,4.612697509765625,-0.31258970499038696,-0.2867680490016937,0.15845969319343567
1725629497169651200,4.622651123046875,-0.34343335032463074,-0.27556902170181274,0.1525876373052597
1725629497179604200,4.632604248046875,-0.3747020661830902,-0.23626716434955597,0.20331792533397675
1725629497189557200,4.64255712890625,-0.4195396900177002,-0.1794816553592682,0.23720349371433258
1725629497199511300,4.65251123046875,-0.45100945234298706,-0.18930605053901672,0.22401845455169678
1725629497209464300,4.66246435546875,-0.5097934007644653,-0.16389213502407074,0.19435648620128632
1725629497219417300,4.672417236328125,-0.530517578125,-0.20834189653396606,0.24297969043254852
1725629497229371400,4.682371337890625,-0.6162397861480713,-0.043867386877536774,0.24048374593257904
1725629497239324400,4.692324462890625,-0.6671711206436157,0.0006481491145677865,0.28372922539711
1725629497249277400,4.70227734375,-0.7002450823783875,-0.07964330911636353,0.3240726590156555
1725629497259231200,4.712231201171875,-0.7434594035148621,-0.06927801668643951,0.39458945393562317
1725629497269184300,4.722184326171875,-0.7451789975166321,-0.09205363690853119,0.46562156081199646
1725629497279137300,4.73213720703125,-0.7221115231513977,-0.10305675119161606,0.5600324869155884
1725629497289090800,4.7420908203125,-0.7223222255706787,-0.09545392543077469,0.5803030729293823
1725629497299043800,4.7520439453125,-0.719460129737854,-0.06541107594966888,0.5829265713691711
1725629497308996900,4.761996826171875,-0.7237362861633301,-0.04354213550686836,0.609916090965271
1725629497318951000,4.771950927734375,-0.6968700289726257,-0.02270050346851349,0.623674213886261
1725629497328904000,4.781904052734375,-0.704364538192749,-0.08049426227807999,0.6082145571708679
1725629497338857000,4.79185693359375,-0.6923184990882874,0.05452960357069969,0.6840858459472656
1725629497348811000,4.80181103515625,-0.6775607466697693,0.08246645331382751,0.7040020823478699
1725629497358764000,4.811763916015625,-0.6815837025642395,0.054860394448041916,0.7172167301177979
1725629497368717000,4.821717041015625,-0.6644880771636963,0.05415013059973717,0.7363906502723694
1725629497378670800,4.8316708984375,-0.6730085611343384,0.04266764596104622,0.7242922186851501
1725629497388624000,4.841623779296875,-0.6618033051490784,0.049087993800640106,0.7236535549163818
1725629497398577000,4.851576904296875,-0.6429840922355652,0.11264060437679291,0.7767655253410339
1725629497408531000,4.861531005859375,-0.6400815844535828,0.17619897425174713,0.8075505495071411
1725629497418484000,4.87148388671875,-0.6015695929527283,0.18416501581668854,0.7888455390930176
1725629497428437000,4.88143701171875,-0.5767056941986084,0.17337124049663544,0.7440096735954285
1725629497438391000,4.89139111328125,-0.5753616094589233,0.15995316207408905,0.707956850528717
1725629497448344000,4.901343994140625,-0.5656313300132751,0.1051425188779831,0.6637319922447205
1725629497458297000,4.911297119140625,-0.5258074998855591,0.10278748720884323,0.643905520439148
1725629497468251000,4.9212509765625,-0.49713408946990967,0.12453415244817734,0.6313614249229431
1725629497478204000,4.931203857421875,-0.46008044481277466,0.1425808072090149,0.6197149157524109
1725629497488157000,4.941156982421875,-0.42701518535614014,0.11441260576248169,0.545910656452179
1725629497498111000,4.951111083984375,-0.38056647777557373,0.06494598835706711,0.46725764870643616
1725629497508064000,4.96106396484375,-0.33503851294517517,0.07361911982297897,0.3929691016674042
1725629497518017000,4.97101708984375,-0.29470571875572205,0.11818072944879532,0.34759363532066345
1725629497527971000,4.98097119140625,-0.26904940605163574,0.09030978381633759,0.2934970259666443
1725629497537924000,4.990924072265625,-0.23630423843860626,0.05214668810367584,0.26253247261047363
1725629497547876900,5.000876953125,-0.20065070688724518,0.015615676529705524,0.20020325481891632
1725629497557831200,5.0108310546875,-0.16104550659656525,-0.04430651292204857,0.17004801332950592
1725629497567784000,5.020783935546875,-0.11221849173307419,-0.0758654847741127,0.1621607542037964
1725629497577737000,5.030737060546875,-0.05799519643187523,-0.08860231935977936,0.15323783457279205
1725629497587690800,5.040690673828125,0.002640067134052515,-0.08994565159082413,0.1454956829547882
1725629497597643800,5.050643798828125,0.05685164034366608,-0.10904558002948761,0.1219855546951294
1725629497607596800,5.0605966796875,0.12175683677196503,-0.12651249766349792,0.08982308208942413
1725629497617550800,5.07055078125,0.20470097661018372,-0.14630058407783508,0.059684619307518005
1725629497627503900,5.08050390625,0.28029221296310425,-0.1957586258649826,0.011620553210377693
1725629497637457000,5.090456787109375,0.3498885929584503,-0.22440224885940552,-0.04556896537542343
1725629497647411000,5.100410888671875,0.429556667804718,-0.19669954478740692,-0.0944947823882103
1725629497657364000,5.110364013671875,0.48995423316955566,-0.16941972076892853,-0.13497962057590485
1725629497667317000,5.12031689453125,0.525857150554657,-0.1935773491859436,-0.18861322104930878
1725629497677270800,5.130270751953125,0.577634871006012,-0.23571202158927917,-0.23621375858783722
1725629497687223800,5.140223876953125,0.6131237149238586,-0.25449511408805847,-0.24800488352775574
1725629497697176800,5.1501767578125,0.6327410936355591,-0.27708083391189575,-0.30435711145401
1725629497707131000,5.160130859375,0.6723474264144897,-0.3226965069770813,-0.3683217167854309
1725629497717084000,5.170083984375,0.7292794585227966,-0.2674146294593811,-0.3700684905052185
1725629497727037000,5.180036865234375,0.7480235695838928,-0.241367369890213,-0.40906357765197754
1725629497736991000,5.189990966796875,0.7646270394325256,-0.2103668451309204,-0.43708428740501404
1725629497746944000,5.199944091796875,0.7796931862831116,-0.2172950655221939,-0.47433310747146606
1725629497756897000,5.20989697265625,0.777788519859314,-0.202267125248909,-0.504594624042511
1725629497766851000,5.21985107421875,0.7789314389228821,-0.18136097490787506,-0.5433775782585144
1725629497776804000,5.22980419921875,0.7917500138282776,-0.12153945118188858,-0.5409035086631775
1725629497786757000,5.239757080078125,0.805169939994812,-0.056163594126701355,-0.5327115654945374
1725629497796711000,5.2497109375,0.8058463335037231,-0.026546310633420944,-0.5558323264122009
1725629497806664000,5.259663818359375,0.835270345211029,0.01091783121228218,-0.5578832030296326
1725629497816617000,5.269616943359375,0.8677449226379395,0.06580398231744766,-0.5410158038139343
1725629497826571000,5.279571044921875,0.8726975321769714,0.10966990888118744,-0.5300878286361694
1725629497836524000,5.28952392578125,0.8973131775856018,0.17656025290489197,-0.5422707200050354
1725629497846477000,5.29947705078125,0.8895107507705688,0.22597503662109375,-0.5607746243476868
1725629497856431000,5.30943115234375,0.8824943900108337,0.29731231927871704,-0.5393242239952087
1725629497866384100,5.319384033203125,0.8568301200866699,0.32976049184799194,-0.5472820401191711
1725629497876337200,5.329337158203125,0.8660649061203003,0.3927746117115021,-0.466631144285202
1725629497886291000,5.339291015625,0.8395090699195862,0.39859285950660706,-0.4863690733909607
1725629497896244000,5.349243896484375,0.7957850098609924,0.4230947196483612,-0.5323522686958313
1725629497906196700,5.35919677734375,0.7624722719192505,0.5170527100563049,-0.5052189230918884
1725629497916151000,5.369151123046875,0.7008531093597412,0.5333637595176697,-0.51944500207901
1725629497926103800,5.379103759765625,0.6379426717758179,0.5278132557868958,-0.5059831142425537
1725629497936056800,5.389056884765625,0.6058484315872192,0.5324293375015259,-0.45953622460365295
1725629497946011000,5.399010986328125,0.5658921003341675,0.5119344592094421,-0.40782254934310913
1725629497955964000,5.4089638671875,0.49120378494262695,0.4465799331665039,-0.4030397832393646
1725629497965917000,5.4189169921875,0.4268001616001129,0.44461697340011597,-0.41304993629455566
1725629497975870700,5.42887060546875,0.37596839666366577,0.464457243680954,-0.38824713230133057
1725629497985823700,5.43882373046875,0.2942931354045868,0.4207848310470581,-0.3958953022956848
1725629497995776800,5.44877685546875,0.2598893344402313,0.38923966884613037,-0.38271212577819824
1725629498005730800,5.458730712890625,0.23436827957630157,0.3755088448524475,-0.27883532643318176
1725629498015683800,5.468683837890625,0.18073619902133942,0.310546875,-0.20989301800727844
1725629498025636900,5.478636962890625,0.18468500673770905,0.22244997322559357,-0.1886151283979416
1725629498035591000,5.4885908203125,0.15371644496917725,0.10835376381874084,-0.21323391795158386
1725629498045544000,5.4985439453125,0.09026321768760681,0.05578680336475372,-0.19782018661499023
1725629498055497000,5.5084970703125,0.016081402078270912,0.34327131509780884,-0.15956254303455353
1725629498065451000,5.518450927734375,0.14754313230514526,0.04333985596895218,-0.06058149039745331
1725629498075404000,5.528404052734375,0.10620580613613129,-0.04502915218472481,0.0017513922648504376
1725629498085357000,5.538357177734375,0.07029882818460464,-0.04795520007610321,0.0628998801112175
1725629498095310800,5.548310791015625,0.08522770553827286,-0.015892602503299713,0.14541766047477722
1725629498105263900,5.558263916015625,0.07580873370170593,-0.05164102837443352,0.16069401800632477
1725629498115217000,5.568216796875,0.0894680917263031,-0.08359017968177795,0.16240057349205017
1725629498125171000,5.5781708984375,0.06043090671300888,-0.1018337830901146,0.15835192799568176
1725629498135124000,5.5881240234375,0.0019154008477926254,-0.053648676723241806,0.18173927068710327
1725629498145077000,5.598076904296875,0.04623037949204445,-0.13754650950431824,0.11103169620037079
1725629498155031000,5.608031005859375,0.06019572541117668,-0.28543663024902344,0.17222633957862854
1725629498164984000,5.617984130859375,0.010372554883360863,-0.17385253310203552,0.22504828870296478
1725629498174937000,5.62793701171875,-0.016034550964832306,-0.20869094133377075,0.17614440619945526
1725629498184891000,5.637890869140625,-0.045273687690496445,-0.26880353689193726,0.12243764102458954
1725629498194844000,5.647843994140625,-0.07127253711223602,-0.2509608864784241,0.08490011841058731
1725629498204797000,5.657796875,-0.09176170825958252,-0.22466802597045898,0.06845464557409286
1725629498214751000,5.6677509765625,-0.11080224812030792,-0.24544253945350647,0.015565864741802216
1725629498224704000,5.6777041015625,-0.10624061524868011,-0.2199542373418808,0.024067513644695282
1725629498234657000,5.687656982421875,-0.10895543545484543,-0.2260424941778183,0.036546818912029266
1725629498244611000,5.697611083984375,-0.11054255813360214,-0.23041032254695892,0.012839443981647491
1725629498254564000,5.707564208984375,-0.09046552330255508,-0.19063176214694977,0.02443617954850197
1725629498264516900,5.717516845703125,-0.09556326270103455,-0.23743560910224915,-0.00392540218308568
1725629498274471200,5.72747119140625,-0.10171490162611008,-0.2578553855419159,-0.017976505681872368
1725629498284424000,5.737423828125,-0.12160427123308182,-0.30879727005958557,-0.041959889233112335
1725629498294377200,5.747377197265625,-0.14745157957077026,-0.3467326760292053,-0.04550082981586456
1725629498304331300,5.757331298828125,-0.17572182416915894,-0.32576292753219604,-0.016422979533672333
1725629498314284300,5.7672841796875,-0.2064909040927887,-0.2857033908367157,0.011815316043794155
1725629498324238300,5.77723828125,-0.21956400573253632,-0.2226984202861786,0.07781408727169037
1725629498334191400,5.78719140625,-0.2327149659395218,-0.1815086454153061,0.11021250486373901
1725629498344144400,5.797144287109375,-0.26220694184303284,-0.14886566996574402,0.09650545567274094
1725629498354098400,5.807098388671875,-0.26299870014190674,-0.10089335590600967,0.10418228060007095
1725629498364051500,5.817051513671875,-0.2829679846763611,-0.08621097356081009,0.09632004797458649
1725629498374004500,5.82700439453125,-0.2957945764064789,-0.07665582001209259,0.09740528464317322
1725629498383958300,5.836958251953125,-0.3103724420070648,-0.009300921112298965,0.08758694678544998
1725629498393911300,5.846911376953125,-0.3280811309814453,0.030045418068766594,0.07817719876766205
1725629498403864300,5.8568642578125,-0.3420017957687378,-0.03153587132692337,0.06663137674331665
1725629498413818400,5.866818359375,-0.39803099632263184,0.025015555322170258,0.08257758617401123
1725629498423771400,5.876771484375,-0.42937949299812317,0.030804216861724854,0.12823958694934845
1725629498433724200,5.88672412109375,-0.45161423087120056,0.06568363308906555,0.0920802429318428
1725629498443678500,5.896678466796875,-0.44955936074256897,-0.05009360611438751,0.13525792956352234
1725629498453631200,5.90663134765625,-0.5263795852661133,0.09107097238302231,0.11220639944076538
1725629498463584300,5.916584228515625,-0.5376976132392883,0.0948813185095787,0.10635761171579361
1725629498473538000,5.9265380859375,-0.5684975981712341,0.07745731621980667,0.1308608204126358
1725629498483491000,5.936490966796875,-0.5821143388748169,0.11977899819612503,0.13373731076717377
1725629498493444000,5.946444091796875,-0.5967095494270325,0.15205730497837067,0.1855725347995758
1725629498503398100,5.956398193359375,-0.6190474629402161,0.18143440783023834,0.17181767523288727
1725629498513351200,5.96635107421875,-0.6216493844985962,0.1375090330839157,0.18896736204624176
1725629498523305200,5.97630517578125,-0.6122229099273682,0.15309123694896698,0.26380062103271484
1725629498533258200,5.98625830078125,-0.6253392696380615,0.16906380653381348,0.27297574281692505
1725629498543211300,5.996211181640625,-0.6325765252113342,0.18640296161174774,0.28417250514030457
1725629498553165300,6.006165283203125,-0.6402997374534607,0.21589215099811554,0.3171064853668213
1725629498563118300,6.016118408203125,-0.6582143902778625,0.24350708723068237,0.3346710801124573
1725629498573071400,6.0260712890625,-0.7090269923210144,0.24736201763153076,0.3610667288303375
1725629498583025200,6.036025146484375,-0.6827712059020996,0.3312961161136627,0.3604513108730316
1725629498592978200,6.045978271484375,-0.6853041648864746,0.3254917562007904,0.3695225715637207
1725629498602931200,6.05593115234375,-0.6768892407417297,0.3434450924396515,0.41172051429748535
1725629498612885200,6.06588525390625,-0.6532571315765381,0.402805358171463,0.48230522871017456
1725629498622838300,6.07583837890625,-0.6306427717208862,0.39891910552978516,0.5211701393127441
1725629498632791300,6.085791259765625,-0.6334500312805176,0.39994627237319946,0.5574919581413269
1725629498642745300,6.095745361328125,-0.6339649558067322,0.3233635127544403,0.5181154608726501
1725629498652698400,6.105698486328125,-0.6191117167472839,0.2565152645111084,0.47853603959083557
1725629498662651400,6.1156513671875,-0.6019256711006165,0.2467842400074005,0.46474263072013855
1725629498672605200,6.125605224609375,-0.5719307661056519,0.21317194402217865,0.4401710033416748
1725629498682558200,6.13555810546875,-0.5424675941467285,0.16095849871635437,0.40298721194267273
1725629498692511200,6.14551123046875,-0.5137094259262085,0.1211216151714325,0.3749246895313263
1725629498702465300,6.15546533203125,-0.4598943889141083,0.09862318634986877,0.3631438910961151
1725629498712418300,6.165418212890625,-0.41163256764411926,0.0716450959444046,0.3080260455608368
1725629498722371300,6.175371337890625,-0.36060070991516113,0.03089156746864319,0.2271813452243805
1725629498732325400,6.185325439453125,-0.2933462858200073,-0.035067472606897354,0.1632463037967682
1725629498742278400,6.1952783203125,-0.2598628103733063,-0.006060041952878237,0.16336317360401154
1725629498752231400,6.2052314453125,-0.2486967146396637,-0.010355187579989433,0.10374271869659424
1725629498762185200,6.215185302734375,-0.22492539882659912,-0.04003931209445,0.10519989579916
1725629498772138200,6.22513818359375,-0.20499829947948456,-0.07747749984264374,0.08130654692649841
1725629498782091300,6.23509130859375,-0.15982745587825775,-0.1247444674372673,0.0807960033416748
1725629498792045300,6.24504541015625,-0.10001178830862045,-0.15377452969551086,0.09793504327535629
1725629498801998300,6.254998291015625,-0.030694209039211273,-0.167135551571846,0.12352470308542252
1725629498811951000,6.264951171875,0.03335721045732498,-0.23151454329490662,0.0785503089427948
1725629498821905400,6.274905517578125,0.12267808616161346,-0.22309064865112305,0.06857731193304062
1725629498831858200,6.284858154296875,0.20255586504936218,-0.19408854842185974,0.06313647329807281
1725629498841812500,6.2948125,0.2632378339767456,-0.22953645884990692,0.03027072735130787
1725629498851765500,6.304765625,0.3457851707935333,-0.2354997992515564,0.02114247716963291
1725629498861718300,6.31471826171875,0.42319974303245544,-0.23885111510753632,-0.00915081799030304
1725629498871672300,6.32467236328125,0.4815826416015625,-0.30757132172584534,-0.10071242600679398
1725629498881625000,6.334625,0.5269128084182739,-0.352827250957489,-0.1778283715248108
1725629498891578000,6.344578125,0.5752918124198914,-0.3191949725151062,-0.21821229159832
1725629498901532200,6.3545322265625,0.5954138040542603,-0.33323267102241516,-0.2821476459503174
1725629498911485200,6.364485107421875,0.6227357387542725,-0.2980981171131134,-0.2826440632343292
1725629498921438200,6.374438232421875,0.642406702041626,-0.2779075503349304,-0.30145373940467834
1725629498931392300,6.384392333984375,0.6377807855606079,-0.32559117674827576,-0.369322270154953
1725629498941345300,6.39434521484375,0.6520902514457703,-0.3548780381679535,-0.3980948030948639
1725629498951298300,6.40429833984375,0.6362433433532715,-0.3747132420539856,-0.42173221707344055
1725629498961252000,6.414252197265625,0.6509885191917419,-0.37393540143966675,-0.4491460621356964
1725629498971205000,6.424205078125,0.6535070538520813,-0.37834879755973816,-0.5224838852882385
1725629498981158100,6.434158203125,0.6713834404945374,-0.35643279552459717,-0.5554998517036438
1725629498991112200,6.4441123046875,0.6523261070251465,-0.329093337059021,-0.5820201635360718
1725629499001065200,6.454065185546875,0.6815275549888611,-0.2793847620487213,-0.5946243405342102
1725629499011018200,6.464018310546875,0.7098966240882874,-0.24435965716838837,-0.5941897034645081
1725629499020972300,6.47397216796875,0.7362121939659119,-0.19246649742126465,-0.5640603303909302
1725629499030925300,6.48392529296875,0.7340936660766602,-0.16634514927864075,-0.5748852491378784
1725629499040878300,6.49387841796875,0.7566375136375427,-0.13682246208190918,-0.5306552052497864
1725629499050832400,6.503832275390625,0.7971758842468262,-0.11051070690155029,-0.4522533416748047
1725629499060785400,6.513785400390625,0.7863427996635437,-0.08872474730014801,-0.45114049315452576
1725629499070738400,6.523738525390625,0.7505453824996948,-0.08129532635211945,-0.5027088522911072
1725629499080692200,6.533692138671875,0.7361120581626892,0.0019543804228305817,-0.4277927279472351
1725629499090645200,6.543645263671875,0.6886135339736938,0.014089340344071388,-0.4008311629295349
1725629499100598300,6.553598388671875,0.6790289878845215,0.08491518348455429,-0.29813462495803833
1725629499110552300,6.56355224609375,0.684298038482666,0.16756904125213623,-0.21952690184116364
1725629499120505300,6.57350537109375,0.6699854135513306,0.1898130178451538,-0.20835646986961365
1725629499130459400,6.58345947265625,0.6566084027290344,0.15841461718082428,-0.21387428045272827
1725629499140412400,6.593412353515625,0.634209156036377,0.16042158007621765,-0.19326971471309662
1725629499150365400,6.603365478515625,0.5969488620758057,0.1917446106672287,-0.15051984786987305
1725629499160319200,6.6133193359375,0.5224441289901733,0.15318003296852112,-0.17145812511444092
1725629499170272300,6.623272216796875,0.44709154963493347,0.19918027520179749,-0.16231682896614075
1725629499180225300,6.633225341796875,0.37527087330818176,0.264300674200058,-0.16929523646831512
1725629499190179300,6.643179443359375,0.29308998584747314,0.34773963689804077,-0.10890059918165207
1725629499200132400,6.65313232421875,0.23217031359672546,0.23790213465690613,-0.08510597050189972
1725629499210085400,6.66308544921875,0.09994035959243774,0.4912435710430145,-0.0658089742064476
1725629499220039400,6.673039306640625,0.12714220583438873,0.14316479861736298,-0.02304912358522415
1725629499229992400,6.682992431640625,0.07260999828577042,0.0951613038778305,0.00917991902679205
1725629499239945200,6.6929453125,0.04559009149670601,0.1553819179534912,0.024159487336874008
1725629499249899300,6.702899169921875,-0.036634739488363266,0.4949115216732025,0.058803752064704895
1725629499259852300,6.712852294921875,0.06837020814418793,0.11723355203866959,0.14065246284008026
1725629499269805300,6.722805419921875,0.07308667153120041,0.09992380440235138,0.19243204593658447
1725629499279759000,6.732759033203125,0.054588112980127335,0.10933052748441696,0.2174903303384781
1725629499289712400,6.74271240234375,0.10043895989656448,0.0404321551322937,0.16014635562896729
1725629499299665400,6.75266552734375,0.05627913400530815,0.053204819560050964,0.2189958095550537
1725629499309619500,6.762619384765625,-0.016923172399401665,0.32975146174430847,0.17736367881298065
1725629499319572500,6.772572509765625,0.005669901147484779,0.05950872227549553,0.2299671173095703
1725629499329525500,6.782525390625,-0.01069043017923832,0.05794145166873932,0.24870377779006958
1725629499339479600,6.7924794921875,-0.03520680591464043,0.10701841861009598,0.292030394077301
1725629499349432600,6.8024326171875,-0.058791495859622955,0.12983186542987823,0.34655117988586426
1725629499359385600,6.812385498046875,-0.07564090937376022,0.07858259230852127,0.30744102597236633
1725629499369339400,6.82233935546875,-0.08250334113836288,0.023810692131519318,0.254374623298645
1725629499379292400,6.83229248046875,-0.0898454338312149,-0.05050696060061455,0.19595004618167877
1725629499389245400,6.842245361328125,-0.0973675400018692,-0.08675551414489746,0.11728080362081528
1725629499399199500,6.852199462890625,-0.08706705272197723,-0.09815812110900879,0.04029737785458565
1725629499409152500,6.862152587890625,-0.06103279069066048,-0.1590811312198639,-0.013013248331844807
1725629499419105500,6.87210546875,-0.05929185822606087,-0.10568872839212418,0.015724247321486473
1725629499429059600,6.8820595703125,-0.05264194682240486,-0.1392381638288498,-0.0037493191193789244
1725629499439012600,6.8920126953125,-0.039116017520427704,-0.21763309836387634,-0.023568831384181976
1725629499448966400,6.90196630859375,-0.044123027473688126,-0.28131434321403503,-0.058345720171928406
1725629499458919400,6.91191943359375,-0.05152350291609764,-0.30980923771858215,-0.07874555140733719
1725629499468872400,6.92187255859375,-0.059973180294036865,-0.3347156345844269,-0.0464901439845562
1725629499478826500,6.931826416015625,-0.07788261771202087,-0.36036911606788635,-0.03072800673544407
1725629499488779500,6.941779541015625,-0.08810942620038986,-0.3460546135902405,-0.008160912431776524
1725629499498732500,6.951732666015625,-0.11713004112243652,-0.3080017566680908,0.035094499588012695
1725629499508686600,6.9616865234375,-0.13709042966365814,-0.28224390745162964,0.046220920979976654
1725629499518639600,6.9716396484375,-0.15428218245506287,-0.2899281680583954,0.059197861701250076
1725629499528592600,6.981592529296875,-0.18295057117938995,-0.23967990279197693,0.108997642993927
1725629499538546700,6.991546630859375,-0.19979321956634521,-0.18222609162330627,0.13320423662662506
1725629499548499700,7.001499755859375,-0.23634563386440277,-0.159496009349823,0.10426179319620132
1725629499558452500,7.011452392578125,-0.24257704615592957,-0.13020972907543182,0.12420230358839035
1725629499568406500,7.021406494140625,-0.2496378868818283,-0.1759316772222519,0.1403282731771469
1725629499578359600,7.031359619140625,-0.2660536468029022,-0.05340876057744026,0.10022079199552536
1725629499588312600,7.0413125,-0.25504547357559204,-0.14510564506053925,0.12441295385360718
1725629499598266600,7.0512666015625,-0.3362726867198944,0.004708872176706791,0.12250639498233795
1725629499608219600,7.0612197265625,-0.3807746469974518,-0.03298923745751381,0.12374316900968552
1725629499618172700,7.071172607421875,-0.4258633553981781,-0.09406942874193192,0.19254086911678314
1725629499628126700,7.081126708984375,-0.47480612993240356,0.054067037999629974,0.2017918825149536
1725629499638079700,7.091079833984375,-0.5047393441200256,0.046719253063201904,0.24038851261138916
1725629499648032500,7.101032470703125,-0.4787750840187073,-0.15184816718101501,0.307086318731308
1725629499657986600,7.110986572265625,-0.5458319187164307,0.07059251517057419,0.3134078085422516
1725629499667939300,7.120939208984375,-0.5742355585098267,0.05935104936361313,0.3047410845756531
1725629499677892400,7.130892333984375,-0.5413955450057983,-0.11153871566057205,0.38872650265693665
1725629499687846400,7.140846435546875,-0.616514265537262,0.16038121283054352,0.4065728783607483
1725629499697799400,7.15079931640625,-0.640781819820404,0.17588379979133606,0.4175582826137543
1725629499707752400,7.16075244140625,-0.6511756181716919,0.16718697547912598,0.4596857726573944
1725629499717706500,7.17070654296875,-0.6570436954498291,0.1624867469072342,0.47996073961257935
1725629499727659500,7.180659423828125,-0.6928669810295105,0.1452678143978119,0.4323878884315491
1725629499737613300,7.19061328125,-0.7000932097434998,0.16582641005516052,0.5107935070991516
1725629499747566300,7.20056640625,-0.7185097932815552,0.267931193113327,0.484497994184494
1725629499757519400,7.210519287109375,-0.7360079288482666,0.25194022059440613,0.4694387912750244
1725629499767473400,7.220473388671875,-0.7321985960006714,0.23694102466106415,0.4777523875236511
1725629499777426400,7.230426513671875,-0.729489266872406,0.2651217579841614,0.5064244866371155
1725629499787379500,7.24037939453125,-0.7163814306259155,0.2765890657901764,0.49728158116340637
1725629499797333500,7.25033349609375,-0.7201931476593018,0.2582150995731354,0.4556458294391632
1725629499807286500,7.26028662109375,-0.7148497700691223,0.294405072927475,0.4537408649921417
1725629499817239600,7.270239501953125,-0.7039679288864136,0.3254142701625824,0.4304191470146179
1725629499827193600,7.280193603515625,-0.697198748588562,0.3033057749271393,0.37201815843582153
1725629499837146600,7.290146728515625,-0.697727382183075,0.28885146975517273,0.3476848602294922
1725629499847099600,7.300099609375,-0.6447190046310425,0.29322385787963867,0.3413372039794922
1725629499857053400,7.310053466796875,-0.6138041019439697,0.27623996138572693,0.3054012060165405
1725629499867006500,7.32000634765625,-0.5489052534103394,0.2801494896411896,0.2807981073856354
1725629499876959500,7.32995947265625,-0.4865257740020752,0.28083086013793945,0.22992515563964844
1725629499886913500,7.33991357421875,-0.43878862261772156,0.27448055148124695,0.15218721330165863
1725629499896866600,7.349866455078125,-0.3847177028656006,0.24431617558002472,0.0990600734949112
1725629499906819600,7.359819580078125,-0.33850494027137756,0.26539698243141174,0.09164156764745712
1725629499916773600,7.369773681640625,-0.31117162108421326,0.32488909363746643,0.10319707542657852
1725629499926726700,7.3797265625,-0.28228139877319336,0.3434838354587555,0.09675728529691696
1725629499936679700,7.3896796875,-0.26884546875953674,0.2691350281238556,0.015662699937820435
1725629499946633500,7.399633544921875,-0.20609048008918762,0.21151860058307648,-0.04923214390873909
1725629499956586500,7.40958642578125,-0.11968338489532471,0.16523398458957672,-0.07616601139307022
1725629499966539500,7.41953955078125,-0.04250763729214668,0.14389914274215698,-0.12087222933769226
1725629499976493600,7.42949365234375,0.051076360046863556,0.12388506531715393,-0.16678588092327118
1725629499986446600,7.439446533203125,0.12991419434547424,0.10366208106279373,-0.21898676455020905
1725629499996399600,7.449399658203125,0.19117344915866852,0.10573401302099228,-0.284950315952301
1725629500006353700,7.459353759765625,0.2387004941701889,0.07194861769676208,-0.3701528012752533
1725629500016306700,7.469306640625,0.29142072796821594,0.03008181042969227,-0.4226363003253937
1725629500026259500,7.479259521484375,0.33528298139572144,-0.02160615101456642,-0.47171807289123535
1725629500036213800,7.4892138671875,0.37392377853393555,-0.04582284018397331,-0.5134249329566956
1725629500046166500,7.49916650390625,0.4136781096458435,-0.06104493513703346,-0.5376167893409729
1725629500056120600,7.50912060546875,0.43890076875686646,-0.07312574982643127,-0.5619503855705261
1725629500066073300,7.5190732421875,0.4785112738609314,-0.035221781581640244,-0.5537340044975281
1725629500076026400,7.5290263671875,0.4980528652667999,-0.019223090261220932,-0.5613692998886108
1725629500085980400,7.53898046875,0.497221440076828,-0.06140090152621269,-0.6036123633384705
1725629500095933400,7.548933349609375,0.5175067782402039,-0.0976087898015976,-0.6219991445541382
1725629500105886500,7.558886474609375,0.528984785079956,-0.10884173959493637,-0.6336579322814941
1725629500115840500,7.568840576171875,0.54417484998703,-0.08750450611114502,-0.6414156556129456
1725629500125793500,7.57879345703125,0.5583844184875488,-0.08311108499765396,-0.6583770513534546
1725629500135746600,7.58874658203125,0.5693607330322266,-0.042549293488264084,-0.6586276888847351
1725629500145700400,7.598700439453125,0.5784783363342285,-0.05660785362124443,-0.6981329917907715
1725629500155653400,7.6086533203125,0.607292890548706,-0.050478387624025345,-0.6958991289138794
1725629500165606400,7.6186064453125,0.6373914480209351,-0.0006040373118594289,-0.6701090931892395
1725629500175560400,7.628560546875,0.6162747740745544,-0.02245217375457287,-0.697981059551239
1725629500185513500,7.638513427734375,0.6165629029273987,-0.0358758382499218,-0.6873313188552856
1725629500195466500,7.648466552734375,0.6613321304321289,0.03701921924948692,-0.5401996970176697
1725629500205420500,7.658420654296875,0.7013482451438904,0.08394970744848251,-0.41659361124038696
1725629500215373600,7.66837353515625,0.684097170829773,0.08139708638191223,-0.4269578754901886
1725629500225326600,7.67832666015625,0.591744065284729,0.08666215091943741,-0.5948270559310913
1725629500235280600,7.68828076171875,0.5150253772735596,0.21350222826004028,-0.6145482063293457
1725629500245233400,7.6982333984375,0.4195624589920044,0.274486780166626,-0.5755779147148132
1725629500255186400,7.7081865234375,0.3527708053588867,0.27019453048706055,-0.5893210172653198
1725629500265140500,7.718140380859375,0.355438768863678,0.39617669582366943,-0.45559167861938477
1725629500275093500,7.728093505859375,0.37661290168762207,0.41751763224601746,-0.33382245898246765
1725629500285046500,7.738046630859375,0.392081618309021,0.3722385764122009,-0.24829450249671936
1725629500295000800,7.748000732421875,0.3682648539543152,0.27433261275291443,-0.2512505054473877
1725629500304953600,7.75795361328125,0.36203330755233765,0.25121450424194336,-0.25251683592796326
1725629500314906600,7.76790673828125,0.31549426913261414,0.25390300154685974,-0.2458101511001587
1725629500324861000,7.77786083984375,0.2654409408569336,0.27986347675323486,-0.2225618213415146
1725629500334813700,7.787813720703125,0.24920766055583954,0.33822017908096313,-0.1475486159324646
1725629500344767700,7.797767822265625,0.11970213800668716,0.48848477005958557,-0.0866682305932045
1725629500354720500,7.807720458984375,0.20551800727844238,0.16814863681793213,-0.038472726941108704
1725629500364673500,7.817673583984375,0.19089938700199127,0.089127317070961,0.013069028034806252
1725629500374627600,7.827627685546875,0.1606271117925644,0.11024535447359085,-0.0017598047852516174
1725629500384580600,7.83758056640625,-0.004514163825660944,0.336355984210968,0.009996186941862106
1725629500394533600,7.84753369140625,0.06209782510995865,0.0926436111330986,0.039067625999450684
1725629500404487700,7.85748779296875,0.040341395884752274,0.06331980973482132,0.11332427710294724
1725629500414440700,7.867440673828125,-0.11841638386249542,0.2481471747159958,0.13675187528133392
1725629500424393700,7.877393798828125,0.02256123535335064,-0.023377012461423874,0.06393440067768097
1725629500434347500,7.887347412109375,0.03815807029604912,-0.18660327792167664,0.17069502174854279
1725629500444300500,7.897300537109375,0.04528149217367172,-0.17433568835258484,0.1918189525604248
1725629500454253600,7.907253662109375,0.034907884895801544,-0.16662780940532684,0.1933109611272812
1725629500464207600,7.91720751953125,0.037620581686496735,-0.1746404618024826,0.1893891841173172
1725629500474160600,7.92716064453125,0.04007282853126526,-0.2529641389846802,0.18522047996520996
1725629500484113700,7.93711376953125,-0.09004895389080048,-0.1248122975230217,0.19984070956707
1725629500494067700,7.947067626953125,0.02651004120707512,-0.3769136667251587,0.23161527514457703
1725629500504020700,7.957020751953125,0.005257748067378998,-0.47372329235076904,0.21112917363643646
1725629500513973800,7.966973876953125,-0.0031489518005400896,-0.5438454151153564,0.1319330930709839
1725629500523927800,7.976927734375,-0.004881071858108044,-0.6439866423606873,0.050799086689949036
1725629500533880800,7.986880859375,0.011572064831852913,-0.6624504327774048,0.007047639694064856
1725629500543833900,7.996833740234375,0.006702742073684931,-0.6466874480247498,-0.011332432739436626
1725629500553787600,8.00678759765625,0.006065500434488058,-0.5896545648574829,0.005286976229399443
1725629500563740700,8.01674072265625,0.021572021767497063,-0.5130321979522705,0.052437976002693176
1725629500573693700,8.026693603515625,0.042721621692180634,-0.46838685870170593,0.0913519635796547
1725629500583647700,8.036647705078124,0.08040907979011536,-0.4408005177974701,0.14308226108551025
1725629500593600800,8.046600830078125,0.094645194709301,-0.4507684111595154,0.1723008006811142
1725629500603553800,8.0565537109375,0.08429189026355743,-0.5065382122993469,0.14882396161556244
1725629500613507800,8.0665078125,0.059194400906562805,-0.5504730939865112,0.08810573071241379
1725629500623460900,8.0764609375,0.01287004817277193,-0.5775574445724487,0.013805135153234005
1725629500633414000,8.086413818359375,-0.0060206810012459755,-0.4917372465133667,0.024647101759910583
1725629500643367700,8.09636767578125,-0.05252533033490181,-0.3868984580039978,0.05187525972723961
1725629500653320700,8.10632080078125,-0.10099833458662033,-0.34698930382728577,0.04377105459570885
1725629500663274800,8.116274658203125,-0.09456147998571396,-0.4471438527107239,0.09556766599416733
1725629500673227800,8.126227783203126,-0.128733292222023,-0.3947361409664154,0.06464831531047821
1725629500683180800,8.136180908203125,-0.10290674865245819,-0.5838456153869629,0.2086520791053772
1725629500693134800,8.146134765625,-0.17915229499340057,-0.2618020176887512,0.11120227724313736
1725629500703087900,8.156087890625,-0.2072286754846573,-0.21806040406227112,0.15335293114185333
1725629500713040600,8.16604052734375,-0.1847878247499466,-0.28309229016304016,0.21912959218025208
1725629500722994700,8.17599462890625,-0.25391337275505066,-0.16969434916973114,0.19917559623718262
1725629500732947700,8.18594775390625,-0.24423745274543762,-0.10561824589967728,0.1602543294429779
1725629500742900700,8.195900634765625,-0.1774672120809555,-0.2846950590610504,0.20661063492298126
1725629500752854500,8.2058544921875,-0.26539304852485657,-0.13618265092372894,0.17555466294288635
1725629500762807600,8.2158076171875,-0.26874810457229614,-0.07413899153470993,0.1790332794189453
1725629500772760600,8.225760498046874,-0.30525538325309753,-0.060034289956092834,0.2053944319486618
1725629500782714600,8.235714599609375,-0.3392855226993561,-0.10086534172296524,0.2841917872428894
1725629500792667600,8.245667724609374,-0.3647591471672058,-0.005583079997450113,0.30884408950805664
1725629500802620700,8.25562060546875,-0.41193917393684387,0.026382574811577797,0.38555219769477844
1725629500812574700,8.26557470703125,-0.46709388494491577,-0.002438581781461835,0.42284438014030457
1725629500822527700,8.27552783203125,-0.5304299592971802,-0.01070636510848999,0.534631073474884
1725629500832480800,8.285480712890624,-0.6214776635169983,0.027199598029255867,0.6155694723129272
1725629500842434600,8.2954345703125,-0.6946754455566406,-0.050136998295784,0.6184661984443665
1725629500852387600,8.3053876953125,-0.74165940284729,-0.11180698871612549,0.6512464880943298
1725629500862340600,8.315340576171875,-0.8000431060791016,-0.10814034938812256,0.6749904751777649
1725629500872294700,8.325294677734375,-0.836900532245636,-0.07954607158899307,0.631636917591095
1725629500882247700,8.33524755859375,-0.8757994174957275,-0.0881587415933609,0.5462964773178101
1725629500892200700,8.34520068359375,-0.8748511672019958,-0.044785406440496445,0.5297191739082336
1725629500902154800,8.35515478515625,-0.8671842217445374,0.07986891269683838,0.5230532884597778
1725629500912107800,8.365107666015625,-0.8815934658050537,0.1455792784690857,0.4845358729362488
1725629500922060800,8.375060791015626,-0.8693311810493469,0.14918839931488037,0.4665776491165161
1725629500932014600,8.3850146484375,-0.8484288454055786,0.139857217669487,0.4521161615848541
1725629500941967600,8.394967529296874,-0.8339404463768005,0.10815867781639099,0.4591729938983917
1725629500951920600,8.404920654296875,-0.8290074467658997,0.16791369020938873,0.4157339036464691
1725629500961874700,8.414874755859374,-0.8203354477882385,0.1560775339603424,0.4028322398662567
1725629500971827700,8.42482763671875,-0.8051623106002808,0.1345859318971634,0.389946311712265
1725629500981780700,8.43478076171875,-0.7733255624771118,0.12503796815872192,0.38640138506889343
1725629500991734800,8.44473486328125,-0.7283757328987122,0.13317137956619263,0.3936450183391571
1725629501001687800,8.454687744140625,-0.6723612546920776,0.156752347946167,0.4104408025741577
1725629501011640800,8.464640869140625,-0.6095415353775024,0.16947932541370392,0.40313851833343506
1725629501021595000,8.474594970703125,-0.5749358534812927,0.13896936178207397,0.3647865951061249
1725629501031548000,8.4845478515625,-0.519654393196106,0.14936396479606628,0.33600685000419617
1725629501041501000,8.4945009765625,-0.45269453525543213,0.143497034907341,0.3015165328979492
1725629501051454700,8.504454833984376,-0.37877094745635986,0.08255524933338165,0.23102892935276031
1725629501061407700,8.51440771484375,-0.28204280138015747,0.07661080360412598,0.19976848363876343
1725629501071361800,8.52436181640625,-0.19744905829429626,0.11446875333786011,0.1724776178598404
1725629501081314800,8.534314697265625,-0.15174415707588196,0.09397093206644058,0.10310493409633636
1725629501091267600,8.544267578125,-0.07170038670301437,0.057865507900714874,0.04751879349350929
1725629501101222000,8.554221923828125,0.00801121536642313,0.010669765993952751,-0.007485867943614721
1725629501111174700,8.564174560546874,0.08978454768657684,-0.025627538561820984,-0.08161145448684692
1725629501121127700,8.574127685546875,0.15293128788471222,-0.05278751999139786,-0.15327313542366028
1725629501131081500,8.58408154296875,0.2234865427017212,-0.03547652065753937,-0.20541593432426453
1725629501141034500,8.594034423828125,0.2804954946041107,-0.006950602866709232,-0.24618759751319885
1725629501150987500,8.603987548828124,0.3304498493671417,-0.012518031522631645,-0.2998104393482208
1725629501160941600,8.613941650390625,0.36358678340911865,-0.05262550339102745,-0.36194971203804016
1725629501170894600,8.62389453125,0.40680402517318726,-0.05769337713718414,-0.4121415615081787
1725629501180847600,8.63384765625,0.4305381178855896,-0.08536814898252487,-0.4739740490913391
1725629501190801700,8.6438017578125,0.4482091963291168,-0.0705844834446907,-0.4897334575653076
1725629501200754700,8.653754638671876,0.4632589817047119,-0.06279127299785614,-0.49333885312080383
1725629501210707700,8.663707763671875,0.4926449954509735,-0.08576536923646927,-0.501705527305603
1725629501220661800,8.673661865234376,0.5117547512054443,-0.1350274533033371,-0.5192674994468689
1725629501230614800,8.68361474609375,0.5289595127105713,-0.17483140528202057,-0.5397374629974365
1725629501240567800,8.69356787109375,0.5464338064193726,-0.20406146347522736,-0.5769692659378052
1725629501250521600,8.703521484375,0.573605477809906,-0.23322714865207672,-0.6010286211967468
1725629501260474600,8.713474609375,0.5938130021095276,-0.21888522803783417,-0.6217895746231079
1725629501270427600,8.723427734375,0.6198003888130188,-0.17285577952861786,-0.6375422477722168
1725629501280381700,8.733381591796874,0.6390896439552307,-0.10811033844947815,-0.6307043433189392
1725629501290334700,8.743334716796875,0.6405552625656128,-0.07577326148748398,-0.6428529620170593
1725629501300287700,8.753287841796874,0.6876175999641418,-0.05762435495853424,-0.6313981413841248
1725629501310241800,8.76324169921875,0.7095043063163757,-0.01715170033276081,-0.6391793489456177
1725629501320194800,8.77319482421875,0.7151086330413818,0.0008954774821177125,-0.6662110090255737
1725629501330147800,8.78314794921875,0.7277881503105164,0.030996529385447502,-0.6729027032852173
1725629501340101600,8.7931015625,0.7340226173400879,0.08133400231599808,-0.6433581113815308
1725629501350054700,8.8030546875,0.7505305409431458,0.13086071610450745,-0.6028788089752197
1725629501360007700,8.813007568359374,0.7635416388511658,0.18088074028491974,-0.5421227812767029
1725629501369961700,8.822961669921876,0.7862790822982788,0.25584080815315247,-0.46877697110176086
1725629501379914800,8.832914794921875,0.7738695740699768,0.28151848912239075,-0.4194672107696533
1725629501389867500,8.842867431640625,0.7354968190193176,0.2759062945842743,-0.40969640016555786
1725629501399821800,8.85282177734375,0.6921312212944031,0.30293282866477966,-0.3754923641681671
1725629501409774600,8.862774658203126,0.610504686832428,0.30759647488594055,-0.3650347590446472
1725629501419727600,8.8727275390625,0.5379239320755005,0.32508227229118347,-0.32013386487960815
1725629501429681700,8.882681640625,0.47951844334602356,0.33837512135505676,-0.24921244382858276
1725629501439634700,8.892634765625,0.39596283435821533,0.3013680875301361,-0.22910051047801971
1725629501449588500,8.90258837890625,0.37250036001205444,0.3203110694885254,-0.193736732006073
1725629501459541500,8.91254150390625,0.3718329668045044,0.3325786590576172,-0.18068617582321167
1725629501469494500,8.92249462890625,0.3204271197319031,0.29085829854011536,-0.17480222880840302
1725629501479448600,8.932448486328125,0.31872081756591797,0.2993133068084717,-0.16524706780910492
1725629501489401600,8.942401611328124,0.2844616174697876,0.3635648488998413,-0.1426950991153717
1725629501499354600,8.952354736328125,0.29915934801101685,0.17765676975250244,-0.1450357586145401
1725629501509308700,8.96230859375,0.29932481050491333,0.11102896928787231,-0.16972318291664124
1725629501519261700,8.97226171875,0.20520363748073578,0.2904578745365143,-0.10183095932006836
1725629501529214700,8.982214599609375,0.266344279050827,0.12785771489143372,-0.09016383439302444
1725629501539168500,8.99216845703125,0.2220681756734848,0.10732980072498322,-0.016999078914523125
1725629501549121500,9.00212158203125,0.18630822002887726,0.19933241605758667,-0.0059565091505646706
1725629501559074600,9.012074462890626,0.22211016714572906,0.12154573947191238,0.06486307084560394
1725629501569028600,9.022028564453125,0.204414963722229,0.03245276212692261,0.09146483242511749
1725629501578981600,9.031981689453126,0.2666455805301666,0.0123283164575696,0.1023145467042923
1725629501588934700,9.0419345703125,0.16924260556697845,0.08686555922031403,0.07549352943897247
1725629501598888700,9.051888671875,0.21446388959884644,-0.012067146599292755,0.13024172186851501
1725629501608841700,9.061841796875,0.18391624093055725,-0.007482953369617462,0.16904515027999878
1725629501618794800,9.071794677734376,0.15668118000030518,-0.07062889635562897,0.1762133240699768
1725629501628748500,9.08174853515625,0.0671287328004837,-0.010388868860900402,0.16174252331256866
1725629501638701600,9.09170166015625,0.13018226623535156,-0.2046249359846115,0.140446275472641
1725629501648654600,9.101654541015625,0.10140461474657059,-0.20264242589473724,0.21879267692565918
1725629501658608600,9.111608642578124,0.10049088299274445,-0.30066967010498047,0.11856860667467117
1725629501668561700,9.121561767578125,0.060362353920936584,-0.20844028890132904,0.19251905381679535
1725629501678514700,9.1315146484375,0.008249887265264988,-0.20407749712467194,0.1440947949886322
1725629501688468700,9.14146875,-0.020780004560947418,-0.3511936068534851,0.04615823179483414
1725629501698421800,9.151421875,-0.015882184728980064,-0.41416671872138977,0.016169708222150803
1725629501708374800,9.161374755859375,-0.03305341675877571,-0.38319262862205505,0.007936879061162472
1725629501718328800,9.171328857421875,-0.05517469719052315,-0.34574565291404724,-0.012186765670776367
1725629501728281900,9.18128173828125,-0.05660068243741989,-0.3252435028553009,-0.0021701124496757984
1725629501738235000,9.19123486328125,-0.07083554565906525,-0.3588787019252777,-0.021139807999134064
1725629501748188700,9.201188720703126,-0.08054625242948532,-0.3945600390434265,-0.060461536049842834
1725629501758141700,9.2111416015625,-0.08540971577167511,-0.40984392166137695,-0.05826256051659584
1725629501768094500,9.221094482421876,-0.1007814034819603,-0.43291276693344116,-0.08926165103912354
1725629501778048800,9.231048828125,-0.11667221784591675,-0.4017750918865204,-0.0730573832988739
1725629501788001500,9.24100146484375,-0.13966037333011627,-0.33969080448150635,-0.02434304915368557
1725629501797954600,9.25095458984375,-0.15498553216457367,-0.26808401942253113,0.037121109664440155
1725629501807908600,9.26090869140625,-0.16976754367351532,-0.2819158434867859,0.05869055539369583
1725629501817861600,9.270861572265625,-0.1790023148059845,-0.3272303342819214,0.07472172379493713
1725629501827815400,9.2808154296875,-0.17261694371700287,-0.37487083673477173,0.10327271372079849
1725629501837768400,9.2907685546875,-0.21883530914783478,-0.3539397418498993,0.10776812583208084
1725629501847721500,9.300721435546874,-0.23663854598999023,-0.3847056031227112,0.11448518186807632
1725629501857675500,9.310675537109375,-0.27292412519454956,-0.21179799735546112,0.13783524930477142
1725629501867628500,9.320628662109375,-0.30255991220474243,-0.24363113939762115,0.18802037835121155
1725629501877581600,9.33058154296875,-0.3424071967601776,-0.11291761696338654,0.18644006550312042
1725629501887535600,9.34053564453125,-0.38368791341781616,-0.15326400101184845,0.24983705580234528
1725629501897488600,9.350488525390626,-0.4311845898628235,-0.0988103449344635,0.21818885207176208
1725629501907441700,9.360441650390625,-0.43686050176620483,-0.23105135560035706,0.2318572700023651
1725629501917395700,9.370395751953126,-0.49569079279899597,-0.07679013907909393,0.24375520646572113
1725629501927348700,9.3803486328125,-0.48559001088142395,-0.19872653484344482,0.2456168681383133
1725629501937301800,9.3903017578125,-0.5703717470169067,-0.034227874130010605,0.2773265838623047
1725629501947255600,9.400255615234375,-0.5655806064605713,0.07271409034729004,0.37973883748054504
1725629501957208600,9.41020849609375,-0.5886169672012329,0.07189330458641052,0.37463968992233276
1725629501967161600,9.42016162109375,-0.5620338916778564,-0.04382234439253807,0.4273076355457306
1725629501977114600,9.430114501953126,-0.6365014910697937,0.1715530902147293,0.46924203634262085
1725629501987068700,9.440068603515625,-0.6717886328697205,0.19371558725833893,0.5181729197502136
1725629501997021700,9.450021728515624,-0.6847984194755554,0.18418999016284943,0.5872542262077332
1725629502006974700,9.459974609375,-0.6939511895179749,0.23795185983181,0.6706786155700684
1725629502016928800,9.4699287109375,-0.7507029175758362,0.2146255075931549,0.6087135076522827
1725629502026881800,9.4798818359375,-0.7878313064575195,0.16090309619903564,0.5500723719596863
1725629502036834800,9.489834716796874,-0.7592210173606873,0.23008990287780762,0.6265770196914673
1725629502046788600,9.49978857421875,-0.7462479472160339,0.30224189162254333,0.6739123463630676
1725629502056741600,9.50974169921875,-0.778297483921051,0.2744686007499695,0.6215101480484009
1725629502066694700,9.519694580078125,-0.7805991768836975,0.2726602256298065,0.6301405429840088
1725629502076648700,9.529648681640625,-0.7694868445396423,0.2816374599933624,0.6360692977905273
1725629502086601700,9.539601806640626,-0.7574443221092224,0.24878205358982086,0.5986003875732422
1725629502096554800,9.5495546875,-0.7134379744529724,0.2402237206697464,0.5902566909790039
1725629502106508800,9.5595087890625,-0.6890778541564941,0.2318251132965088,0.5606153607368469
1725629502116461800,9.5694619140625,-0.6506683826446533,0.23012281954288483,0.5257458090782166
1725629502126414600,9.57941455078125,-0.5909336805343628,0.2747565507888794,0.5293886065483093
1725629502136368600,9.58936865234375,-0.5445693731307983,0.2793957591056824,0.5076196789741516
1725629502146321400,9.5993212890625,-0.505556046962738,0.26978790760040283,0.4668644368648529
1725629502156274400,9.6092744140625,-0.45612454414367676,0.27064892649650574,0.43868288397789
1725629502166228500,9.619228515625,-0.4273761212825775,0.23126550018787384,0.38683727383613586
1725629502176181500,9.629181396484375,-0.38825109601020813,0.21487613022327423,0.33347392082214355
1725629502186134500,9.639134521484374,-0.34722602367401123,0.1912117302417755,0.27810975909233093
1725629502196088600,9.649088623046875,-0.3049302399158478,0.18676026165485382,0.22610142827033997
1725629502206041600,9.65904150390625,-0.252600759267807,0.18682268261909485,0.17855966091156006
1725629502215994600,9.66899462890625,-0.1926324963569641,0.16265316307544708,0.13005977869033813
1725629502225948700,9.67894873046875,-0.12535148859024048,0.14252200722694397,0.10571886599063873
1725629502235901700,9.688901611328125,-0.10230236500501633,0.14177684485912323,0.06541459262371063
1725629502245854700,9.698854736328125,-0.07585965096950531,0.13657264411449432,0.036806363612413406
1725629502255808500,9.70880859375,-0.05192821845412254,0.08121377974748611,-0.030230995267629623
1725629502265761500,9.718761474609375,0.0005289474502205849,0.0016218769596889615,-0.1075393483042717
1725629502275715600,9.728715576171876,0.06853383034467697,-0.03234940394759178,-0.1721324473619461
1725629502285668600,9.738668701171875,0.145173579454422,-0.01768229529261589,-0.21389751136302948
1725629502295622100,9.7486220703125,0.21135340631008148,-0.014152543619275093,-0.2513847053050995
1725629502305576200,9.758576171875,0.25877848267555237,-0.03071306273341179,-0.3021787703037262
1725629502315529200,9.768529296875,0.2932698726654053,-0.08704610913991928,-0.35517141222953796
1725629502325483000,9.77848291015625,0.3157653212547302,-0.16070395708084106,-0.41155630350112915
1725629502335436000,9.78843603515625,0.3504894971847534,-0.19109222292900085,-0.4467845857143402
1725629502345389000,9.79838916015625,0.39338409900665283,-0.21312734484672546,-0.47567018866539
1725629502355343000,9.808343017578125,0.44229036569595337,-0.2230883538722992,-0.4936273396015167
1725629502365296000,9.818296142578125,0.49043047428131104,-0.2005455046892166,-0.4889548420906067
1725629502375249000,9.828248779296874,0.5114696621894836,-0.23779647052288055,-0.5352914333343506
1725629502385203200,9.838203125,0.550712525844574,-0.28542670607566833,-0.5822564959526062
1725629502395156200,9.84815625,0.6056075096130371,-0.2682964503765106,-0.5817521214485168
1725629502405109000,9.85810888671875,0.6312240362167358,-0.29111000895500183,-0.625374972820282
1725629502415063000,9.86806298828125,0.6612058877944946,-0.327776163816452,-0.6780989170074463
1725629502425015800,9.878015869140626,0.7041168808937073,-0.2922419011592865,-0.6766409873962402
1725629502434968800,9.88796875,0.7043392658233643,-0.2613915503025055,-0.7045972347259521
1725629502444923000,9.8979228515625,0.7087175250053406,-0.2743470072746277,-0.7559686303138733
1725629502454876000,9.9078759765625,0.7187917232513428,-0.2474656105041504,-0.7605090737342834
1725629502464829000,9.917828857421876,0.7228541970252991,-0.19563832879066467,-0.7431144118309021
1725629502474783000,9.927782958984375,0.7256374359130859,-0.18981266021728516,-0.7452310919761658
1725629502484736000,9.937736083984374,0.7455483675003052,-0.13702763617038727,-0.6991090774536133
1725629502494689000,9.94768896484375,0.7537785768508911,-0.1002589762210846,-0.6575589776039124
1725629502504643000,9.95764306640625,0.7575129866600037,-0.061582986265420914,-0.6117127537727356
1725629502514596000,9.96759619140625,0.774444580078125,-0.007843060418963432,-0.5500685572624207
1725629502524549000,9.977549072265624,0.7675807476043701,0.02254127897322178,-0.5285388827323914
1725629502534503000,9.9875029296875,0.7482067942619324,0.03330444544553757,-0.5190564393997192
1725629502544456000,9.9974560546875,0.7435483336448669,0.08600753545761108,-0.45267605781555176
1725629502554409000,10.007408935546875,0.7115738987922668,0.12061451375484467,-0.4054502248764038
1725629502564363000,10.017363037109375,0.6579465866088867,0.1344873011112213,-0.36688995361328125
1725629502574316000,10.02731591796875,0.5981841683387756,0.1483762264251709,-0.3165639340877533
1725629502584270000,10.03727001953125,0.5182993412017822,0.15658442676067352,-0.2705296576023102
1725629502594223000,10.04722314453125,0.4366559386253357,0.15337558090686798,-0.28271815180778503
1725629502604176100,10.057176025390625,0.390994668006897,0.18384651839733124,-0.28262463212013245
1725629502614130000,10.0671298828125,0.3870180547237396,0.2117798924446106,-0.28213992714881897
1725629502624083000,10.0770830078125,0.347197949886322,0.17394714057445526,-0.2990075349807739
1725629502634036000,10.087035888671876,0.3325076997280121,0.18620061874389648,-0.24973638355731964
1725629502643990000,10.096989990234375,0.3282412886619568,0.21033094823360443,-0.17701518535614014
1725629502653943000,10.106943115234374,0.2938707768917084,0.21708472073078156,-0.12626704573631287
1725629502663896000,10.11689599609375,0.25317415595054626,0.15097369253635406,-0.05908634513616562
1725629502673850000,10.12685009765625,0.198445662856102,0.2584705650806427,-0.06047012284398079
1725629502683803100,10.13680322265625,0.16346506774425507,0.06986048072576523,0.007969512604176998
1725629502693756200,10.146756103515624,0.13282246887683868,0.10410872846841812,0.06618541479110718
1725629502703710000,10.1567099609375,0.1064801961183548,0.162824809551239,0.12881426513195038
1725629502713663000,10.1666630859375,0.08085525035858154,0.11042871326208115,0.18567301332950592
1725629502723616000,10.176615966796875,0.10972688347101212,0.11478781700134277,0.17036931216716766
1725629502733570000,10.186570068359375,0.10230705142021179,0.07534773647785187,0.1952538788318634
1725629502743523000,10.196523193359376,0.09606814384460449,0.02247532270848751,0.2376389056444168
1725629502753476000,10.20647607421875,0.08923154324293137,0.02264842949807644,0.23448599874973297
1725629502763430100,10.21643017578125,0.0742454007267952,0.008583209477365017,0.22486612200737
1725629502773383200,10.226383056640625,0.06351179629564285,0.000350579823134467,0.2365339696407318
1725629502783337200,10.236337158203124,-0.05067462846636772,0.09598640352487564,0.1469954550266266
1725629502793290200,10.246290283203125,0.06466501951217651,-0.1596887856721878,0.1238616481423378
1725629502803243000,10.256242919921876,0.08718547970056534,-0.253115177154541,0.06067346781492233
1725629502813197000,10.266197021484375,0.10040514171123505,-0.24941816926002502,0.017313212156295776
1725629502823149800,10.27614990234375,0.10133609920740128,-0.20149844884872437,0.01759122870862484
1725629502833102800,10.286102783203125,0.07552234083414078,-0.2467048168182373,-0.0012050967197865248
1725629502843057000,10.296056884765624,0.05686091631650925,-0.3272823989391327,-0.02393414080142975
1725629502853010000,10.306010009765625,0.0531037300825119,-0.3971749246120453,-0.03320939466357231
1725629502862963000,10.315962890625,0.03490911051630974,-0.45384910702705383,-0.056854844093322754
1725629502872917000,10.3259169921875,0.021478522568941116,-0.42769765853881836,-0.06182137504220009
1725629502882870000,10.3358701171875,-0.014895549044013023,-0.3876885771751404,-0.07024097442626953
1725629502892823000,10.345822998046875,-0.05234625190496445,-0.3536411225795746,-0.07548341155052185
1725629502902776800,10.35577685546875,-0.08334482461214066,-0.3109626770019531,-0.07404030859470367
1725629502912729900,10.365729736328126,-0.09657488018274307,-0.28460028767585754,-0.0662500262260437
1725629502922683000,10.375682861328125,-0.10950814187526703,-0.22356021404266357,-0.027765315026044846
1725629502932637000,10.385636962890626,-0.1267976462841034,-0.12000107020139694,0.018649054691195488
1725629502942590000,10.39558984375,-0.14109256863594055,-0.057973992079496384,0.05301371589303017
1725629502952544000,10.4055439453125,-0.1578795462846756,-0.02455771341919899,0.09691938757896423
1725629502962497000,10.4154970703125,-0.16721567511558533,-0.054759010672569275,0.06749514490365982
1725629502972450000,10.425449951171874,-0.17947500944137573,-0.08816410601139069,0.07084140926599503
1725629502982404000,10.435404052734375,-0.21000035107135773,-0.07023531198501587,0.10024379193782806
1725629502992357000,10.445357177734374,-0.25861501693725586,-0.04233817011117935,0.11108285933732986
1725629503002310100,10.45531005859375,-0.29115787148475647,0.03546154126524925,0.1887502521276474
1725629503012264000,10.465263916015624,-0.3116101622581482,0.010155652649700642,0.22271381318569183
1725629503022217000,10.475217041015625,-0.3204643130302429,-0.028503108769655228,0.23797208070755005
1725629503032170000,10.485169921875,-0.3241375982761383,-0.03026052936911583,0.2684168219566345
1725629503042124000,10.4951240234375,-0.3365180194377899,-0.09258671849966049,0.27773502469062805
1725629503052077000,10.5050771484375,-0.34295621514320374,-0.07086624950170517,0.23836898803710938
1725629503062030000,10.515030029296875,-0.33390769362449646,-0.17180685698986053,0.2689182162284851
1725629503071984000,10.524984130859375,-0.3530574142932892,-0.03281647711992264,0.3116896450519562
1725629503081937200,10.534937255859376,-0.36594292521476746,-0.03526000678539276,0.3445601463317871
1725629503091890200,10.54489013671875,-0.3794688284397125,-0.03354892507195473,0.39167678356170654
1725629503101844000,10.554843994140626,-0.39719656109809875,-0.015406046062707901,0.4632328152656555
1725629503111797000,10.564796875,-0.44211849570274353,0.06748537719249725,0.45962607860565186
1725629503121750000,10.57475,-0.48490750789642334,0.07300771027803421,0.47123613953590393
1725629503131704000,10.5847041015625,-0.5306347608566284,0.09259339421987534,0.5239792466163635
1725629503141657000,10.594656982421874,-0.5974491834640503,0.05735228210687637,0.511600136756897
1725629503151610000,10.604610107421875,-0.6436190605163574,0.07131469994783401,0.5322628021240234
1725629503161564200,10.614564208984374,-0.6951854228973389,0.10099029541015625,0.5661600828170776
1725629503171517200,10.62451708984375,-0.7682569622993469,0.06962571293115616,0.5322748422622681
1725629503181471200,10.63447119140625,-0.8162253499031067,0.05639851093292236,0.5157521963119507
1725629503191424300,10.64442431640625,-0.8331968784332275,0.11578274518251419,0.5358007550239563
1725629503201377000,10.654376953125,-0.8441977500915527,0.1629161834716797,0.5119800567626953
1725629503211331000,10.6643310546875,-0.836022138595581,0.17681734263896942,0.4846363067626953
1725629503221283800,10.674283935546875,-0.8150116801261902,0.20608054101467133,0.5000165700912476
1725629503231236900,10.68423681640625,-0.7753207087516785,0.2098848670721054,0.4819917380809784
1725629503241191000,10.69419091796875,-0.7415414452552795,0.19399437308311462,0.45204344391822815
1725629503251144000,10.70414404296875,-0.7077565789222717,0.2202339768409729,0.4698682427406311
1725629503261097000,10.714096923828125,-0.6962376832962036,0.22193798422813416,0.45613792538642883
1725629503271051000,10.724051025390626,-0.6695871949195862,0.22781744599342346,0.45036712288856506
1725629503281004000,10.734004150390625,-0.6192601919174194,0.23975028097629547,0.48014378547668457
1725629503290956300,10.743956298828126,-0.5572687387466431,0.2662045359611511,0.49065902829170227
1725629503300910300,10.753910400390625,-0.4905942678451538,0.2556208670139313,0.47584834694862366
1725629503310863400,10.76386328125,-0.44543662667274475,0.23767408728599548,0.4268810749053955
1725629503320816000,10.773816162109375,-0.38455983996391296,0.22856613993644714,0.3577817380428314
1725629503330770200,10.783770263671874,-0.34804657101631165,0.22438843548297882,0.29661932587623596
1725629503340723000,10.793722900390625,-0.3008129596710205,0.27314502000808716,0.26439157128334045
1725629503350676000,10.803676025390626,-0.2846291959285736,0.21669185161590576,0.2098979651927948
1725629503360630000,10.813630126953125,-0.24584592878818512,0.19699245691299438,0.19521132111549377
1725629503370583000,10.8235830078125,-0.2009466290473938,0.20209985971450806,0.16795572638511658
1725629503380536000,10.8335361328125,-0.15494860708713531,0.15678510069847107,0.10397706180810928
1725629503390490000,10.843489990234374,-0.11147143691778183,0.11695326864719391,0.062282610684633255
1725629503400443100,10.853443115234375,-0.04789940267801285,0.14702406525611877,0.056434717029333115
1725629503410397000,10.86339697265625,-0.0042121089063584805,0.13815653324127197,0.013341041281819344
1725629503420350000,10.873349853515625,0.03869152441620827,0.10640463978052139,-0.05990077555179596
1725629503430303000,10.883302978515625,0.09705975651741028,0.048648666590452194,-0.1459624320268631
1725629503440257000,10.893257080078126,0.15203256905078888,-0.0021139502059668303,-0.21651436388492584
1725629503450210000,10.9032099609375,0.22950126230716705,0.001882655662484467,-0.2600620985031128
1725629503460163000,10.9131630859375,0.2801057696342468,-0.035487234592437744,-0.3069669008255005
1725629503470117000,10.9231171875,0.31034114956855774,-0.07264339178800583,-0.34485143423080444
1725629503480070100,10.933070068359376,0.3450976014137268,-0.09685104340314865,-0.405508428812027
1725629503490023200,10.943023193359375,0.3723398745059967,-0.1028444841504097,-0.447041779756546
1725629503499977200,10.952977294921874,0.40191444754600525,-0.1372019499540329,-0.5110398530960083
1725629503509930200,10.96293017578125,0.458682119846344,-0.1807480901479721,-0.5624873638153076
1725629503519883300,10.97288330078125,0.5125524997711182,-0.19170323014259338,-0.579680860042572
1725629503529837000,10.982837158203125,0.545295000076294,-0.2587917447090149,-0.6416779160499573
1725629503539790000,10.9927900390625,0.5625234842300415,-0.2568080723285675,-0.6974802613258362
1725629503549743000,11.0027431640625,0.5713478922843933,-0.23013783991336823,-0.7053245902061462
1725629503559697200,11.012697265625,0.5867609977722168,-0.20878301560878754,-0.7485660910606384
1725629503569650200,11.022650146484375,0.601321280002594,-0.18078678846359253,-0.7549132108688354
1725629503579603200,11.032603271484374,0.6258236765861511,-0.13246658444404602,-0.7366799116134644
1725629503589557200,11.04255712890625,0.6106295585632324,-0.08671692758798599,-0.7109876275062561
1725629503599510300,11.05251025390625,0.6209873557090759,-0.046561360359191895,-0.7019122838973999
1725629503609463300,11.06246337890625,0.6258939504623413,-0.008619037456810474,-0.6701756715774536
1725629503619417000,11.0724169921875,0.6227561235427856,0.027538083493709564,-0.6686077117919922
1725629503629370000,11.0823701171875,0.6140798330307007,0.07765904814004898,-0.6641493439674377
1725629503639324200,11.09232421875,0.6126209497451782,0.12509770691394806,-0.6369887590408325
1725629503649277200,11.102277099609376,0.6419764161109924,0.1669626086950302,-0.5780796408653259
1725629503659230200,11.112230224609375,0.683458685874939,0.22080452740192413,-0.49145886301994324
1725629503669184300,11.122184326171874,0.6961910128593445,0.2272413820028305,-0.4756721556186676
1725629503679137300,11.13213720703125,0.6659018397331238,0.16470389068126678,-0.5963226556777954
1725629503689090300,11.14209033203125,0.68217533826828,0.2874809205532074,-0.5172550082206726
1725629503699044400,11.15204443359375,0.650115430355072,0.2977900505065918,-0.48067009449005127
1725629503708997400,11.161997314453124,0.6120674014091492,0.3207033574581146,-0.4338802099227905
1725629503718950100,11.1719501953125,0.5695161819458008,0.28397729992866516,-0.39028945565223694
1725629503728904200,11.181904296875,0.542448103427887,0.247489333152771,-0.3271331191062927
1725629503738857200,11.191857177734375,0.49759942293167114,0.192546084523201,-0.3299248516559601
1725629503748810000,11.20181005859375,0.4319745898246765,0.18032830953598022,-0.35326504707336426
1725629503758764300,11.211764404296876,0.39999920129776,0.24768118560314178,-0.31417566537857056
1725629503768717000,11.221717041015625,0.32824698090553284,0.22838366031646729,-0.3075193464756012
1725629503778670000,11.231670166015626,0.2792016267776489,0.23418620228767395,-0.24754676222801208
1725629503788624100,11.2416240234375,0.26542481780052185,0.20883823931217194,-0.16958007216453552
1725629503798577200,11.2515771484375,0.232767254114151,0.12440335005521774,-0.11504339426755905
1725629503808530200,11.2615302734375,0.22196760773658752,0.09519433230161667,-0.06658957898616791
1725629503818484000,11.27148388671875,0.2058987021446228,0.05116958171129227,-0.06347519159317017
1725629503828437000,11.28143701171875,0.1654157191514969,0.0883592963218689,-0.03347575291991234
1725629503838390000,11.29139013671875,0.18169760704040527,0.065652035176754,-0.005657141096889973
1725629503848344000,11.301343994140625,0.10584919154644012,0.15134111046791077,0.04728064313530922
1725629503858297000,11.311297119140624,0.10740597546100616,0.07641785591840744,0.13633279502391815
1725629503868250000,11.32125,0.06742473691701889,0.04266361892223358,0.18236154317855835
1725629503878204200,11.3312041015625,0.02725060284137726,0.08207028359174728,0.17689086496829987
1725629503888157200,11.3411572265625,0.01342586800456047,-0.031941499561071396,0.20759816467761993
1725629503898111200,11.351111328125,-0.018425025045871735,-0.03044242598116398,0.1916414350271225
1725629503908064000,11.36106396484375,-0.023369450122117996,-0.02328411489725113,0.16792546212673187
1725629503918017000,11.37101708984375,-0.03381849825382233,-0.02738266810774803,0.1724431812763214
1725629503927971000,11.38097119140625,-0.03701109439134598,-0.022574597969651222,0.20208071172237396
1725629503937924000,11.390924072265625,-0.05004609003663063,-0.04447945952415466,0.2271617352962494
1725629503947877000,11.400877197265626,-0.05286264792084694,-0.10428366810083389,0.21173350512981415
1725629503957831200,11.4108310546875,-0.03166927769780159,-0.16767948865890503,0.1840447634458542
1725629503967784200,11.4207841796875,-0.0020152442157268524,-0.23171094059944153,0.15293024480342865
1725629503977737200,11.4307373046875,-0.0024686765391379595,-0.23442456126213074,0.14055176079273224
1725629503987691300,11.440691162109376,-0.01757439225912094,-0.18147213757038116,0.16209912300109863
1725629503997644300,11.450644287109375,-0.039277080446481705,-0.18248701095581055,0.18112319707870483
1725629504007597300,11.460597412109376,-0.04478582739830017,-0.24186325073242188,0.1803351640701294
1725629504017551000,11.470551025390625,-0.03624029457569122,-0.2995442748069763,0.162767693400383
1725629504027504000,11.480504150390624,-0.039008915424346924,-0.3458992540836334,0.11769314855337143
1725629504037457200,11.49045703125,-0.05441583693027496,-0.3814709782600403,0.07329780608415604
1725629504047411200,11.5004111328125,-0.0721580758690834,-0.39018672704696655,0.06621246784925461
1725629504057364200,11.5103642578125,-0.10984330624341965,-0.38260534405708313,0.05876454338431358
1725629504067317200,11.520317138671874,-0.15756554901599884,-0.33794838190078735,0.08084188401699066
1725629504077271300,11.530271240234375,-0.1945192962884903,-0.3127099871635437,0.09899446368217468
1725629504087224300,11.540224365234375,-0.22037112712860107,-0.329976886510849,0.09678323566913605
1725629504097177300,11.55017724609375,-0.222574844956398,-0.3189684748649597,0.10451381653547287
1725629504107131100,11.560131103515625,-0.22526703774929047,-0.2969438433647156,0.05716041848063469
1725629504117084200,11.570084228515626,-0.2412235140800476,-0.27200183272361755,0.020008282735943794
1725629504127038200,11.5800380859375,-0.2643679678440094,-0.26312685012817383,0.03395605832338333
1725629504136991200,11.5899912109375,-0.27483418583869934,-0.27669620513916016,0.014862790703773499
1725629504146944000,11.599944091796875,-0.2822825014591217,-0.2564769387245178,0.07103418558835983
1725629504156897000,11.60989697265625,-0.2744276225566864,-0.23853199183940887,0.13419070839881897
1725629504166851000,11.61985107421875,-0.2726749777793884,-0.26056912541389465,0.15508294105529785
1725629504176804000,11.62980419921875,-0.2494291514158249,-0.2920534610748291,0.17667940258979797
1725629504186758100,11.639758056640625,-0.2649056017398834,-0.1755734384059906,0.19703075289726257
1725629504196711200,11.649711181640624,-0.2710310220718384,-0.1555633395910263,0.1811390370130539
1725629504206664200,11.659664306640625,-0.2722456753253937,-0.12269248068332672,0.19542637467384338
1725629504216618000,11.669617919921874,-0.27121737599372864,-0.08665545284748077,0.21336455643177032
1725629504226571000,11.679571044921875,-0.2785157561302185,-0.05305035412311554,0.21588389575481415
1725629504236524000,11.68952392578125,-0.26577338576316833,-0.02841588482260704,0.24538907408714294
1725629504246478000,11.69947802734375,-0.2849382758140564,-0.030360791832208633,0.2471930980682373
1725629504256431000,11.70943115234375,-0.3213750720024109,-0.032999809831380844,0.2292567640542984
1725629504266384100,11.719384033203125,-0.33190202713012695,-0.04231501743197441,0.26447173953056335
1725629504276338200,11.729338134765625,-0.35322198271751404,0.033170513808727264,0.301758348941803
1725629504286291200,11.739291259765626,-0.3816547095775604,0.04961180314421654,0.3398231565952301
1725629504296244500,11.749244384765625,-0.40767407417297363,0.05812268704175949,0.3656199872493744
1725629504306198300,11.7591982421875,-0.4275977313518524,0.051342811435461044,0.3785563111305237
1725629504316151300,11.7691513671875,-0.4737107753753662,0.02305239625275135,0.34325581789016724
1725629504326104300,11.779104248046876,-0.5267369151115417,-0.00037330048508010805,0.29725155234336853
1725629504336058400,11.789058349609375,-0.5549803972244263,0.029934946447610855,0.32640647888183594
1725629504346011400,11.799011474609374,-0.5936322212219238,0.05890640988945961,0.3375731110572815
1725629504355964400,11.80896435546875,-0.6137621402740479,0.06394156813621521,0.3603985607624054
1725629504365918500,11.81891845703125,-0.5987248420715332,0.08052826672792435,0.4029092788696289
1725629504375871500,11.82887158203125,-0.6005834937095642,0.09580010920763016,0.39856088161468506
1725629504385824500,11.838824462890624,-0.6095772385597229,0.1210511326789856,0.37870433926582336
1725629504395778300,11.8487783203125,-0.6141018271446228,0.11221388727426529,0.3434275984764099
1725629504405731300,11.8587314453125,-0.609673798084259,0.1296703815460205,0.338484525680542
1725629504415684400,11.868684326171875,-0.6079257130622864,0.15303674340248108,0.3223016858100891
1725629504425638400,11.878638427734375,-0.6106924414634705,0.17675644159317017,0.30643725395202637
1725629504435591400,11.88859130859375,-0.5971372723579407,0.19468286633491516,0.3120254576206207
1725629504445544400,11.89854443359375,-0.5774812698364258,0.20797283947467804,0.31582552194595337
1725629504455498500,11.90849853515625,-0.5502912402153015,0.2312912940979004,0.3196582794189453
1725629504465451500,11.918451416015625,-0.5317644476890564,0.2561787962913513,0.3051712214946747
1725629504475405600,11.928405517578126,-0.5306859612464905,0.23951050639152527,0.2504015862941742
1725629504485358600,11.938358642578125,-0.4988689422607422,0.22775503993034363,0.22533617913722992
1725629504495311600,11.9483115234375,-0.4596799612045288,0.223887637257576,0.17977364361286163
1725629504505265400,11.958265380859375,-0.39000022411346436,0.20405028760433197,0.12090393900871277
1725629504515218400,11.968218505859374,-0.31449779868125916,0.25681567192077637,0.0929960086941719
1725629504525171500,11.97817138671875,-0.2417413294315338,0.2636112570762634,0.04488653689622879
1725629504535125500,11.98812548828125,-0.16740339994430542,0.2602381408214569,-0.026733074337244034
1725629504545078500,11.99807861328125,-0.0888846218585968,0.22745570540428162,-0.10454851388931274
1725629504555031300,12.00803125,-0.015884943306446075,0.20412075519561768,-0.17125366628170013
1725629504564985600,12.017985595703125,0.04515737295150757,0.17655517160892487,-0.22678564488887787
1725629504574938400,12.0279384765625,0.09844663739204407,0.16004015505313873,-0.26234811544418335
1725629504584891400,12.037891357421875,0.14625756442546844,0.11851081997156143,-0.2908862829208374
1725629504594845200,12.04784521484375,0.19952689111232758,0.07707414776086807,-0.3085029423236847
1725629504604798200,12.057798095703125,0.2498989850282669,0.028584113344550133,-0.31626126170158386
1725629504614751200,12.067751220703125,0.2811838686466217,-0.015006489120423794,-0.323083758354187
1725629504624705300,12.077705322265626,0.2986699342727661,-0.07443200051784515,-0.34171363711357117
1725629504634658300,12.087658203125,0.3163471221923828,-0.14320236444473267,-0.38909071683883667
1725629504644611300,12.097611328125,0.34693220257759094,-0.1973596066236496,-0.4305662512779236
1725629504654565400,12.1075654296875,0.3884894847869873,-0.21945665776729584,-0.4532192349433899
1725629504664518400,12.117518310546876,0.4352351725101471,-0.23434852063655853,-0.47711339592933655
1725629504674471400,12.127471435546875,0.48281002044677734,-0.22875726222991943,-0.4933244287967682
1725629504684425500,12.137425537109374,0.5093441605567932,-0.25694817304611206,-0.5422163605690002
1725629504694378500,12.14737841796875,0.5258738398551941,-0.259599894285202,-0.5845773816108704
1725629504704331500,12.15733154296875,0.5400288105010986,-0.22141283750534058,-0.6040128469467163
1725629504714285300,12.167285400390625,0.5468742251396179,-0.23682352900505066,-0.6428691744804382
1725629504724238300,12.17723828125,0.5659587383270264,-0.2193574607372284,-0.6375164985656738
1725629504734191400,12.18719140625,0.5876665711402893,-0.1801694631576538,-0.6057325601577759
1725629504744145400,12.1971455078125,0.6027712225914001,-0.18323928117752075,-0.6045578122138977
1725629504754098400,12.207098388671875,0.6257249712944031,-0.1580786556005478,-0.5799624919891357
1725629504764051500,12.217051513671874,0.6401838064193726,-0.13707324862480164,-0.5658466815948486
1725629504774005500,12.227005615234376,0.6500120759010315,-0.10738056898117065,-0.5462223887443542
1725629504783958500,12.23695849609375,0.6598780155181885,-0.08092845231294632,-0.5383903384208679
1725629504793912300,12.246912353515626,0.6512699127197266,-0.08227024972438812,-0.5598236322402954
1725629504803865300,12.256865234375,0.664615273475647,-0.05253499001264572,-0.5477662086486816
1725629504813818400,12.266818359375,0.6703208088874817,-0.005429215729236603,-0.5225958228111267
1725629504823772400,12.2767724609375,0.6746625900268555,0.05095735937356949,-0.4795176088809967
1725629504833725400,12.286725341796876,0.6541892290115356,0.08869684487581253,-0.4436770975589752
1725629504843678500,12.296678466796875,0.626743733882904,0.1466301828622818,-0.39879751205444336
1725629504853632500,12.306632568359374,0.5907661318778992,0.16425113379955292,-0.37914055585861206
1725629504863585500,12.31658544921875,0.562171220779419,0.1962311714887619,-0.35581526160240173
