time,seconds_elapsed,z,y,x
1725631020259626200,0.019626220703125,0.07889421284198761,-0.18553654849529266,0.33659690618515015
1725631020269580000,0.029580078125,0.08261917531490326,-0.13497376441955566,0.3037230968475342
1725631020279533000,0.039532958984375,0.3520478904247284,0.07030151039361954,0.2307242453098297
1725631020289486000,0.049486083984375,0.6568799614906311,0.3004668056964874,0.17228063941001892
1725631020299439000,0.059439208984375,0.8243266344070435,0.5200181603431702,0.10395270586013794
1725631020309392100,0.06939208984375,1.0184619426727295,0.5826094150543213,0.04465795308351517
1725631020319345200,0.07934521484375,1.2490416765213013,0.449414998292923,-0.01410916168242693
1725631020329298000,0.0892978515625,1.3761978149414062,0.1755128651857376,-0.06663522124290466
1725631020339251000,0.0992509765625,1.482772946357727,-0.169585183262825,-0.06149754673242569
1725631020349204000,0.109203857421875,1.5396647453308105,-0.3268658518791199,-0.08624870330095291
1725631020359157000,0.119156982421875,1.4868416786193848,-0.29049429297447205,-0.10005035251379013
1725631020369110000,0.129110107421875,1.334271788597107,-0.19448783993721008,-0.00573184248059988
1725631020379063000,0.13906298828125,1.2301051616668701,-0.007912981323897839,0.19088755548000336
1725631020389016000,0.14901611328125,1.1888993978500366,0.14002081751823425,0.39949777722358704
1725631020398969000,0.158968994140625,1.0281894207000732,0.31521379947662354,0.6340891122817993
1725631020408922000,0.168922119140625,0.8565585017204285,0.40575143694877625,0.7588406205177307
1725631020418875100,0.178875244140625,0.7375760674476624,0.3856251537799835,0.6914926171302795
1725631020428828000,0.188827880859375,0.5404773950576782,0.3920241892337799,0.5544535517692566
1725631020438781000,0.198781005859375,0.15408985316753387,0.17138119041919708,0.43194136023521423
1725631020448734000,0.20873388671875,-0.18532070517539978,-0.031574588268995285,0.3369961977005005
1725631020458687000,0.21868701171875,-0.21934330463409424,-0.18392156064510345,0.18968430161476135
1725631020468640000,0.228639892578125,-0.22975680232048035,-0.06282415986061096,0.03599460422992706
1725631020478593000,0.238593017578125,-0.26695749163627625,-0.27255481481552124,-0.0900791734457016
1725631020488546000,0.248546142578125,-0.7201550602912903,-0.34406760334968567,-0.29195156693458557
1725631020498499000,0.2584990234375,-0.9137827754020691,-0.37979474663734436,-0.43959271907806396
1725631020508452000,0.2684521484375,-1.147994875907898,-0.42736172676086426,-0.565194308757782
1725631020518405000,0.278405029296875,-1.3474297523498535,-0.5132274627685547,-0.6367123126983643
1725631020528358100,0.288358154296875,-1.5529799461364746,-0.568342387676239,-0.7000542879104614
1725631020538312200,0.298312255859375,-1.6026395559310913,-0.7759833931922913,-0.7955018877983093
1725631020548265200,0.30826513671875,-1.3179292678833008,-0.8165990114212036,-1.073789119720459
1725631020558218000,0.318218017578125,-0.9661397933959961,-0.6369606256484985,-1.2665411233901978
1725631020568171000,0.3281708984375,-0.7152894735336304,-0.3809286057949066,-1.3789417743682861
1725631020578124000,0.3381240234375,-0.5317077040672302,-0.06945297122001648,-1.2878940105438232
1725631020588077000,0.3480771484375,-0.38892659544944763,0.2031993418931961,-0.9119808077812195
1725631020598030000,0.358030029296875,-0.2595905661582947,0.4150112569332123,-0.08753351122140884
1725631020607983000,0.367983154296875,-0.12752069532871246,0.3993356227874756,1.0799472332000732
1725631020617936100,0.37793603515625,0.15997958183288574,0.004796838853508234,2.387744665145874
1725631020627889200,0.38788916015625,0.5067061185836792,-0.31368792057037354,3.1411943435668945
1725631020637842200,0.39784228515625,1.4036078453063965,-0.5731968879699707,3.0106940269470215
1725631020647795200,0.407795166015625,2.272078275680542,-0.1469038873910904,2.591243028640747
1725631020657748200,0.417748291015625,2.8055355548858643,0.2584415078163147,2.209883213043213
1725631020667701000,0.427700927734375,3.0601847171783447,0.17809420824050903,1.7202975749969482
1725631020677654000,0.437654052734375,3.3472347259521484,0.07598026841878891,1.3184869289398193
1725631020687607000,0.44760693359375,3.8943862915039062,0.18788309395313263,1.1692755222320557
1725631020697560000,0.45756005859375,3.864842176437378,0.477272093296051,1.1481400728225708
1725631020707513000,0.46751318359375,3.4605603218078613,0.4246688187122345,0.8283393383026123
1725631020717466000,0.477466064453125,2.792386531829834,1.0304094552993774,0.18923413753509521
1725631020727419100,0.487419189453125,2.827529191970825,1.7098926305770874,-0.7126091718673706
1725631020737372200,0.4973720703125,3.194262981414795,2.077221393585205,-1.455306053161621
1725631020747325200,0.5073251953125,3.398334503173828,2.2943904399871826,-1.8308300971984863
1725631020757278200,0.5172783203125,3.646028995513916,2.1643171310424805,-2.045478582382202
1725631020767231200,0.527231201171875,3.805201530456543,1.7383965253829956,-1.8062633275985718
1725631020777184000,0.53718408203125,3.7807681560516357,1.0214799642562866,-1.2432212829589844
1725631020787137000,0.547136962890625,3.755171298980713,0.18097540736198425,-0.6912282109260559
1725631020797090000,0.557090087890625,3.76332688331604,-0.6763817667961121,-0.12236811220645905
1725631020807043000,0.56704296875,3.9741945266723633,-1.4308358430862427,0.41380637884140015
1725631020816997000,0.5769970703125,3.9790701866149902,-2.070556879043579,1.016560435295105
1725631020826950100,0.5869501953125,4.577786922454834,-2.7092154026031494,1.638195514678955
1725631020836903200,0.596903076171875,4.703250885009766,-2.8702659606933594,1.8975439071655273
1725631020846856200,0.606856201171875,3.796356201171875,-3.021899461746216,1.452551245689392
1725631020856809200,0.616809326171875,2.8218798637390137,-3.260946750640869,0.8831557631492615
1725631020866762200,0.62676220703125,2.6428887844085693,-3.5809826850891113,0.5385334491729736
1725631020876715300,0.63671533203125,2.6781656742095947,-4.006511211395264,0.25949767231941223
1725631020886668300,0.646668212890625,2.666438102722168,-4.616635322570801,0.32434403896331787
1725631020896621300,0.656621337890625,2.6890158653259277,-5.391488075256348,0.851747989654541
1725631020906574000,0.666573974609375,2.774343729019165,-6.054392337799072,1.4717042446136475
1725631020916527000,0.676527099609375,2.9983432292938232,-5.947541236877441,1.8332518339157104
1725631020926480100,0.686480224609375,3.2397403717041016,-5.5031867027282715,1.7471296787261963
1725631020936433200,0.69643310546875,3.473215341567993,-4.831958770751953,1.3663671016693115
1725631020946386200,0.70638623046875,3.713686227798462,-3.9668586254119873,0.881780207157135
1725631020956339200,0.716339111328125,3.8778064250946045,-3.6916418075561523,0.4363572597503662
1725631020966292200,0.726292236328125,4.003270149230957,-3.7853407859802246,0.2724205255508423
1725631020976245200,0.736245361328125,4.047550201416016,-4.156885147094727,0.38472408056259155
1725631020986198300,0.7461982421875,3.824711322784424,-3.750133514404297,0.25341081619262695
1725631020996151300,0.7561513671875,3.6074068546295166,-2.4421212673187256,-0.15250816941261292
1725631021006104300,0.766104248046875,3.9353644847869873,-1.2986432313919067,-0.7534376382827759
1725631021016057000,0.77605712890625,3.1940925121307373,0.23001250624656677,-1.7054098844528198
1725631021026010000,0.786010009765625,3.440535545349121,1.279280424118042,-2.8442296981811523
1725631021035963100,0.795963134765625,3.942420482635498,2.4388010501861572,-2.6118500232696533
1725631021045916200,0.805916259765625,3.7861897945404053,1.9273433685302734,-2.260371685028076
1725631021055869200,0.815869140625,4.1002278327941895,2.037997245788574,-2.321855306625366
1725631021065822200,0.825822265625,4.356204509735107,2.578188896179199,-2.174621343612671
1725631021075775200,0.835775146484375,4.590902805328369,2.9589715003967285,-2.3838083744049072
1725631021085728300,0.845728271484375,4.792037487030029,3.2560296058654785,-2.5458621978759766
1725631021095682000,0.85568212890625,5.492417335510254,3.242574691772461,-2.651334285736084
1725631021105635000,0.865635009765625,5.58015251159668,4.389618396759033,-2.9248313903808594
1725631021115588000,0.875588134765625,4.910665988922119,5.9953999519348145,-2.887228012084961
1725631021125541000,0.885541015625,4.07722806930542,6.568661212921143,-2.7184455394744873
1725631021135494100,0.895494140625,4.865056037902832,7.210632801055908,-2.0217909812927246
1725631021145447000,0.905447021484375,4.987922191619873,7.203028678894043,-0.9110827445983887
1725631021155400400,0.915400390625,5.265789031982422,6.863437652587891,-0.005070244427770376
1725631021165353500,0.925353515625,5.655112266540527,5.988834857940674,0.3042055666446686
1725631021175306500,0.935306396484375,4.328352928161621,3.567925214767456,-1.8050094842910767
1725631021185259500,0.945259521484375,4.356152534484863,4.565954685211182,-2.0100486278533936
1725631021195212500,0.955212646484375,3.7817208766937256,4.648624897003174,-1.5088788270950317
1725631021205165600,0.96516552734375,2.768191337585449,4.2267889976501465,-0.9136995673179626
1725631021215118600,0.97511865234375,2.2734880447387695,4.308355808258057,-0.5976234078407288
1725631021225071600,0.985071533203125,2.025527238845825,4.469656944274902,-0.5866690278053284
1725631021235024600,0.995024658203125,1.933285117149353,4.598202705383301,-0.5750038027763367
1725631021244977700,1.004977783203125,2.008552074432373,4.875100612640381,-0.4875650107860565
1725631021254930700,1.0149306640625,2.103715181350708,4.906497001647949,-0.22397388517856598
1725631021264883500,1.024883544921875,2.1214325428009033,4.7306623458862305,0.12385518103837967
1725631021274836500,1.03483642578125,2.112597942352295,4.38838005065918,0.3766685128211975
1725631021284789500,1.04478955078125,2.0645017623901367,3.910867691040039,0.53951495885849
1725631021294742500,1.054742431640625,1.9484390020370483,3.229107141494751,0.7357182502746582
1725631021304695600,1.064695556640625,1.8537009954452515,2.3891994953155518,0.9529704451560974
1725631021314648600,1.074648681640625,1.7861988544464111,1.6473180055618286,1.1189889907836914
1725631021324601600,1.0846015625,1.770455241203308,1.1063865423202515,1.0887179374694824
1725631021334554600,1.0945546875,1.6339259147644043,0.44848930835723877,0.9067597985267639
1725631021344507600,1.104507568359375,1.5283832550048828,-0.06537188589572906,0.8754769563674927
1725631021354460700,1.114460693359375,1.6534806489944458,-0.33964914083480835,0.7738298177719116
1725631021364413700,1.12441357421875,1.8567548990249634,-0.34875476360321045,0.8848756551742554
1725631021374366500,1.134366455078125,1.9634095430374146,-0.3932909667491913,1.1757633686065674
1725631021384320800,1.14432080078125,1.6858339309692383,-0.6415023803710938,0.7938597202301025
1725631021394273500,1.1542734375,1.4939218759536743,-0.20285539329051971,0.3735335171222687
1725631021404226600,1.1642265625,1.1907907724380493,-0.27171993255615234,-0.1378014087677002
1725631021414179600,1.1741796875,1.0987776517868042,-0.38440489768981934,-0.06008898839354515
1725631021424132600,1.184132568359375,0.9973645210266113,-0.6584993004798889,0.0416906364262104
1725631021434085600,1.194085693359375,0.9576050639152527,-0.33996301889419556,0.15603578090667725
1725631021444038700,1.20403857421875,0.5752856731414795,-0.25895658135414124,0.014244040474295616
1725631021453991700,1.21399169921875,-0.06776711344718933,0.01893267035484314,-0.17878830432891846
1725631021463944700,1.22394482421875,-0.7422038316726685,0.32176417112350464,-0.25439250469207764
1725631021473897700,1.233897705078125,-1.2476558685302734,0.7505471706390381,-0.11783027648925781
1725631021483850800,1.243850830078125,-1.436557650566101,1.0804318189620972,0.06746208667755127
1725631021493803500,1.253803466796875,-1.426039695739746,0.7705616354942322,0.14148403704166412
1725631021503756500,1.263756591796875,-1.3477143049240112,0.014253989793360233,-0.028415242210030556
1725631021513709600,1.27370947265625,-1.3847291469573975,-1.0036184787750244,-0.25786712765693665
1725631021523662600,1.28366259765625,-1.416504144668579,-2.2209227085113525,-0.7553851008415222
1725631021533615600,1.29361572265625,-1.5353432893753052,-3.2433114051818848,-1.3200610876083374
1725631021543568600,1.303568603515625,-1.6590628623962402,-3.633721113204956,-1.8451204299926758
1725631021553521700,1.313521728515625,-1.5337436199188232,-3.3260483741760254,-2.3767943382263184
1725631021563474700,1.323474609375,-1.6455594301223755,-2.5070831775665283,-2.699878215789795
1725631021573427700,1.333427734375,-1.7659083604812622,-1.4689373970031738,-2.992173910140991
1725631021583380700,1.343380615234375,-1.717678427696228,0.10017763078212738,-2.7475974559783936
1725631021593333800,1.353333740234375,-1.7854797840118408,1.2925561666488647,-2.441122055053711
1725631021603286500,1.36328662109375,-1.7559397220611572,2.399596691131592,-2.4440338611602783
1725631021613239600,1.373239501953125,-1.6928770542144775,2.990100145339966,-2.5075433254241943
1725631021623192600,1.383192626953125,-1.7339749336242676,2.6439223289489746,-2.4804627895355225
1725631021633145600,1.3931455078125,-1.7226336002349854,1.769330620765686,-2.2992546558380127
1725631021643098600,1.4030986328125,-1.5134053230285645,0.965133786201477,-1.947051763534546
1725631021653051600,1.4130517578125,-1.0624889135360718,0.46172836422920227,-1.6125638484954834
1725631021663004700,1.423004638671875,-0.7382371425628662,0.18975621461868286,-1.3447164297103882
1725631021672958700,1.432958740234375,-0.5954946875572205,0.134662464261055,-1.1114964485168457
1725631021682911700,1.442911865234375,-0.6153618693351746,0.20667727291584015,-1.0121711492538452
1725631021692864800,1.45286474609375,-0.6639419794082642,0.3749871253967285,-1.0067007541656494
1725631021702817800,1.46281787109375,-0.8188670873641968,0.4567331075668335,-1.1045496463775635
1725631021712770800,1.472770751953125,-1.0159012079238892,0.6200549006462097,-1.276050090789795
1725631021722723800,1.482723876953125,-1.0594744682312012,0.5892205238342285,-1.2006099224090576
1725631021732676600,1.492676513671875,-1.0894503593444824,0.19363214075565338,-0.8241086006164551
1725631021742629600,1.502629638671875,-0.9166160225868225,0.10425273329019547,-0.9579324722290039
1725631021752582700,1.512582763671875,-0.7150769829750061,0.15983687341213226,-1.314321756362915
1725631021762535700,1.52253564453125,-0.33063212037086487,-0.0423700250685215,-1.5004780292510986
1725631021772488700,1.53248876953125,-0.3252088725566864,0.2809617221355438,-1.520695686340332
1725631021782441700,1.542441650390625,-0.42418843507766724,0.41863569617271423,-1.922669768333435
1725631021792394800,1.552394775390625,-0.5696337223052979,0.634779155254364,-2.129560947418213
1725631021802347800,1.56234765625,-0.654952347278595,0.5344075560569763,-2.2768404483795166
1725631021812300800,1.57230078125,-0.6906681060791016,0.4325052797794342,-2.3068020343780518
1725631021822253800,1.58225390625,-0.6427171230316162,0.22054989635944366,-1.9475369453430176
1725631021832206800,1.592206787109375,-0.5339089632034302,0.05523798614740372,-1.5078216791152954
1725631021842159600,1.60215966796875,-0.33409014344215393,0.07862266898155212,-1.2116563320159912
1725631021852112600,1.612112548828125,-0.28981733322143555,0.19017080962657928,-0.9669419527053833
1725631021862065700,1.622065673828125,-0.21034778654575348,0.1493125855922699,-0.7182136178016663
1725631021872018700,1.632018798828125,-0.10920540988445282,0.20491619408130646,-0.5452535152435303
1725631021881971700,1.6419716796875,0.0318148247897625,0.41065657138824463,-0.6214579939842224
1725631021891924700,1.6519248046875,0.15219856798648834,0.6819593906402588,-0.30942782759666443
1725631021901877800,1.661877685546875,0.23585884273052216,0.4838559031486511,-0.17618030309677124
1725631021911830800,1.671830810546875,0.2697117030620575,0.42054903507232666,-0.028174402192234993
1725631021921784600,1.68178466796875,0.35648176074028015,0.2856884002685547,0.03140051290392876
1725631021931737600,1.691737548828125,0.2298252284526825,0.1985054314136505,-0.053238920867443085
1725631021941690600,1.701690673828125,0.18133573234081268,0.10662904381752014,-0.11797663569450378
1725631021951643600,1.7116435546875,0.14928105473518372,0.05538016930222511,-0.26114511489868164
1725631021961596700,1.7215966796875,0.1559687852859497,0.040107473731040955,-0.34182024002075195
1725631021971549400,1.731549560546875,0.18261559307575226,-0.061615340411663055,-0.4256482720375061
1725631021981502500,1.74150244140625,0.22076325118541718,-0.2676697075366974,-0.5105045437812805
1725631021991455500,1.75145556640625,0.28689390420913696,-0.40833234786987305,-0.6469869613647461
1725631022001408500,1.761408447265625,0.33190932869911194,-0.4918876886367798,-0.8587948679924011
1725631022011361500,1.771361572265625,0.4039078652858734,-0.4553036689758301,-0.8091908693313599
1725631022021314600,1.781314453125,0.46283429861068726,-0.6023690700531006,-0.804019570350647
1725631022031267600,1.791267578125,0.42664259672164917,-0.41155022382736206,-0.6038179993629456
1725631022041220600,1.801220703125,0.3961925506591797,-0.34109124541282654,-0.4152459502220154
1725631022051173600,1.811173583984375,0.4007600247859955,-0.5171065926551819,-0.3078729212284088
1725631022061126700,1.821126708984375,0.41364893317222595,-0.9437265992164612,-0.3784509599208832
1725631022071079700,1.83107958984375,0.39373522996902466,-1.0279701948165894,-0.4786147475242615
1725631022081032400,1.841032470703125,0.3437540829181671,-0.5808736681938171,-0.31943896412849426
1725631022090985500,1.8509853515625,0.2495320439338684,-0.1219210997223854,-0.15968361496925354
1725631022100938500,1.8609384765625,0.22669437527656555,0.11770161241292953,-0.050608791410923004
1725631022110891500,1.8708916015625,0.15539968013763428,0.3412967026233673,-0.09309881925582886
1725631022120844500,1.880844482421875,0.09027475118637085,0.4677073657512665,-0.06885579228401184
1725631022130797600,1.890797607421875,0.04260026663541794,0.32820072770118713,0.04144915193319321
1725631022140751600,1.900751708984375,-0.01725560799241066,0.07192233204841614,0.18241986632347107
1725631022150704600,1.91070458984375,-0.016792843118309975,0.014397324994206429,0.25124719738960266
1725631022160658400,1.920658447265625,0.026112012565135956,0.04310939460992813,0.2414851188659668
1725631022170611200,1.930611083984375,0.09469567984342575,0.09784352034330368,0.2645864188671112
1725631022180564200,1.940564208984375,0.16687481105327606,0.13169655203819275,0.2992948591709137
1725631022190517200,1.950517333984375,0.23409198224544525,0.056760746985673904,0.2971656322479248
1725631022200470300,1.96047021484375,0.22557120025157928,-0.03170227259397507,0.2989366352558136
1725631022210423300,1.97042333984375,0.16883866488933563,-0.06900905817747116,0.3401368260383606
1725631022220376300,1.980376220703125,0.13610096275806427,-0.12396898120641708,0.39875221252441406
1725631022230329300,1.990329345703125,0.18185162544250488,-0.15044325590133667,0.4106552004814148
1725631022240282400,2.000282470703125,0.27034154534339905,-0.5280036330223083,0.2934899628162384
1725631022250235400,2.0102353515625,0.3192859888076782,-0.7146337628364563,0.16001397371292114
1725631022260188400,2.0201884765625,0.2600679397583008,-0.6374915838241577,0.010756848379969597
1725631022270141400,2.030141357421875,0.11260215938091278,-0.3200894892215729,-0.027851901948451996
1725631022280094200,2.04009423828125,-0.005658701993525028,-0.03029070794582367,0.11042901128530502
1725631022290047200,2.050047119140625,-0.07439974695444107,0.02716704271733761,0.26147425174713135
1725631022300000300,2.060000244140625,-0.13178473711013794,-0.05849380046129227,0.24309736490249634
1725631022309953300,2.069953369140625,-0.18347665667533875,-0.13981938362121582,0.07853776961565018
1725631022319906300,2.07990625,-0.19153325259685516,-0.10435859113931656,-0.028222231194376945
1725631022329860000,2.089860107421875,-0.1923956423997879,-0.17552489042282104,-0.07521753013134003
1725631022339813000,2.099813232421875,-0.22589820623397827,-0.24203947186470032,-0.08327625691890717
1725631022349766100,2.10976611328125,-0.2348196804523468,-0.2285124808549881,-0.049691714346408844
1725631022359719200,2.11971923828125,-0.25532445311546326,-0.15687663853168488,0.04882420599460602
1725631022369672200,2.129672119140625,-0.2632698714733124,-0.11310328543186188,0.12684853374958038
1725631022379625200,2.139625244140625,-0.2299894094467163,-0.06798427551984787,0.09268257766962051
1725631022389578200,2.149578125,-0.160588800907135,0.08785255998373032,0.08334360271692276
1725631022399531000,2.159531005859375,-0.073747918009758,0.2498933970928192,0.05971790477633476
1725631022409484000,2.169484130859375,-0.02820584923028946,0.3323073983192444,0.0698113963007927
1725631022419437000,2.17943701171875,0.012549037113785744,0.31032729148864746,0.08619968593120575
1725631022429390000,2.18939013671875,-0.0024206899106502533,0.1667378544807434,-0.045204777270555496
1725631022439343000,2.199343017578125,-0.013085585087537766,0.10972383618354797,-0.11021946370601654
1725631022449296100,2.209296142578125,-0.007657326757907867,0.16809724271297455,-0.09615747630596161
1725631022459249200,2.219249267578125,0.02379141002893448,0.18201439082622528,-0.13825379312038422
1725631022469202200,2.2292021484375,0.030572541058063507,0.17271798849105835,-0.24196143448352814
1725631022479155200,2.2391552734375,0.049287907779216766,0.12432782351970673,-0.274380087852478
1725631022489108200,2.249108154296875,0.013342700898647308,0.12736263871192932,-0.2640998363494873
1725631022499061200,2.259061279296875,-0.05029512941837311,0.1977582424879074,-0.21854005753993988
1725631022509015300,2.269015380859375,-0.06406684964895248,0.19474223256111145,-0.20272663235664368
1725631022518968300,2.27896826171875,-0.06987199932336807,0.15237532556056976,-0.1436835527420044
1725631022528921000,2.288921142578125,-0.19813460111618042,-0.08979010581970215,-0.34995177388191223
1725631022538874000,2.2988740234375,-0.24197661876678467,-0.24229629337787628,-0.6301772594451904
1725631022548827100,2.3088271484375,-0.19033214449882507,0.036573730409145355,-0.4242295026779175
1725631022558780200,2.3187802734375,-0.13556690514087677,0.2565460503101349,-0.2676268517971039
1725631022568733200,2.328733154296875,-0.06733997911214828,0.2466965764760971,-0.23476608097553253
1725631022578686200,2.338686279296875,-0.05117326229810715,0.19585736095905304,-0.2238902598619461
1725631022588639200,2.34863916015625,-0.09679605066776276,0.13715268671512604,-0.1592668890953064
1725631022598592300,2.35859228515625,-0.11422724276781082,0.08586820960044861,-0.07302813977003098
1725631022608545300,2.368545166015625,-0.07752687484025955,0.027979779988527298,-0.04941866546869278
1725631022618498300,2.378498291015625,-0.02811485156416893,0.05988391861319542,-0.17312222719192505
1725631022628451300,2.388451416015625,-0.028931831941008568,0.06342515349388123,-0.19453592598438263
1725631022638404000,2.398404052734375,-0.013218115083873272,-0.01565980724990368,-0.16775065660476685
1725631022648357000,2.408357177734375,0.054590776562690735,-0.10102921724319458,-0.17090193927288055
1725631022658310100,2.41831005859375,0.21358256042003632,-0.2754566967487335,-0.23696725070476532
1725631022668263200,2.42826318359375,0.3289836347103119,-0.2927113473415375,-0.30439287424087524
1725631022678216200,2.43821630859375,0.3376482427120209,-0.26147618889808655,-0.2707371711730957
1725631022688169200,2.448169189453125,0.2919488549232483,-0.19445186853408813,-0.1532343327999115
1725631022698123300,2.458123291015625,0.24814759194850922,-0.147616446018219,-0.04975401982665062
1725631022708076300,2.468076171875,0.2020760327577591,-0.0016318249981850386,0.024647071957588196
1725631022718029300,2.478029296875,0.2510147988796234,0.0502910278737545,0.019061891362071037
1725631022727982300,2.487982421875,0.3415360450744629,0.07896236330270767,0.007727161515504122
1725631022737935400,2.497935302734375,0.5626667737960815,-0.023336045444011688,0.001290034968405962
1725631022747888400,2.507888427734375,0.9044286012649536,-0.16874544322490692,-0.05848390609025955
1725631022757841400,2.51784130859375,1.241142749786377,-0.06913283467292786,-0.19013087451457977
1725631022767794200,2.527794189453125,1.4610363245010376,-0.09008537977933884,-0.26537778973579407
1725631022777747200,2.537747314453125,1.47463059425354,-0.08382615447044373,-0.20964448153972626
1725631022787700200,2.5477001953125,1.504920482635498,-0.0624905563890934,-0.07247284054756165
1725631022797653200,2.5576533203125,1.739463210105896,0.060886237770318985,-0.0003309990861453116
1725631022807606300,2.567606201171875,2.2775394916534424,0.11807984113693237,0.11085063219070435
1725631022817559300,2.577559326171875,2.8617539405822754,-0.1331438571214676,0.44421103596687317
1725631022827512300,2.58751220703125,3.1341729164123535,0.09113074839115143,0.24886555969715118
1725631022837465300,2.59746533203125,2.9876818656921387,-0.17016476392745972,0.1656460464000702
1725631022847418400,2.60741845703125,2.599069356918335,-0.2800758481025696,0.1990734040737152
1725631022857371400,2.617371337890625,2.07269287109375,-0.4444701373577118,0.3043215572834015
1725631022867324400,2.627324462890625,1.9530775547027588,-0.47455114126205444,0.35926225781440735
1725631022877277200,2.637277099609375,1.649275779724121,-0.34768161177635193,0.1865624040365219
1725631022887231200,2.647231201171875,1.0016849040985107,-0.470282644033432,0.0861707255244255
1725631022897184300,2.657184326171875,0.235943004488945,-0.46141937375068665,0.0637972429394722
1725631022907137300,2.66713720703125,-0.2754865884780884,-0.4291840195655823,0.1078985184431076
1725631022917090300,2.67709033203125,-0.5112212896347046,-0.34028610587120056,0.16712374985218048
1725631022927043000,2.68704296875,-0.6357784867286682,-0.23230016231536865,0.2872427701950073
1725631022936996000,2.69699609375,-0.7250081896781921,-0.1398586481809616,0.3475814759731293
1725631022946949000,2.70694921875,-0.7318857312202454,-0.0896369069814682,0.4316204786300659
1725631022956902100,2.716902099609375,-0.7459549307823181,-0.05780893936753273,0.5292066931724548
1725631022966855200,2.726855224609375,-0.7449411153793335,0.005424278322607279,0.619255006313324
1725631022976808200,2.73680810546875,-0.8198358416557312,0.10555087774991989,0.719139814376831
1725631022986761200,2.74676123046875,-0.7991258502006531,0.039448339492082596,0.7557093501091003
1725631022996714200,2.75671435546875,-0.8008619546890259,0.008137553930282593,0.8513277173042297
1725631023006667300,2.766667236328125,-0.8433175683021545,0.036323513835668564,0.9298925995826721
1725631023016620000,2.7766201171875,-0.8106434941291809,0.006258288398385048,0.9456206560134888
1725631023026573000,2.786572998046875,-0.719153881072998,0.10682667046785355,1.0162123441696167
1725631023036526000,2.796526123046875,-0.6205090880393982,0.12534336745738983,1.0271693468093872
1725631023046479000,2.80647900390625,-0.5047386884689331,0.15151353180408478,0.9431753158569336
1725631023056432000,2.81643212890625,-0.31220701336860657,0.4237178564071655,0.9350385665893555
1725631023066385200,2.82638525390625,-0.22664695978164673,0.6690886616706848,0.8199639320373535
1725631023076339200,2.836339111328125,-0.3883543610572815,0.6553595066070557,0.5945507884025574
1725631023086292200,2.846292236328125,-0.5220941305160522,0.24762819707393646,0.3851314187049866
1725631023096245200,2.856245361328125,-0.5113189816474915,0.12188944965600967,0.20403219759464264
1725631023106198300,2.8661982421875,-0.4974285662174225,0.1252393275499344,0.15970557928085327
1725631023116151300,2.8761513671875,-0.49268999695777893,0.18474580347537994,0.14893336594104767
1725631023126104300,2.886104248046875,-0.5833491086959839,0.22868238389492035,0.21256044507026672
1725631023136057000,2.89605712890625,-0.5868780612945557,0.2583089768886566,0.31776541471481323
1725631023146010000,2.906010009765625,-0.5934737324714661,0.3368154764175415,0.4588506519794464
1725631023155963100,2.915963134765625,-0.5624135732650757,0.40682733058929443,0.5621693730354309
1725631023165916200,2.925916259765625,-0.5055536031723022,0.32393085956573486,0.5346373915672302
1725631023175869200,2.935869140625,-0.4470905363559723,0.2611934244632721,0.4732195734977722
1725631023185822200,2.945822265625,-0.3921932280063629,0.21025913953781128,0.4451759457588196
1725631023195775200,2.955775146484375,-0.3396541178226471,0.16276513040065765,0.4623991549015045
1725631023205728000,2.96572802734375,-0.27920034527778625,0.10832354426383972,0.4921625554561615
1725631023215681000,2.975680908203125,-0.22010640799999237,0.04968765750527382,0.530201256275177
1725631023225634000,2.985634033203125,-0.12241821736097336,0.02428288199007511,0.45521992444992065
1725631023235587000,2.995587158203125,-0.06823300570249557,-0.022320305928587914,0.40066611766815186
1725631023245540000,3.0055400390625,-0.04217853397130966,-0.010830073617398739,0.26965194940567017
1725631023255493000,3.0154931640625,-0.05384078621864319,-0.039233751595020294,0.18296954035758972
1725631023265447200,3.025447265625,-0.09374871850013733,-0.05847734585404396,0.24564093351364136
1725631023275400200,3.035400146484375,-0.06728435307741165,0.0401107482612133,0.2831299901008606
1725631023285353200,3.045353271484375,-0.0493328832089901,0.10338201373815536,0.19982123374938965
1725631023295306200,3.05530615234375,-0.048789866268634796,0.06045584753155708,0.13654719293117523
1725631023305259300,3.06525927734375,-0.01930653676390648,0.02082686871290207,0.031029919162392616
1725631023315212300,3.07521240234375,0.008748534135520458,-0.026118002831935883,0.0076492284424602985
1725631023325165300,3.085165283203125,0.08214081823825836,0.00364674418233335,0.0031148488633334637
1725631023335118000,3.0951181640625,0.11954784393310547,0.013106026686728,-0.021906880661845207
1725631023345071000,3.105071044921875,0.18784548342227936,0.07369829714298248,-0.02529124729335308
1725631023355024100,3.115024169921875,0.21327200531959534,0.11571765691041946,-0.029875878244638443
1725631023364977200,3.12497705078125,0.2179911583662033,0.1761721819639206,0.013348264619708061
1725631023374930200,3.13493017578125,0.21426726877689362,0.16218553483486176,-0.04700269550085068
1725631023384883200,3.14488330078125,0.2595382034778595,0.1355268359184265,-0.029506808146834373
1725631023394836200,3.154836181640625,0.32119569182395935,0.1434476226568222,0.030958134680986404
1725631023404789200,3.164789306640625,0.3910817503929138,0.14312510192394257,0.052067726850509644
1725631023414742300,3.1747421875,0.4467809498310089,0.10662088543176651,0.02034095861017704
1725631023424695300,3.1846953125,0.5165359973907471,-0.04089643061161041,-0.07534214109182358
1725631023434648300,3.1946484375,0.5528444647789001,-0.07903076708316803,-0.06356244534254074
1725631023444601000,3.20460107421875,0.5764321088790894,-0.10141726583242416,-0.10014604032039642
1725631023454554000,3.21455419921875,0.5683885812759399,-0.14242781698703766,-0.14096271991729736
1725631023464508200,3.224508056640625,0.5379878282546997,-0.20226214826107025,-0.2010553777217865
1725631023474461200,3.234461181640625,0.5383747816085815,-0.24504423141479492,-0.2001509666442871
1725631023484414200,3.244414306640625,0.5381845831871033,-0.22377990186214447,-0.15074022114276886
1725631023494367200,3.2543671875,0.4683312475681305,-0.19247284531593323,-0.17139782011508942
1725631023504320300,3.2643203125,0.4154699742794037,-0.24196012318134308,-0.27820202708244324
1725631023514273300,3.274273193359375,0.38430458307266235,-0.33230867981910706,-0.3619872033596039
1725631023524226300,3.284226318359375,0.38149380683898926,-0.37801334261894226,-0.35254985094070435
1725631023534179300,3.294179443359375,0.3609456419944763,-0.37133094668388367,-0.26281651854515076
1725631023544132400,3.30413232421875,0.36048558354377747,-0.3716886043548584,-0.3418794274330139
1725631023554085400,3.31408544921875,0.41641223430633545,-0.4400298297405243,-0.47265955805778503
1725631023564038400,3.324038330078125,0.5210402607917786,-0.5292738676071167,-0.5100728869438171
1725631023573991200,3.3339912109375,0.6055343747138977,-0.5487247705459595,-0.45734095573425293
1725631023583944200,3.343944091796875,0.6555780172348022,-0.47300782799720764,-0.44835415482521057
1725631023593897200,3.353897216796875,0.6788141131401062,-0.3892815113067627,-0.45465943217277527
1725631023603850200,3.363850341796875,0.6863648295402527,-0.3374120593070984,-0.48508313298225403
1725631023613803300,3.37380322265625,0.6974161267280579,-0.33601072430610657,-0.4891284704208374
1725631023623756300,3.38375634765625,0.7280318140983582,-0.3623209595680237,-0.5167245864868164
1725631023633709300,3.393709228515625,0.7297490239143372,-0.35451844334602356,-0.597146213054657
1725631023643662300,3.403662353515625,0.7566535472869873,-0.2994213104248047,-0.5527138113975525
1725631023653615400,3.413615478515625,0.7399064898490906,-0.23749108612537384,-0.5498378872871399
1725631023663568400,3.423568359375,0.6839466691017151,-0.1864403933286667,-0.6033884286880493
1725631023673522200,3.433522216796875,0.6423696875572205,-0.08455556631088257,-0.4738911986351013
1725631023683475200,3.44347509765625,0.5898962616920471,-0.03928828239440918,-0.35959258675575256
1725631023693428200,3.45342822265625,0.5702288150787354,-0.019800331443548203,-0.3783891797065735
1725631023703381000,3.463381103515625,0.5793799757957458,-0.06726156920194626,-0.4151005446910858
1725631023713334000,3.473333984375,0.5986484885215759,-0.10724946111440659,-0.44313299655914307
1725631023723287000,3.483287109375,0.604228138923645,-0.14842693507671356,-0.4473506510257721
1725631023733240000,3.493239990234375,0.6112231612205505,-0.1872217357158661,-0.42081010341644287
1725631023743193000,3.503193115234375,0.6166127324104309,-0.21582366526126862,-0.3870905041694641
1725631023753146000,3.51314599609375,0.619437038898468,-0.18645912408828735,-0.3045998811721802
1725631023763099100,3.52309912109375,0.6365178227424622,-0.2009960561990738,-0.25398701429367065
1725631023773052200,3.53305224609375,0.6461156010627747,-0.21093790233135223,-0.24987295269966125
1725631023783005200,3.543005126953125,0.5977010130882263,-0.1461251974105835,-0.3196158707141876
1725631023792958200,3.552958251953125,0.5827281475067139,-0.17219461500644684,-0.31641316413879395
1725631023802911000,3.562910888671875,0.5492318272590637,-0.050498247146606445,-0.28993645310401917
1725631023812864000,3.572864013671875,0.5252823233604431,-0.13048496842384338,-0.23808152973651886
1725631023822817000,3.582817138671875,0.4414615333080292,0.047088611871004105,-0.16352951526641846
1725631023832770000,3.59277001953125,0.44492578506469727,-0.08997123688459396,-0.1748332977294922
1725631023842723000,3.60272314453125,0.3685199022293091,0.13406971096992493,-0.20327110588550568
1725631023852676000,3.612676025390625,0.37135377526283264,-0.01905566267669201,-0.2535366714000702
1725631023862629000,3.622629150390625,0.3360670208930969,0.05716700479388237,-0.2694328725337982
1725631023872582100,3.63258203125,0.29680564999580383,0.17665930092334747,-0.30175697803497314
1725631023882535200,3.64253515625,0.2807180881500244,0.15728439390659332,-0.2704576253890991
1725631023892489200,3.6524892578125,0.22881628572940826,0.2981557548046112,-0.16604867577552795
1725631023902442200,3.662442138671875,0.20490504801273346,0.26369690895080566,-0.11380404978990555
1725631023912395300,3.672395263671875,0.1911626011133194,0.357066810131073,-0.08555270731449127
1725631023922348300,3.682348388671875,0.18960654735565186,0.2996727228164673,0.009984441101551056
1725631023932301000,3.692301025390625,0.18338966369628906,0.3333340287208557,0.1531972587108612
1725631023942254000,3.702254150390625,0.13890483975410461,0.4229383170604706,0.2895631194114685
1725631023952207000,3.71220703125,0.07361504435539246,0.42273300886154175,0.34966427087783813
1725631023962160000,3.72216015625,0.0630955696105957,0.37004074454307556,0.39792072772979736
1725631023972113200,3.732113037109375,0.07275564968585968,0.3511253893375397,0.4229073226451874
1725631023982066200,3.742066162109375,0.12072744965553284,0.37869325280189514,0.3817744553089142
1725631023992019200,3.752019287109375,0.1164083331823349,0.39628633856773376,0.2637631297111511
1725631024001972200,3.76197216796875,0.10601237416267395,0.3148212134838104,0.10026830434799194
1725631024011925200,3.77192529296875,0.06311763823032379,0.3704354763031006,0.05936507508158684
1725631024021878300,3.781878173828125,-0.056777045130729675,0.3812217712402344,0.07344145327806473
1725631024031831300,3.791831298828125,-0.07507802546024323,0.15352655947208405,-0.011760258115828037
1725631024041784000,3.8017841796875,-0.12941990792751312,-0.013719920068979263,-0.16640689969062805
1725631024051737000,3.811737060546875,-0.16369718313217163,-0.1261173039674759,-0.315369188785553
1725631024061690000,3.821690185546875,-0.16201475262641907,-0.21695247292518616,-0.4545457065105438
1725631024071643100,3.83164306640625,-0.14373669028282166,-0.32791441679000854,-0.53795325756073
1725631024081596200,3.84159619140625,-0.1421089768409729,-0.46767479181289673,-0.5365633964538574
1725631024091549200,3.851549072265625,-0.13789133727550507,-0.611575186252594,-0.464496910572052
1725631024101502200,3.861502197265625,-0.2256186604499817,-0.6387491822242737,-0.31521257758140564
1725631024111456300,3.871456298828125,-0.2719443738460541,-0.6545071005821228,-0.1832987368106842
1725631024121409300,3.8814091796875,-0.3144218623638153,-0.736002504825592,-0.18002918362617493
1725631024131362300,3.8913623046875,-0.3312176465988159,-0.6444441080093384,-0.1527448296546936
1725631024141315300,3.9013154296875,-0.3007321059703827,-0.5845773220062256,-0.07093305140733719
1725631024151268400,3.911268310546875,-0.29166269302368164,-0.5242745876312256,-0.03538571670651436
1725631024161220600,3.921220703125,-0.22175149619579315,-0.5781146883964539,0.05678129196166992
1725631024171173600,3.931173583984375,-0.11412651091814041,-0.6523545980453491,0.06962758302688599
1725631024181126700,3.941126708984375,-0.04433509707450867,-0.5156766176223755,0.04449371621012688
1725631024191079700,3.95107958984375,-0.00595388887450099,-0.37690165638923645,0.01779259368777275
1725631024201032700,3.96103271484375,0.009381438605487347,-0.31838688254356384,-0.09887515753507614
1725631024210985700,3.97098583984375,0.008583822287619114,-0.21915192902088165,-0.0716153085231781
1725631024220938800,3.980938720703125,-0.005773656535893679,-0.12996338307857513,0.07614081352949142
1725631024230891800,3.990891845703125,-0.013568196445703506,-0.04732789844274521,0.11214009672403336
1725631024240844800,4.0008447265625,-0.0057782139629125595,-0.027871083468198776,0.01490225549787283
1725631024250797600,4.010797607421875,0.010774396359920502,-0.04625009372830391,-0.0414867177605629
1725631024260750600,4.02075048828125,-0.04003014415502548,-0.061665285378694534,-0.06926019489765167
1725631024270703600,4.03070361328125,-0.1227433979511261,0.00848317425698042,-0.04728858172893524
1725631024280656600,4.04065673828125,-0.23174883425235748,0.08848141133785248,0.020516518503427505
1725631024290609700,4.050609619140625,-0.3287275731563568,0.1532963514328003,0.16027042269706726
1725631024300562700,4.060562744140625,-0.3546651601791382,0.1276160180568695,0.2861388623714447
1725631024310516500,4.0705166015625,-0.34309878945350647,0.1279454529285431,0.27937018871307373
1725631024320469500,4.080469482421875,-0.3603287935256958,0.15732385218143463,0.18865089118480682
1725631024330422500,4.090422607421875,-0.36178794503211975,0.15526576340198517,0.2106078565120697
1725631024340375600,4.10037548828125,-0.31538692116737366,0.08654095977544785,0.331863671541214
1725631024350328600,4.11032861328125,-0.2668111324310303,0.06049976497888565,0.40270668268203735
1725631024360281600,4.120281494140625,-0.19156691431999207,0.04677293449640274,0.4003860652446747
1725631024370234600,4.130234619140625,-0.11813798546791077,0.02216186188161373,0.33608296513557434
1725631024380187400,4.1401875,-0.03763416036963463,-0.014739995822310448,0.23934926092624664
1725631024390140400,4.150140380859375,0.014504407532513142,-0.06339940428733826,0.1352822482585907
1725631024400093400,4.160093505859375,0.003369854763150215,0.05882246419787407,0.08763402700424194
1725631024410046500,4.17004638671875,-0.021000998094677925,0.01845267228782177,0.07107582688331604
1725631024419999500,4.17999951171875,-0.03614078462123871,-0.026938699185848236,0.039398618042469025
1725631024429952500,4.189952392578125,-0.08950573951005936,-0.04380662739276886,-0.018308619037270546
1725631024439905500,4.199905517578125,-0.10582712292671204,-0.1601865440607071,-0.09038899093866348
1725631024449858600,4.209858642578125,-0.15672306716442108,-0.1639421433210373,-0.022229112684726715
1725631024459811600,4.2198115234375,-0.17788423597812653,-0.2100328803062439,0.05531415343284607
1725631024469764600,4.2297646484375,-0.1761007159948349,-0.22706058621406555,0.1086367592215538
1725631024479717600,4.239717529296875,-0.2287880927324295,-0.16685117781162262,0.12165859341621399
1725631024489670400,4.24967041015625,-0.2931908071041107,-0.23443102836608887,0.10117702186107635
1725631024499624700,4.259624755859375,-0.32986998558044434,-0.16943487524986267,0.07786377519369125
1725631024509577500,4.269577392578125,-0.33222049474716187,-0.13468141853809357,0.09911872446537018
1725631024519530500,4.279530517578125,-0.3102486729621887,-0.12837837636470795,0.18644507229328156
1725631024529483500,4.2894833984375,-0.28485623002052307,-0.0993155762553215,0.2545876204967499
1725631024539436500,4.2994365234375,-0.312227725982666,-0.06487571448087692,0.2563227713108063
1725631024549389600,4.3093896484375,-0.35607853531837463,0.017786405980587006,0.32802411913871765
1725631024559342600,4.319342529296875,-0.35598549246788025,0.09399402141571045,0.41465985774993896
1725631024569295600,4.329295654296875,-0.39340582489967346,0.12320117652416229,0.4209579825401306
1725631024579248600,4.33924853515625,-0.3677685260772705,0.10527678579092026,0.24732981622219086
1725631024589201700,4.34920166015625,-0.41311365365982056,0.09933793544769287,0.08172193914651871
1725631024599154700,4.35915478515625,-0.4557270407676697,0.13893401622772217,0.06952351331710815
1725631024609107700,4.369107666015625,-0.49124160408973694,0.24605220556259155,0.1842077374458313
1725631024619060500,4.379060546875,-0.5211275219917297,0.3169061541557312,0.29545190930366516
1725631024629013500,4.389013427734375,-0.540390133857727,0.2652709186077118,0.32709693908691406
1725631024638966500,4.398966552734375,-0.5538935661315918,0.1193576380610466,0.3679858446121216
1725631024648919600,4.40891943359375,-0.5875713229179382,0.296225905418396,0.3903667628765106
1725631024658872600,4.41887255859375,-0.5889830589294434,0.351341187953949,0.3450584411621094
1725631024668826600,4.42882666015625,-0.6172674298286438,0.32017818093299866,0.40750691294670105
1725631024678779600,4.438779541015625,-0.7187654376029968,0.3180452883243561,0.575385570526123
1725631024688732700,4.448732666015625,-0.7829715609550476,0.42116209864616394,0.5982341766357422
1725631024698685700,4.458685791015625,-0.7743924260139465,0.3924999237060547,0.5293723344802856
1725631024708638700,4.468638671875,-0.763603687286377,0.3890431225299835,0.5236161947250366
1725631024718591700,4.478591796875,-0.7685532569885254,0.45043444633483887,0.5845545530319214
1725631024728544800,4.488544677734375,-0.7891749143600464,0.5000597834587097,0.5417487621307373
1725631024738497800,4.498497802734375,-0.7856929302215576,0.47962209582328796,0.5253013968467712
1725631024748450600,4.508450439453125,-0.7689136862754822,0.44046589732170105,0.4906025528907776
1725631024758403600,4.518403564453125,-0.7210383415222168,0.4043530821800232,0.4518199861049652
1725631024768356600,4.528356689453125,-0.692326545715332,0.36530688405036926,0.43047821521759033
1725631024778309600,4.5383095703125,-0.6613560914993286,0.31144148111343384,0.3986937403678894
1725631024788262700,4.5482626953125,-0.5892810821533203,0.2982679009437561,0.4513353705406189
1725631024798215700,4.558215576171875,-0.5485315918922424,0.2659105360507965,0.47899651527404785
1725631024808168700,4.568168701171875,-0.515233039855957,0.194424107670784,0.39270368218421936
1725631024818121700,4.578121826171875,-0.46829870343208313,0.0836031436920166,0.343795508146286
1725631024828074800,4.58807470703125,-0.3894675374031067,0.061249904334545135,0.36118754744529724
1725631024838028500,4.598028564453125,-0.3457738161087036,0.015094205737113953,0.3280229866504669
1725631024847981600,4.607981689453125,-0.3042604625225067,-0.032270647585392,0.26869654655456543
1725631024857934600,4.6179345703125,-0.2829688787460327,-0.017075704410672188,0.26466166973114014
1725631024867887600,4.6278876953125,-0.2551380693912506,0.01871931180357933,0.2813410460948944
1725631024877840600,4.637840576171875,-0.2170306295156479,-0.003626636229455471,0.2765631079673767
1725631024887793700,4.647793701171875,-0.14645366370677948,-0.0550360344350338,0.2739465534687042
1725631024897746700,4.65774658203125,-0.10502345860004425,-0.03970711678266525,0.2824243903160095
1725631024907699700,4.66769970703125,-0.09619907289743423,-0.0638611912727356,0.2621907591819763
1725631024917652500,4.677652587890625,-0.07204052805900574,-0.11699283123016357,0.22296494245529175
1725631024927605500,4.68760546875,-0.04321340471506119,-0.1642056107521057,0.13754698634147644
1725631024937558500,4.69755859375,0.001803843304514885,-0.21772988140583038,0.07715806365013123
1725631024947511600,4.707511474609375,0.06069379299879074,-0.26667025685310364,0.09876242280006409
1725631024957464600,4.717464599609375,0.09258658438920975,-0.29652106761932373,0.11203557252883911
1725631024967417600,4.72741748046875,0.14760003983974457,-0.3354296088218689,0.14175112545490265
1725631024977370600,4.73737060546875,0.1719837784767151,-0.35335594415664673,0.16271664202213287
1725631024987323600,4.74732373046875,0.1728687435388565,-0.390729695558548,0.10040958970785141
1725631024997276700,4.757276611328125,0.1818285584449768,-0.44853031635284424,0.09123072028160095
1725631025007229400,4.7672294921875,0.19409960508346558,-0.47396618127822876,0.04093239828944206
1725631025017183500,4.77718359375,0.2012515515089035,-0.4894901216030121,-0.010206511244177818
1725631025027136500,4.787136474609375,0.2533845603466034,-0.5267423987388611,-0.0540756992995739
1725631025037089500,4.797089599609375,0.28888270258903503,-0.4809891879558563,-0.0524895079433918
1725631025047042600,4.80704248046875,0.3452274799346924,-0.3969467580318451,-0.06922481209039688
1725631025056995600,4.81699560546875,0.3676660358905792,-0.3473358452320099,-0.11725567281246185
1725631025066948600,4.826948486328125,0.39338818192481995,-0.307015061378479,-0.1610572189092636
1725631025076901600,4.836901611328125,0.41301482915878296,-0.23421673476696014,-0.18721209466457367
1725631025086854700,4.846854736328125,0.4263556897640228,-0.17402583360671997,-0.2401197850704193
1725631025096807700,4.8568076171875,0.42468103766441345,-0.16206476092338562,-0.3141544461250305
1725631025106760400,4.866760498046875,0.4371771216392517,-0.14427722990512848,-0.38654768466949463
1725631025116713500,4.87671337890625,0.44359707832336426,-0.09644338488578796,-0.4504424035549164
1725631025126666500,4.88666650390625,0.4668174386024475,-0.05352601781487465,-0.5107241868972778
1725631025136619500,4.89661962890625,0.4623366892337799,-0.02154073491692543,-0.5243205428123474
1725631025146572500,4.906572509765625,0.4490182101726532,0.02009219489991665,-0.5652977824211121
1725631025156525600,4.916525634765625,0.45780399441719055,0.07042858004570007,-0.525240421295166
1725631025166479000,4.92647900390625,0.454964280128479,0.14968611299991608,-0.4757844805717468
1725631025176432000,4.93643212890625,0.4392237663269043,0.22881253063678741,-0.5010156035423279
1725631025186386200,4.94638623046875,0.4381486475467682,0.26319634914398193,-0.5491562485694885
1725631025196339200,4.956339111328125,0.4595780670642853,0.2626696527004242,-0.5598461031913757
1725631025206292200,4.966292236328125,0.4870051443576813,0.3027592897415161,-0.6197512745857239
1725631025216245000,4.976244873046875,0.5099407434463501,0.3069460988044739,-0.6748372316360474
1725631025226198000,4.986197998046875,0.5140215158462524,0.3022749125957489,-0.6526674628257751
1725631025236151000,4.996151123046875,0.4915040135383606,0.33745086193084717,-0.5862471461296082
1725631025246104000,5.00610400390625,0.45970216393470764,0.3893851637840271,-0.5895654559135437
1725631025256057000,5.01605712890625,0.45536962151527405,0.38596034049987793,-0.5584236979484558
1725631025266010000,5.026010009765625,0.45990365743637085,0.3750251233577728,-0.500342845916748
1725631025275963100,5.035963134765625,0.4629592001438141,0.3776961863040924,-0.4420764446258545
1725631025285916200,5.045916259765625,0.46271923184394836,0.3594668507575989,-0.4502832591533661
1725631025295869200,5.055869140625,0.47728511691093445,0.3256075382232666,-0.4594671130180359
1725631025305822200,5.065822265625,0.5133182406425476,0.2779553532600403,-0.45985591411590576
1725631025315775000,5.07577490234375,0.5665507316589355,0.22409169375896454,-0.45841410756111145
1725631025325728000,5.08572802734375,0.5999550223350525,0.19011828303337097,-0.4308607876300812
1725631025335681000,5.095680908203125,0.6209866404533386,0.19149687886238098,-0.34845829010009766
1725631025345634000,5.105634033203125,0.6312105059623718,0.21984516084194183,-0.2688223123550415
1725631025355587000,5.115587158203125,0.5955069065093994,0.23352158069610596,-0.24256519973278046
1725631025365540000,5.1255400390625,0.5733781456947327,0.25792837142944336,-0.2884538471698761
1725631025375494000,5.135493896484375,0.5697463750839233,0.2312980592250824,-0.3392520546913147
1725631025385447000,5.145447021484375,0.5243235230445862,0.1903918981552124,-0.2919332683086395
1725631025395400000,5.15539990234375,0.49173009395599365,0.19105805456638336,-0.30506670475006104
1725631025405353000,5.16535302734375,0.42463573813438416,0.19222505390644073,-0.3034325838088989
1725631025415306000,5.175305908203125,0.3544897139072418,0.2156756967306137,-0.22980409860610962
1725631025425259000,5.185259033203125,0.29112672805786133,0.21715028584003448,-0.13484908640384674
1725631025435212000,5.1952119140625,0.23490408062934875,0.22616153955459595,-0.09386835247278214
1725631025445164800,5.205164794921875,0.22010542452335358,0.184823676943779,-0.049093421548604965
1725631025455117800,5.215117919921875,0.23765252530574799,0.0946165919303894,-0.034215960651636124
1725631025465070800,5.22507080078125,0.27895206212997437,0.03574581444263458,-0.0767410546541214
1725631025475024000,5.23502392578125,0.3217410445213318,-0.017214711755514145,-0.12663863599300385
1725631025484977000,5.244976806640625,0.34140318632125854,-0.02249123342335224,-0.11515934020280838
1725631025494930000,5.254929931640625,0.30811136960983276,-0.0330800823867321,-0.026999490335583687
1725631025504883000,5.264883056640625,0.25340551137924194,0.05386440083384514,0.1068136990070343
1725631025514836000,5.2748359375,0.14480604231357574,0.04419941455125809,0.20207904279232025
1725631025524789000,5.2847890625,0.09158783406019211,0.07344971597194672,0.27846890687942505
1725631025534742000,5.294741943359375,0.10147657990455627,-0.055320072919130325,0.31754451990127563
1725631025544695000,5.304695068359375,0.03518516942858696,0.043957509100437164,0.33535653352737427
1725631025554649000,5.314649169921875,0.05907200276851654,-0.05712917447090149,0.25572797656059265
1725631025564602000,5.32460205078125,0.05547273904085159,-0.03956642374396324,0.1975187063217163
1725631025574555000,5.334554931640625,0.022690242156386375,0.051018014550209045,0.1397898942232132
1725631025584508000,5.3445078125,0.06178198382258415,-0.06612565368413925,0.04354192689061165
1725631025594461000,5.3544609375,0.07216410338878632,-0.08009680360555649,0.030219202861189842
1725631025604414000,5.3644140625,0.08207745105028152,-0.08000865578651428,-0.008416606113314629
1725631025614367000,5.374366943359375,0.07504447549581528,-0.09378210455179214,-0.048331812024116516
1725631025624320000,5.384320068359375,0.04185217246413231,-0.1318432092666626,-0.07557860761880875
1725631025634273000,5.39427294921875,0.03541748598217964,-0.1325669288635254,-0.05192502960562706
1725631025644226000,5.40422607421875,0.02723066508769989,-0.15388073027133942,-0.11341448873281479
1725631025654179000,5.414178955078125,0.020591212436556816,-0.18141351640224457,-0.17538759112358093
1725631025664132000,5.424132080078125,0.02507118321955204,-0.1709856390953064,-0.2205342948436737
1725631025674085000,5.434085205078125,0.010431304574012756,-0.14857304096221924,-0.1796640008687973
1725631025684038000,5.444037841796875,-0.031236248090863228,-0.059056468307971954,-0.10920395702123642
1725631025693991000,5.453990966796875,-0.08177918195724487,-0.0179128535091877,-0.013587405905127525
1725631025703944000,5.46394384765625,-0.0984865128993988,-0.042489565908908844,0.08929130434989929
1725631025713897000,5.47389697265625,-0.10720404237508774,-0.047557536512613297,0.07155238091945648
1725631025723850000,5.48385009765625,-0.11903274059295654,0.005346690304577351,0.06362095475196838
1725631025733803000,5.493802978515625,-0.13546854257583618,0.059297189116477966,0.11808433383703232
1725631025743757000,5.503757080078125,-0.1401788741350174,0.027803178876638412,0.1271880865097046
1725631025753710000,5.5137099609375,-0.1175508201122284,-0.013127824291586876,0.01650228351354599
1725631025763663000,5.5236630859375,-0.10205335170030594,-0.058199163526296616,-0.08698469400405884
1725631025773616000,5.5336162109375,-0.09774161130189896,-0.045725949108600616,-0.14140480756759644
1725631025783569200,5.543569091796875,-0.12024319171905518,-0.013284385204315186,-0.13343369960784912
1725631025793522200,5.553522216796875,-0.13280507922172546,-0.07525433599948883,-0.03743009269237518
1725631025803475200,5.56347509765625,-0.12004055827856064,-0.17193081974983215,-0.03481167182326317
1725631025813428000,5.573427978515625,-0.0806303322315216,-0.2640305459499359,-0.14370040595531464
1725631025823381000,5.583381103515625,-0.023758795112371445,-0.39562106132507324,-0.29849424958229065
1725631025833334000,5.593333984375,0.023736469447612762,-0.36279037594795227,-0.29399678111076355
1725631025843287000,5.603287109375,-0.003332963678985834,-0.27059227228164673,-0.25619107484817505
1725631025853240000,5.613239990234375,-0.08441653102636337,-0.21052755415439606,-0.20522046089172363
1725631025863193000,5.623193115234375,-0.237586110830307,-0.16894309222698212,-0.07591253519058228
1725631025873146000,5.63314599609375,-0.3638889193534851,-0.20564155280590057,0.14245516061782837
1725631025883099100,5.64309912109375,-0.41638779640197754,-0.2639397382736206,0.18298740684986115
1725631025893052200,5.65305224609375,-0.4292365312576294,-0.3323264420032501,0.13005702197551727
1725631025903005200,5.663005126953125,-0.4438309073448181,-0.3879801034927368,0.16893011331558228
1725631025912958200,5.672958251953125,-0.44432616233825684,-0.4049673080444336,0.23189692199230194
1725631025922911000,5.682910888671875,-0.4145493507385254,-0.3397318422794342,0.15040020644664764
1725631025932864000,5.692864013671875,-0.38829874992370605,-0.2834407687187195,0.05141318216919899
1725631025942818000,5.702818115234375,-0.3868185579776764,-0.2837563455104828,0.026427404955029488
1725631025952771000,5.71277099609375,-0.4103720784187317,-0.27217844128608704,0.06440331786870956
1725631025962724000,5.72272412109375,-0.4203919470310211,-0.22478188574314117,0.0976206585764885
1725631025972677000,5.732677001953125,-0.39556482434272766,-0.16079796850681305,0.15352576971054077
1725631025982630000,5.7426298828125,-0.3661630153656006,-0.1838686764240265,0.15102852880954742
1725631025992583000,5.7525830078125,-0.39058130979537964,-0.16789935529232025,0.022856971248984337
1725631026002536000,5.762535888671875,-0.4301212728023529,-0.09808458387851715,-0.10279203206300735
1725631026012489000,5.772489013671875,-0.4515124261379242,-0.10038910806179047,-0.08525856584310532
1725631026022442000,5.78244189453125,-0.45686352252960205,-0.18486857414245605,-0.00945940613746643
1725631026032395000,5.79239501953125,-0.5278443098068237,-0.28478002548217773,0.07484231889247894
1725631026042348000,5.80234814453125,-0.6168695092201233,-0.28084975481033325,0.24497011303901672
1725631026052301000,5.812301025390625,-0.6426567435264587,-0.2938666045665741,0.36833781003952026
1725631026062254000,5.822254150390625,-0.6012626886367798,-0.32163962721824646,0.4751931428909302
1725631026072206800,5.832206787109375,-0.573387622833252,-0.3080906271934509,0.5846824645996094
1725631026082159900,5.842159912109375,-0.5374882221221924,-0.2896958887577057,0.47468671202659607
1725631026092113000,5.85211279296875,-0.5141717195510864,-0.2698439955711365,0.3282032310962677
1725631026102066000,5.86206591796875,-0.48911991715431213,-0.23148222267627716,0.25964999198913574
1725631026112019000,5.87201904296875,-0.5153207778930664,-0.14744117856025696,0.2218502014875412
1725631026121973000,5.881972900390625,-0.5244338512420654,-0.12269268929958344,0.12155342847108841
1725631026131926000,5.891926025390625,-0.5409895777702332,-0.18117521703243256,0.15093030035495758
1725631026141879000,5.901879150390625,-0.5552627444267273,-0.18238216638565063,0.40431490540504456
1725631026151832000,5.91183203125,-0.513896644115448,-0.18547262251377106,0.5142713785171509
1725631026161784800,5.921784912109375,-0.49422547221183777,-0.312743216753006,0.42009297013282776
1725631026171737600,5.931737548828125,-0.4992721676826477,-0.3431342542171478,0.35684099793434143
1725631026181690600,5.941690673828125,-0.5419278144836426,-0.2227838635444641,0.42122983932495117
1725631026191643600,5.9516435546875,-0.5967966914176941,-0.1740044355392456,0.3286495804786682
1725631026201596700,5.9615966796875,-0.6693132519721985,-0.23625075817108154,0.2071617841720581
1725631026211549700,5.9715498046875,-0.7258287668228149,-0.22638942301273346,0.2666338384151459
1725631026221502700,5.981502685546875,-0.7488256692886353,-0.15228936076164246,0.28916844725608826
1725631026231455700,5.991455810546875,-0.7091910243034363,-0.15322469174861908,0.3203129470348358
1725631026241408800,6.00140869140625,-0.6809849143028259,-0.12124252319335938,0.5035970211029053
1725631026251361800,6.01136181640625,-0.7022189497947693,-0.08149195462465286,0.5433518886566162
1725631026261314800,6.021314697265625,-0.7493816614151001,-0.11950884014368057,0.44588741660118103
1725631026271267800,6.031267822265625,-0.782759428024292,-0.17879194021224976,0.3843512535095215
1725631026281222000,6.041221923828125,-0.7752690315246582,-0.16988126933574677,0.4174567461013794
1725631026291175000,6.0511748046875,-0.7423508167266846,-0.12637263536453247,0.4460029602050781
1725631026301127700,6.061127685546875,-0.6645750999450684,-0.0762663185596466,0.4610338509082794
1725631026311080700,6.071080810546875,-0.5717220306396484,0.005693270359188318,0.546076238155365
1725631026321033700,6.08103369140625,-0.45853474736213684,0.14383436739444733,0.6484364867210388
1725631026330986800,6.09098681640625,-0.31495723128318787,0.19781459867954254,0.6301042437553406
1725631026340939800,6.100939697265625,-0.18082444369792938,0.27469873428344727,0.6500276327133179
1725631026350892800,6.110892822265625,-0.060118287801742554,0.32063037157058716,0.6087433695793152
1725631026360845800,6.120845703125,0.014191364869475365,0.30850738286972046,0.4662850499153137
1725631026370798800,6.130798828125,0.07523626834154129,0.23362088203430176,0.2893683612346649
1725631026380752000,6.140751953125,0.14354528486728668,0.248136967420578,0.2653450667858124
1725631026390705000,6.150704833984375,0.17157499492168427,0.2801543176174164,0.256655752658844
1725631026400658000,6.160657958984375,0.188651442527771,0.27166444063186646,0.25599369406700134
1725631026410610700,6.170610595703125,0.16006746888160706,0.2225293666124344,0.23915809392929077
1725631026420563700,6.180563720703125,0.11832136660814285,0.18374228477478027,0.17550134658813477
1725631026430516700,6.190516845703125,0.09452071040868759,0.08499635010957718,0.07245036214590073
1725631026440469800,6.2004697265625,0.12295528501272202,-0.029225829988718033,0.0038164404686540365
1725631026450423800,6.210423828125,0.1578725427389145,-0.12006077170372009,-0.04852965101599693
1725631026460376800,6.220376953125,0.16091467440128326,-0.1756124496459961,-0.028208132833242416
1725631026470329900,6.230329833984375,0.15540440380573273,-0.17340826988220215,0.009571374393999577
1725631026480283000,6.240282958984375,0.12677621841430664,-0.14928056299686432,0.024992940947413445
1725631026490236000,6.25023583984375,0.13784825801849365,-0.13671883940696716,0.02378089725971222
1725631026500189000,6.26018896484375,0.16381993889808655,-0.1375414878129959,-0.04690206050872803
1725631026510142000,6.270141845703125,0.2051212191581726,-0.15936757624149323,-0.1660418063402176
1725631026520095000,6.280094970703125,0.28810426592826843,-0.22090096771717072,-0.31138330698013306
1725631026530048000,6.290048095703125,0.3584718108177185,-0.24766649305820465,-0.3924822211265564
1725631026540000800,6.300000732421875,0.39891085028648376,-0.21857890486717224,-0.4484274983406067
1725631026549953800,6.309953857421875,0.3927058279514313,-0.19927985966205597,-0.47462964057922363
1725631026559906800,6.31990673828125,0.3599771559238434,-0.16722604632377625,-0.5105943083763123
1725631026569859800,6.32985986328125,0.3444914221763611,-0.14478909969329834,-0.5696747899055481
1725631026579812900,6.339812744140625,0.33998748660087585,-0.12535974383354187,-0.5881634950637817
1725631026589766000,6.349765869140625,0.33909136056900024,-0.11469539999961853,-0.6309179067611694
1725631026599719700,6.3597197265625,0.34953227639198303,-0.12296424806118011,-0.6762483716011047
1725631026609672700,6.369672607421875,0.3701469898223877,-0.13468879461288452,-0.6555667519569397
1725631026619625700,6.379625732421875,0.37648582458496094,-0.09257276356220245,-0.6149647831916809
1725631026629578800,6.389578857421875,0.3785889148712158,-0.0573001354932785,-0.6549562811851501
1725631026639531800,6.39953173828125,0.4198921322822571,-0.03681590035557747,-0.672906756401062
1725631026649484800,6.40948486328125,0.4749346673488617,-0.0034747906029224396,-0.6492581367492676
1725631026659437800,6.419437744140625,0.5490344762802124,0.044206712394952774,-0.6057998538017273
1725631026669390600,6.429390625,0.6090850830078125,0.0979321077466011,-0.5623559951782227
1725631026679343600,6.439343505859375,0.6731114983558655,0.14320051670074463,-0.5335397720336914
1725631026689296600,6.449296630859375,0.7068890929222107,0.16874933242797852,-0.5370460748672485
1725631026699249700,6.459249755859375,0.72576904296875,0.19319474697113037,-0.5519131422042847
1725631026709202700,6.46920263671875,0.7440723776817322,0.20759786665439606,-0.6007533669471741
1725631026719155700,6.47915576171875,0.7719948291778564,0.20984850823879242,-0.6125751733779907
1725631026729108700,6.489108642578125,0.7863413095474243,0.21913687884807587,-0.5702149868011475
1725631026739061800,6.499061767578125,0.7894702553749084,0.26080256700515747,-0.5344812273979187
1725631026749014800,6.509014892578125,0.8035484552383423,0.32333484292030334,-0.4480556845664978
1725631026758968800,6.51896875,0.7786002159118652,0.3781634569168091,-0.3864296078681946
1725631026768921900,6.528921875,0.7204971313476562,0.42893072962760925,-0.3363163471221924
1725631026778875000,6.538875,0.6468274593353271,0.4393218457698822,-0.3079582154750824
1725631026788828000,6.548827880859375,0.6088285446166992,0.4252517521381378,-0.3279920816421509
1725631026798780700,6.55878076171875,0.5919174551963806,0.38145631551742554,-0.418312132358551
1725631026808733700,6.568733642578125,0.6018630266189575,0.3534742295742035,-0.46060124039649963
1725631026818686700,6.578686767578125,0.6319740414619446,0.39255955815315247,-0.43770286440849304
1725631026828639700,6.5886396484375,0.6158116459846497,0.4366703927516937,-0.34047800302505493
1725631026838592800,6.5985927734375,0.5617238879203796,0.49567911028862,-0.3051506578922272
1725631026848545800,6.6085458984375,0.508003830909729,0.5490741729736328,-0.3393140435218811
1725631026858498800,6.618498779296875,0.50748610496521,0.527248740196228,-0.36962080001831055
1725631026868451800,6.628451904296875,0.49675053358078003,0.4333565831184387,-0.2886292338371277
1725631026878404900,6.63840478515625,0.4930362105369568,0.3432384133338928,-0.2193920910358429
1725631026888358000,6.64835791015625,0.4243108332157135,0.3236057758331299,-0.09452632069587708
1725631026898311000,6.658310791015625,0.3497985005378723,0.3550987243652344,0.0681118592619896
1725631026908263700,6.668263671875,0.32531988620758057,0.3647376298904419,0.1786583513021469
1725631026918218000,6.678218017578125,0.34004077315330505,0.321507066488266,0.2734037935733795
1725631026928170800,6.688170654296875,0.3247513175010681,0.24954494833946228,0.30794256925582886
1725631026938123800,6.698123779296875,0.3430059552192688,0.16575631499290466,0.3217233419418335
1725631026948076800,6.708076904296875,0.35279878973960876,0.11990955471992493,0.37305840849876404
1725631026958029800,6.71802978515625,0.32710060477256775,0.10226158797740936,0.4144766926765442
1725631026967982800,6.72798291015625,0.336506724357605,0.0964377373456955,0.41395533084869385
1725631026977936000,6.737935791015625,0.23753060400485992,0.10929282009601593,0.464603066444397
1725631026987889000,6.747888916015625,0.18393534421920776,0.05042865872383118,0.4819396436214447
1725631026997842000,6.757842041015625,0.0868237093091011,0.04143036901950836,0.4429645538330078
1725631027007795000,6.767794921875,0.04861535131931305,-0.06906002759933472,0.37886860966682434
1725631027017748000,6.777748046875,-0.01438332162797451,-0.05621613189578056,0.329208642244339
1725631027027701000,6.787700927734375,-0.005786479450762272,-0.18502525985240936,0.22350595891475677
1725631027037653800,6.79765380859375,-0.02717086300253868,-0.20323516428470612,0.14594031870365143
1725631027047606800,6.807606689453125,-0.04855761304497719,-0.23862193524837494,0.07485200464725494
1725631027057559800,6.817559814453125,-0.09932705014944077,-0.28172388672828674,0.10406900942325592
1725631027067512800,6.827512939453125,-0.1914357841014862,-0.2795296907424927,0.20269283652305603
1725631027077466600,6.837466552734375,-0.2471826672554016,-0.2970130741596222,0.23726359009742737
1725631027087419600,6.847419677734375,-0.2848728597164154,-0.29618942737579346,0.2627202272415161
1725631027097372700,6.85737255859375,-0.28663986921310425,-0.3521035611629486,0.2986947298049927
1725631027107325700,6.86732568359375,-0.2447821944952011,-0.42409196496009827,0.2890441417694092
1725631027117278700,6.87727880859375,-0.1904188096523285,-0.5190643072128296,0.20395639538764954
1725631027127231700,6.887231689453125,-0.13705773651599884,-0.5969071388244629,0.1486940234899521
1725631027137184800,6.897184814453125,-0.11093878000974655,-0.5889288187026978,0.12728513777256012
1725631027147137800,6.9071376953125,-0.10278502851724625,-0.5789992213249207,0.15417338907718658
1725631027157090800,6.9170908203125,-0.09886112809181213,-0.553629457950592,0.200150728225708
1725631027167043300,6.927043212890625,-0.09794978052377701,-0.5408357381820679,0.12987196445465088
1725631027176996400,6.936996337890625,-0.05507954955101013,-0.48378607630729675,0.0009230306604877114
1725631027186950100,6.9469501953125,0.016245242208242416,-0.4541323781013489,-0.12095073610544205
1725631027196903200,6.956903076171875,0.06761761754751205,-0.4457109570503235,-0.1806068867444992
1725631027206856200,6.966856201171875,0.09816938638687134,-0.381510466337204,-0.24571853876113892
1725631027216809200,6.976809326171875,0.10513009130954742,-0.30931565165519714,-0.327828586101532
1725631027226762200,6.98676220703125,0.05354485660791397,-0.2266903817653656,-0.3223876357078552
1725631027236715300,6.99671533203125,0.0014989641495049,-0.20198769867420197,-0.2238599956035614
1725631027246668300,7.006668212890625,-0.02701352909207344,-0.21912886202335358,-0.13138629496097565
1725631027256621300,7.016621337890625,-0.015403746627271175,-0.24365603923797607,-0.08114257454872131
1725631027266574000,7.026573974609375,-0.017879923805594444,-0.2838897705078125,-0.09898871183395386
1725631027276527000,7.036527099609375,0.010223349556326866,-0.28255391120910645,-0.11460229754447937
1725631027286480100,7.046480224609375,0.03291324898600578,-0.2819255292415619,-0.11082159727811813
1725631027296433200,7.05643310546875,0.035994794219732285,-0.23847977817058563,-0.13528913259506226
1725631027306386200,7.06638623046875,0.026719940826296806,-0.21111074090003967,-0.17716874182224274
1725631027316339200,7.076339111328125,-0.012780863791704178,-0.15775804221630096,-0.1904003918170929
1725631027326292200,7.086292236328125,-0.06900039315223694,-0.07906495779752731,-0.09937537461519241
1725631027336246300,7.096246337890625,-0.1052771806716919,-0.056387074291706085,-0.002105012536048889
1725631027346199300,7.10619921875,-0.11113759130239487,-0.03785556182265282,0.026646224781870842
1725631027356152300,7.11615234375,-0.14088855683803558,0.016911813989281654,-0.023922942578792572
1725631027366105300,7.126105224609375,-0.15787546336650848,0.026240020990371704,-0.05923278629779816
1725631027376058400,7.136058349609375,-0.20321018993854523,0.0034172635059803724,-0.11734562367200851
1725631027386011400,7.146011474609375,-0.25443077087402344,-0.01554127037525177,-0.12145890295505524
1725631027395964200,7.155964111328125,-0.3358369469642639,-0.01583714783191681,-0.025591498240828514
1725631027405917200,7.165917236328125,-0.4045867323875427,0.0131389694288373,0.03031793050467968
1725631027415870200,7.1758701171875,-0.4171432554721832,0.03621472790837288,0.12038976699113846
1725631027425823200,7.1858232421875,-0.40983885526657104,0.03167214244604111,0.2218816578388214
1725631027435776300,7.1957763671875,-0.35510849952697754,-0.04871004819869995,0.17887534201145172
1725631027445729300,7.205729248046875,-0.3561328649520874,-0.10315413028001785,0.12171277403831482
1725631027455682300,7.215682373046875,-0.38661593198776245,-0.13473628461360931,0.15013748407363892
1725631027465635300,7.22563525390625,-0.4602615535259247,-0.07309898734092712,0.22621944546699524
1725631027475588400,7.23558837890625,-0.5484052896499634,-0.05064268037676811,0.3050902783870697
1725631027485541400,7.245541259765625,-0.6208969354629517,-0.054685164242982864,0.37683483958244324
1725631027495495400,7.255495361328125,-0.6600006818771362,-0.0541839562356472,0.46718496084213257
1725631027505448400,7.265448486328125,-0.6743070483207703,-0.0690123662352562,0.544734537601471
1725631027515401500,7.2754013671875,-0.6936940550804138,-0.11048310995101929,0.5417182445526123
1725631027525354200,7.285354248046875,-0.720752477645874,-0.13445009291172028,0.4830988049507141
1725631027535307300,7.295307373046875,-0.7352640628814697,-0.13764961063861847,0.5164714455604553
1725631027545260300,7.30526025390625,-0.7558202147483826,-0.10177157074213028,0.49997326731681824
1725631027555213300,7.31521337890625,-0.7730095982551575,-0.056774530559778214,0.5193712115287781
1725631027565166300,7.325166259765625,-0.7841588258743286,-0.04120969772338867,0.4801715314388275
1725631027575119400,7.335119384765625,-0.7792327404022217,0.011326481588184834,0.5003100633621216
1725631027585072400,7.345072265625,-0.7776790261268616,0.08414207398891449,0.5485787987709045
1725631027595025400,7.355025390625,-0.7540704011917114,0.10675124824047089,0.5424532294273376
1725631027604978400,7.364978515625,-0.7244042158126831,0.058933936059474945,0.45896828174591064
1725631027614931500,7.374931396484375,-0.685258150100708,0.014247691258788109,0.4211418032646179
1725631027624884200,7.38488427734375,-0.643324077129364,0.03187837451696396,0.412795752286911
1725631027634838300,7.39483837890625,-0.6082131862640381,0.06342138350009918,0.3809576630592346
1725631027644791000,7.404791015625,-0.5919949412345886,0.1030513122677803,0.38182878494262695
1725631027654744000,7.414744140625,-0.5998848080635071,0.17749066650867462,0.40290746092796326
1725631027664697000,7.424697021484375,-0.5648859143257141,0.2652832865715027,0.47015446424484253
1725631027674650000,7.434650146484375,-0.5267707705497742,0.34628066420555115,0.5359710454940796
1725631027684603100,7.44460302734375,-0.5240293741226196,0.3795217275619507,0.527467668056488
1725631027694556200,7.45455615234375,-0.5316116809844971,0.4197157621383667,0.4946354329586029
1725631027704509200,7.46450927734375,-0.5111345648765564,0.40040692687034607,0.37178629636764526
1725631027714462200,7.474462158203125,-0.4617057740688324,0.3673318028450012,0.3201465606689453
1725631027724415200,7.484415283203125,-0.4054231345653534,0.3823389708995819,0.307693213224411
1725631027734368300,7.4943681640625,-0.30031269788742065,0.34970274567604065,0.34386879205703735
1725631027744321300,7.5043212890625,-0.23153027892112732,0.2861521244049072,0.3478393256664276
1725631027754274000,7.514274169921875,-0.18120479583740234,0.22191135585308075,0.25800901651382446
1725631027764227000,7.52422705078125,-0.132826566696167,0.16463667154312134,0.201370507478714
1725631027774180000,7.53418017578125,-0.11205950379371643,0.1661165952682495,0.17566648125648499
1725631027784134100,7.544134033203125,-0.09385857731103897,0.13241805136203766,0.0580679215490818
1725631027794087200,7.554087158203125,-0.08956476300954819,0.13243509829044342,0.02279195748269558
1725631027804040200,7.564040283203125,-0.0825151726603508,0.17117002606391907,-0.01871548406779766
1725631027813993200,7.5739931640625,-0.07901790738105774,0.20300598442554474,-0.013755878433585167
1725631027823946200,7.5839462890625,-0.06213833764195442,0.204864040017128,-0.01082983985543251
1725631027833899300,7.593899169921875,-0.034174881875514984,0.1688021719455719,-0.031565211713314056
1725631027843852300,7.603852294921875,0.007820268161594868,0.11109570413827896,-0.045709554105997086
1725631027853805300,7.613805419921875,0.036890000104904175,0.05455280467867851,-0.043605390936136246
1725631027863758300,7.62375830078125,0.08037549257278442,-0.005387621931731701,-0.08337513357400894
1725631027873711400,7.63371142578125,0.15086670219898224,-0.11983750015497208,-0.21976999938488007
1725631027883664100,7.6436640625,0.22546784579753876,-0.18415585160255432,-0.2632841467857361
1725631027893617200,7.6536171875,0.27266252040863037,-0.17645719647407532,-0.26989224553108215
1725631027903570200,7.663570068359375,0.3059016168117523,-0.17055734992027283,-0.2641281485557556
1725631027913523200,7.673523193359375,0.3625752925872803,-0.15941360592842102,-0.23793619871139526
1725631027923476200,7.683476318359375,0.3885013461112976,-0.16029392182826996,-0.29969894886016846
1725631027933429200,7.69342919921875,0.4308035373687744,-0.18245834112167358,-0.3763769567012787
1725631027943383300,7.70338330078125,0.47959864139556885,-0.2083939164876938,-0.4455117881298065
1725631027953336300,7.71333642578125,0.5210768580436707,-0.23897045850753784,-0.5323649644851685
1725631027963289300,7.723289306640625,0.5366231203079224,-0.2591683864593506,-0.6189427375793457
1725631027973242400,7.733242431640625,0.5354049801826477,-0.21538253128528595,-0.62819904088974
1725631027983195400,7.7431953125,0.5515186786651611,-0.15536975860595703,-0.5800254940986633
1725631027993148400,7.7531484375,0.5645928978919983,-0.114108607172966,-0.49042797088623047
1725631028003101400,7.763101318359375,0.5563943982124329,-0.09962350130081177,-0.5032709836959839
1725631028013054200,7.77305419921875,0.5848771333694458,-0.14487513899803162,-0.5791028738021851
1725631028023007200,7.78300732421875,0.6470874547958374,-0.16004028916358948,-0.6386005878448486
1725631028032960300,7.792960205078125,0.6959231495857239,-0.17034751176834106,-0.6846434473991394
1725631028042913300,7.802913330078125,0.7045273780822754,-0.10949663817882538,-0.692665159702301
1725631028052866300,7.8128662109375,0.6927759051322937,0.007900556549429893,-0.6224700808525085
1725631028062819300,7.8228193359375,0.6770844459533691,0.10388742387294769,-0.5567657351493835
1725631028072772400,7.8327724609375,0.6703951358795166,0.15064559876918793,-0.49781617522239685
1725631028082725400,7.842725341796875,0.6743584871292114,0.1575203686952591,-0.501179039478302
1725631028092679200,7.85267919921875,0.6977236866950989,0.14445996284484863,-0.49564316868782043
1725631028102632200,7.862632080078125,0.7330447435379028,0.10134797543287277,-0.48090946674346924
1725631028112585200,7.872585205078125,0.7465794682502747,0.06878337264060974,-0.42204028367996216
1725631028122538200,7.882538330078125,0.7404075264930725,0.07292905449867249,-0.3556687533855438
1725631028132491300,7.8924912109375,0.6927822232246399,0.09991220384836197,-0.2807715833187103
1725631028142444000,7.902444091796875,0.6343235373497009,0.1417410522699356,-0.16088896989822388
1725631028152397000,7.91239697265625,0.5805119872093201,0.20482414960861206,-0.1291150599718094
1725631028162350600,7.9223505859375,0.569840133190155,0.2370799481868744,-0.12130045145750046
1725631028172303600,7.9323037109375,0.5732151865959167,0.20803923904895782,-0.14273731410503387
1725631028182256600,7.942256591796875,0.5824241638183594,0.1782146841287613,-0.155572310090065
1725631028192209700,7.952209716796875,0.5879549980163574,0.14324285089969635,-0.1690409779548645
1725631028202162700,7.96216259765625,0.5756361484527588,0.08978848904371262,-0.20608772337436676
1725631028212115700,7.97211572265625,0.5442513227462769,0.01013120822608471,-0.24846181273460388
1725631028222068500,7.982068359375,0.48914915323257446,-0.008119572885334492,-0.26734259724617004
1725631028232021500,7.992021484375,0.4440423846244812,0.029150301590561867,-0.2671271562576294
1725631028241974500,8.001974609375,0.3966207802295685,0.025074250996112823,-0.2650078535079956
1725631028251927600,8.011927490234376,0.35164690017700195,0.0405336357653141,-0.3129740357398987
1725631028261881600,8.021881591796875,0.2934568226337433,0.10038375854492188,-0.27593794465065
1725631028271834600,8.031834716796874,0.16934393346309662,0.14373575150966644,-0.09053371846675873
1725631028281787600,8.04178759765625,0.19445547461509705,0.03658369183540344,-0.06880024820566177
1725631028291740700,8.05174072265625,0.36231452226638794,-0.18723848462104797,-0.43110761046409607
1725631028301693700,8.061693603515625,0.5302366614341736,-0.34090977907180786,-0.8045535683631897
1725631028311646700,8.071646728515624,0.646169900894165,-0.2755456864833832,-0.8134349584579468
1725631028321599700,8.081599853515625,0.532352089881897,0.033159274607896805,-0.5294040441513062
1725631028331552800,8.091552734375,0.3190113306045532,0.2397148460149765,-0.28778770565986633
1725631028341505800,8.101505859375,0.2310861498117447,0.12803694605827332,-0.16035491228103638
1725631028351458600,8.11145849609375,0.19656306505203247,-0.08410727977752686,-0.014839785173535347
1725631028361411600,8.12141162109375,0.1993161141872406,-0.1895822137594223,0.039796676486730576
1725631028371364600,8.131364501953126,0.2131781429052353,-0.12546555697917938,0.06915004551410675
1725631028381317600,8.141317626953125,0.18590767681598663,0.06327369809150696,0.09718494862318039
1725631028391270700,8.151270751953126,0.1859913021326065,0.09494480490684509,0.2220086306333542
1725631028401223700,8.1612236328125,0.1770552396774292,0.07921864837408066,0.3531299829483032
1725631028411176700,8.1711767578125,0.15428175032138824,0.09805651754140854,0.3654095530509949
1725631028421130800,8.181130859375,0.0966717004776001,-0.009772378019988537,0.3190080523490906
1725631028431083800,8.191083740234374,0.012297436594963074,0.09135343879461288,0.3832240402698517
1725631028441036800,8.201036865234375,0.0110618332400918,-0.06939007341861725,0.37347087264060974
1725631028450989800,8.21098974609375,-0.03182172030210495,-0.118525929749012,0.2693631052970886
1725631028460942800,8.22094287109375,-0.07270660996437073,-0.10042722523212433,0.18275345861911774
1725631028470895900,8.230895751953126,-0.14019164443016052,-0.11440162360668182,0.13383811712265015
1725631028480848600,8.2408486328125,-0.21003125607967377,-0.05869925394654274,0.10581130534410477
1725631028490801700,8.2508017578125,-0.24446912109851837,-0.02254471369087696,0.13926221430301666
1725631028500754700,8.260754638671875,-0.21782438457012177,-0.06973981112241745,0.11740552634000778
1725631028510707700,8.270707763671876,-0.17029841244220734,-0.13316857814788818,0.0422455258667469
1725631028520660700,8.28066064453125,-0.13006462156772614,-0.11540144681930542,-0.007252505514770746
1725631028530613800,8.29061376953125,-0.12695032358169556,-0.02045123651623726,0.06026235595345497
1725631028540566800,8.30056689453125,-0.1624370813369751,0.08969072997570038,0.21430979669094086
1725631028550519800,8.310519775390626,-0.1833474189043045,0.17469455301761627,0.3315274715423584
1725631028560472800,8.320472900390625,-0.18844673037528992,0.16986040771007538,0.3761084973812103
1725631028570425900,8.33042578125,-0.1875694841146469,0.0707109197974205,0.3652305603027344
1725631028580379000,8.34037890625,-0.15711231529712677,0.007931736297905445,0.33822041749954224
1725631028590332700,8.350332763671876,-0.10724569857120514,-0.08438993245363235,0.2851681113243103
1725631028600285700,8.36028564453125,-0.038524329662323,-0.14592348039150238,0.17190362513065338
1725631028610238500,8.370238525390626,0.011028306558728218,-0.11648357659578323,0.07530465722084045
1725631028620191500,8.38019140625,0.03994642570614815,0.02343282476067543,0.10675012320280075
1725631028630144500,8.39014453125,-0.011568695306777954,0.145229309797287,0.10104163736104965
1725631028640097500,8.40009765625,-0.07528826594352722,0.2264530509710312,0.13944748044013977
1725631028650050600,8.410050537109376,-0.13321255147457123,0.2490909844636917,0.09770269691944122
1725631028660003600,8.420003662109375,-0.2138732671737671,0.24047499895095825,-0.05187782645225525
1725631028669956600,8.42995654296875,-0.26081573963165283,0.16102944314479828,-0.06723548471927643
1725631028679909600,8.43990966796875,-0.2725641429424286,0.014239829033613205,0.10223275423049927
1725631028689862700,8.449862548828126,-0.3135816156864166,-0.07358962297439575,0.17338630557060242
1725631028699815700,8.459815673828125,-0.34412142634391785,-0.04171734303236008,0.24138231575489044
1725631028709768700,8.469768798828126,-0.38293513655662537,-0.06771592050790787,0.3418996036052704
1725631028719721500,8.479721435546875,-0.4533320367336273,0.03719324246048927,0.3687325417995453
1725631028729674500,8.489674560546876,-0.502862811088562,0.10966185480356216,0.29341888427734375
1725631028739627500,8.49962744140625,-0.5810632109642029,0.17160776257514954,0.30896487832069397
1725631028749580500,8.50958056640625,-0.6544122695922852,0.1741550713777542,0.2776018977165222
1725631028759533600,8.519533447265625,-0.6949425935745239,0.15842734277248383,0.23559854924678802
1725631028769487600,8.529487548828126,-0.7088195085525513,0.07603099197149277,0.1660114824771881
1725631028779440600,8.539440673828125,-0.7149890661239624,-0.050915781408548355,0.12833096086978912
1725631028789393700,8.5493935546875,-0.7162072062492371,-0.10986831784248352,0.15509280562400818
1725631028799346700,8.5593466796875,-0.7159605026245117,-0.14270925521850586,0.2596948742866516
1725631028809299700,8.5692998046875,-0.6889302730560303,-0.1814926117658615,0.2847821116447449
1725631028819252700,8.579252685546875,-0.6939573287963867,-0.2174306958913803,0.20159734785556793
1725631028829205800,8.589205810546876,-0.7178975343704224,-0.24142204225063324,0.2209867537021637
1725631028839158800,8.59915869140625,-0.7239008545875549,-0.2633145749568939,0.2604835629463196
1725631028849111600,8.609111572265626,-0.7478141784667969,-0.18682190775871277,0.32601198554039
1725631028859064600,8.619064697265625,-0.7735737562179565,-0.19210699200630188,0.3876502811908722
1725631028869017600,8.629017578125,-0.8034144639968872,-0.1378789097070694,0.46777069568634033
1725631028878970600,8.638970703125,-0.744777262210846,-0.12538987398147583,0.5210227966308594
1725631028888923600,8.648923583984375,-0.6899278163909912,-0.12188195437192917,0.6180568933486938
1725631028898876700,8.658876708984375,-0.6523616909980774,-0.09794323891401291,0.650408923625946
1725631028908829700,8.66882958984375,-0.6006503105163574,-0.10231535136699677,0.5440223217010498
1725631028918782700,8.67878271484375,-0.5553654432296753,-0.13915206491947174,0.4732896387577057
1725631028928735700,8.68873583984375,-0.5331155061721802,-0.1933165043592453,0.4120553135871887
1725631028938689800,8.698689697265625,-0.5358982086181641,-0.25719621777534485,0.30004802346229553
1725631028948642800,8.708642822265626,-0.5666579604148865,-0.23962520062923431,0.3229973018169403
1725631028958595800,8.718595947265625,-0.6117408275604248,-0.17925028502941132,0.4837305247783661
1725631028968548900,8.728548828125,-0.6110332012176514,-0.16276532411575317,0.5848555564880371
1725631028978501600,8.738501708984375,-0.5727370977401733,-0.20836684107780457,0.6372076272964478
1725631028988454700,8.74845458984375,-0.5331745147705078,-0.20829227566719055,0.7051105499267578
1725631028998407700,8.75840771484375,-0.47093889117240906,-0.16249695420265198,0.6949950456619263
1725631029008360700,8.768360595703125,-0.4316559433937073,-0.12844285368919373,0.6449819803237915
1725631029018313700,8.778313720703125,-0.3996030390262604,-0.09815693646669388,0.6097983717918396
1725631029028266800,8.788266845703125,-0.3862379789352417,-0.056266482919454575,0.5510280132293701
1725631029038219800,8.7982197265625,-0.3594905138015747,-0.037613172084093094,0.49082034826278687
1725631029048172800,8.8081728515625,-0.3266414999961853,-0.029069483280181885,0.4893047511577606
1725631029058125800,8.818125732421874,-0.28865331411361694,-0.012198299169540405,0.4711417257785797
1725631029068078800,8.828078857421875,-0.2511354982852936,0.0018077975837513804,0.41339319944381714
1725631029078032000,8.838031982421874,-0.218318909406662,-0.033355649560689926,0.3127586543560028
1725631029087984600,8.847984619140625,-0.1766156703233719,-0.07089369744062424,0.1945990025997162
1725631029097937700,8.857937744140624,-0.14929236471652985,-0.09376870095729828,0.05270850658416748
1725631029107890700,8.867890625,-0.07521280646324158,-0.09890327602624893,-0.04122757539153099
1725631029117844500,8.877844482421875,-0.026358332484960556,-0.06693057715892792,-0.013352930545806885
1725631029127797500,8.887797607421875,-0.007185438182204962,-0.00618254067376256,0.03559250757098198
1725631029137750500,8.89775048828125,0.030002906918525696,-0.034878794103860855,-0.02722194232046604
1725631029147703600,8.90770361328125,0.026921631768345833,-0.06374027580022812,0.018732501193881035
1725631029157656600,8.917656494140624,0.006775964982807636,-0.06566764414310455,0.015921607613563538
1725631029167609000,8.927609130859375,-0.0025831819511950016,-0.09964451938867569,-0.10725864768028259
1725631029177562000,8.93756201171875,0.06078483164310455,-0.11999701708555222,-0.23025104403495789
1725631029187515100,8.94751513671875,0.14575405418872833,-0.11453860253095627,-0.23538535833358765
1725631029197468200,8.95746826171875,0.2126956284046173,-0.07691947370767593,-0.2971123456954956
1725631029207421200,8.967421142578125,0.2922740578651428,-0.002309948205947876,-0.21951715648174286
1725631029217374200,8.977374267578124,0.32573026418685913,0.051886118948459625,-0.3142114579677582
1725631029227327200,8.9873271484375,0.361118346452713,0.07321511209011078,-0.4073978662490845
1725631029237280300,8.9972802734375,0.3563857972621918,0.12615828216075897,-0.4413313567638397
1725631029247233300,9.0072333984375,0.3217338025569916,0.17998796701431274,-0.4147447645664215
1725631029257186000,9.01718603515625,0.24354039132595062,0.253632515668869,-0.34246325492858887
1725631029267139000,9.02713916015625,0.21937966346740723,0.28954017162323,-0.2936815917491913
1725631029277092000,9.037092041015624,0.25871220231056213,0.2950558066368103,-0.24152494966983795
1725631029287045000,9.047045166015625,0.3279317617416382,0.26259881258010864,-0.28219249844551086
1725631029296998100,9.056998046875,0.4036792516708374,0.22769282758235931,-0.3028259873390198
1725631029306952000,9.066951904296875,0.460003525018692,0.21659329533576965,-0.35373654961586
1725631029316905000,9.076905029296874,0.46578025817871094,0.2872009575366974,-0.2920514941215515
1725631029326858000,9.08685791015625,0.4805546700954437,0.3560574948787689,-0.29080939292907715
1725631029336811000,9.09681103515625,0.5228601098060608,0.3126523494720459,-0.4417631924152374
1725631029346764000,9.106763916015625,0.6366726756095886,0.18008176982402802,-0.6950758695602417
1725631029356717000,9.116717041015624,0.760417103767395,0.09826289862394333,-0.8206598162651062
1725631029366670000,9.126670166015625,0.8479911088943481,0.1774570494890213,-0.7646319270133972
1725631029376623000,9.136623046875,0.9044466018676758,0.3007065951824188,-0.607241153717041
1725631029386576000,9.146575927734375,0.8845074772834778,0.3931864798069,-0.5734672546386719
1725631029396529000,9.15652880859375,0.8683722615242004,0.41078421473503113,-0.7136704325675964
1725631029406482000,9.16648193359375,0.8553044199943542,0.34611496329307556,-0.8587647676467896
1725631029416435000,9.17643505859375,0.8036008477210999,0.3249771296977997,-0.8673046827316284
1725631029426388000,9.186387939453125,0.7171802520751953,0.3638251721858978,-0.8296204209327698
1725631029436341000,9.196341064453126,0.6055110692977905,0.3910565674304962,-0.8163375854492188
1725631029446294000,9.2062939453125,0.5306538343429565,0.3925098478794098,-0.7309545278549194
1725631029456247000,9.2162470703125,0.48094305396080017,0.37109071016311646,-0.5952825546264648
1725631029466200000,9.226199951171875,0.4691865146160126,0.38049647212028503,-0.43047070503234863
1725631029476153000,9.236153076171876,0.49577879905700684,0.38804948329925537,-0.32458263635635376
1725631029486105900,9.24610595703125,0.521689772605896,0.36793357133865356,-0.32829827070236206
1725631029496060200,9.25606005859375,0.5616427063941956,0.36426714062690735,-0.37154069542884827
1725631029506013200,9.26601318359375,0.5690681338310242,0.3860560655593872,-0.3474377691745758
1725631029515966000,9.275966064453126,0.5369847416877747,0.4682748019695282,-0.34003254771232605
1725631029525919000,9.2859189453125,0.4942607283592224,0.5402597784996033,-0.3036212921142578
1725631029535872000,9.2958720703125,0.4277053773403168,0.576001763343811,-0.21926620602607727
1725631029545825000,9.305824951171875,0.3549360930919647,0.5509440302848816,-0.1593855619430542
1725631029555778000,9.315778076171876,0.31217890977859497,0.5311411023139954,-0.1346523016691208
1725631029565731000,9.32573095703125,0.2779759466648102,0.46781301498413086,-0.013436920009553432
1725631029575684000,9.33568408203125,0.25448158383369446,0.4093526005744934,0.06006281077861786
1725631029585637000,9.34563720703125,0.24427823722362518,0.40358418226242065,0.06131689250469208
1725631029595590100,9.355590087890626,0.20838962495326996,0.40699461102485657,0.08909983187913895
1725631029605543200,9.365543212890625,0.15174232423305511,0.4011228680610657,0.12333423644304276
1725631029615496000,9.375495849609376,0.1128087118268013,0.4596300423145294,0.12699675559997559
1725631029625449000,9.385448974609375,0.1083252802491188,0.5015516877174377,0.16068440675735474
1725631029635402000,9.395402099609376,0.10755392163991928,0.443697065114975,0.1842638999223709
1725631029645355000,9.40535498046875,0.14690585434436798,0.37355926632881165,0.15255790948867798
1725631029655308000,9.41530810546875,0.16310876607894897,0.28087636828422546,0.11495164781808853
1725631029665261000,9.425260986328125,0.13962768018245697,0.18384651839733124,0.10871612280607224
1725631029675214000,9.435214111328126,0.045764293521642685,0.15725955367088318,0.14733777940273285
1725631029685168000,9.445168212890625,-0.014943797141313553,0.10800466686487198,0.23562291264533997
1725631029695121200,9.45512109375,-0.05742240324616432,0.06163255125284195,0.3738013207912445
1725631029705074200,9.46507421875,-0.10468312352895737,-0.0026257990393787622,0.4296347498893738
1725631029715027200,9.475027099609376,-0.1422986537218094,-0.04383610934019089,0.4513639807701111
1725631029724980200,9.484980224609375,-0.12639105319976807,-0.11786533147096634,0.42249053716659546
1725631029734933200,9.494933349609376,-0.10977916419506073,-0.15658822655677795,0.33929288387298584
1725631029744886000,9.504885986328125,-0.08542002737522125,-0.13667631149291992,0.21165822446346283
1725631029754839000,9.514839111328126,-0.058192264288663864,-0.06455046683549881,0.15514880418777466
1725631029764792000,9.5247919921875,-0.034302644431591034,-0.0007634995272383094,0.16080749034881592
1725631029774745000,9.5347451171875,-0.02999892830848694,-0.0040327380411326885,0.1895051896572113
1725631029784698000,9.544697998046875,-0.05443023517727852,-0.04406430944800377,0.23638826608657837
1725631029794651100,9.554651123046876,-0.07999404519796371,-0.14045937359333038,0.21972408890724182
1725631029804604200,9.564604248046875,-0.0819418802857399,-0.2851736843585968,0.16260966658592224
1725631029814557200,9.57455712890625,-0.0673741027712822,-0.4113653600215912,0.04450969398021698
1725631029824510200,9.58451025390625,-0.05980726704001427,-0.480866402387619,-0.09938409924507141
1725631029834463200,9.594463134765626,-0.07329293340444565,-0.4337347745895386,-0.1605217456817627
1725631029844416300,9.604416259765625,-0.13194426894187927,-0.36649981141090393,-0.14986297488212585
1725631029854369000,9.614369140625,-0.192316472530365,-0.3321988880634308,-0.14784115552902222
1725631029864322000,9.624322021484375,-0.24094073474407196,-0.32365575432777405,-0.1666334867477417
1725631029874275800,9.63427587890625,-0.27531951665878296,-0.3199123740196228,-0.13772670924663544
1725631029884228900,9.644228759765625,-0.27735042572021484,-0.3539915084838867,-0.16537192463874817
1725631029894182000,9.654181884765626,-0.23372069001197815,-0.41814863681793213,-0.24751655757427216
1725631029904135000,9.664135009765625,-0.17233562469482422,-0.44355863332748413,-0.40924128890037537
1725631029914088000,9.674087890625,-0.12823453545570374,-0.40844225883483887,-0.503230094909668
1725631029924041000,9.684041015625,-0.12123680114746094,-0.3142332136631012,-0.48266810178756714
1725631029933994000,9.693993896484375,-0.14638982713222504,-0.2730482220649719,-0.43863752484321594
1725631029943947000,9.703947021484375,-0.15713834762573242,-0.2701352536678314,-0.3688421845436096
1725631029953900000,9.713900146484375,-0.1448144018650055,-0.3009445071220398,-0.3411232531070709
1725631029963853000,9.72385302734375,-0.09565672278404236,-0.39882421493530273,-0.36874663829803467
1725631029973806000,9.73380615234375,-0.025653067976236343,-0.48244258761405945,-0.3980274200439453
1725631029983758800,9.7437587890625,0.009012766182422638,-0.49489954113960266,-0.38268333673477173
1725631029993711900,9.7537119140625,-0.035701554268598557,-0.45288005471229553,-0.2621123492717743
1725631030003665000,9.763664794921874,-0.1114509105682373,-0.4267003834247589,-0.06977485120296478
1725631030013618000,9.773617919921875,-0.16404977440834045,-0.3716995418071747,0.034236758947372437
1725631030023571000,9.783571044921874,-0.22392748296260834,-0.3165398836135864,0.10268452763557434
1725631030033524000,9.79352392578125,-0.2812878489494324,-0.31659314036369324,0.12574917078018188
1725631030043477000,9.80347705078125,-0.29738426208496094,-0.3131680488586426,0.09158400446176529
1725631030053430000,9.813429931640625,-0.2616769075393677,-0.35427358746528625,0.15941892564296722
1725631030063384000,9.823384033203125,-0.20362532138824463,-0.43224772810935974,0.2471144199371338
1725631030073337000,9.833337158203125,-0.15866801142692566,-0.48000919818878174,0.3670791685581207
1725631030083290000,9.8432900390625,-0.16256260871887207,-0.5060628652572632,0.5846021771430969
1725631030093243100,9.8532431640625,-0.19343891739845276,-0.4488840699195862,0.7227044701576233
1725631030103196200,9.863196044921875,-0.2525664269924164,-0.3491785228252411,0.7879776954650879
1725631030113149000,9.87314892578125,-0.2876049280166626,-0.28386586904525757,0.857966423034668
1725631030123102000,9.88310205078125,-0.31518569588661194,-0.2613152861595154,0.767048180103302
1725631030133055000,9.893054931640625,-0.3225267827510834,-0.24888990819454193,0.6844176650047302
1725631030143008000,9.903008056640624,-0.33248037099838257,-0.27034351229667664,0.6169843077659607
1725631030152961000,9.9129609375,-0.3610418438911438,-0.3237346410751343,0.6323311924934387
1725631030162914600,9.92291455078125,-0.44378599524497986,-0.327558696269989,0.6499799489974976
1725631030172867600,9.93286767578125,-0.5317662358283997,-0.32339930534362793,0.6284545660018921
1725631030182820600,9.942820556640624,-0.5912346243858337,-0.3308098316192627,0.7300347089767456
1725631030192773600,9.952773681640625,-0.6090899705886841,-0.35920512676239014,0.763565719127655
1725631030202726700,9.9627265625,-0.5807899236679077,-0.39661428332328796,0.5986226201057434
1725631030212679700,9.9726796875,-0.5356789827346802,-0.46032536029815674,0.47346800565719604
1725631030222632700,9.9826328125,-0.5151955485343933,-0.4945816099643707,0.3928661048412323
1725631030232585700,9.992585693359375,-0.5720371007919312,-0.5011487007141113,0.36522215604782104
1725631030242538800,10.002538818359374,-0.6491914987564087,-0.4791048765182495,0.29006296396255493
1725631030252492500,10.012492431640625,-0.6835200190544128,-0.40368303656578064,0.25540852546691895
1725631030262445600,10.022445556640625,-0.6730527281761169,-0.3431704044342041,0.32099607586860657
1725631030272398600,10.032398681640625,-0.6516731381416321,-0.3158707022666931,0.3391037881374359
1725631030282351600,10.0423515625,-0.6348787546157837,-0.3075807988643646,0.2624036967754364
1725631030292304600,10.0523046875,-0.6197716593742371,-0.29361283779144287,0.24221810698509216
1725631030302257700,10.062257568359374,-0.6284546852111816,-0.2654355466365814,0.2449214905500412
1725631030312210400,10.07221044921875,-0.6805451512336731,-0.2119450718164444,0.23697775602340698
1725631030322163500,10.08216357421875,-0.7151606678962708,-0.13581542670726776,0.28833577036857605
1725631030332116500,10.092116455078125,-0.7063097357749939,-0.056023210287094116,0.3290082514286041
1725631030342069500,10.102069580078124,-0.6769878268241882,0.01713329367339611,0.36522936820983887
1725631030352022500,10.1120224609375,-0.626389741897583,0.08006644248962402,0.3823402225971222
1725631030361975600,10.1219755859375,-0.5896197557449341,0.11203981935977936,0.28012728691101074
1725631030371928600,10.131928466796875,-0.5016621947288513,0.10880956798791885,0.14412333071231842
1725631030381881600,10.141881591796874,-0.45020991563796997,0.08395961672067642,0.09412674605846405
1725631030391834600,10.151834716796875,-0.34692373871803284,0.12485644966363907,0.031405046582221985
1725631030401787400,10.161787353515624,-0.27627912163734436,0.1361064314842224,-0.015890033915638924
1725631030411740400,10.171740478515625,-0.2670261263847351,0.18536339700222015,0.0640900656580925
1725631030421693400,10.181693359375,-0.27675652503967285,0.29084399342536926,0.1270919293165207
1725631030431646500,10.191646484375,-0.26065751910209656,0.31799548864364624,0.1049622967839241
1725631030441599500,10.201599609375,-0.2486509084701538,0.3057020604610443,0.11883524060249329
1725631030451553500,10.211553466796875,-0.2757570743560791,0.3572498559951782,0.2670455574989319
1725631030461506600,10.221506591796874,-0.2921978235244751,0.36021876335144043,0.33411431312561035
1725631030471459600,10.23145947265625,-0.1645490676164627,0.1458057016134262,0.14696252346038818
1725631030481412600,10.24141259765625,-0.019075488671660423,-0.07722605019807816,-0.18238501250743866
1725631030491365600,10.25136572265625,0.1124400645494461,0.023997947573661804,-0.30799752473831177
1725631030501318700,10.261318603515624,0.1418384462594986,0.2874663472175598,-0.17458008229732513
1725631030511271700,10.271271728515625,0.09068813920021057,0.4111712574958801,-0.12223909050226212
1725631030521224700,10.281224609375,0.031027203425765038,0.3696027994155884,-0.32552456855773926
1725631030531177500,10.291177490234375,0.013376524671912193,0.32678547501564026,-0.43285608291625977
1725631030541130500,10.301130615234374,0.04123132675886154,0.3130377233028412,-0.3936072289943695
1725631030551083500,10.31108349609375,0.010834146291017532,0.32241541147232056,-0.16542676091194153
1725631030561036500,10.32103662109375,-0.03876962512731552,0.34837672114372253,0.04197409749031067
1725631030570989600,10.330989501953125,-0.03322577476501465,0.3467995822429657,0.1113770455121994
1725631030580942600,10.340942626953124,-0.013602802529931068,0.3048180341720581,0.09821650385856628
1725631030590895600,10.3508955078125,0.02803918905556202,0.24571196734905243,0.054018329828977585
1725631030600848600,10.3608486328125,0.10205109417438507,0.1906076967716217,0.050223857164382935
1725631030610801700,10.3708017578125,0.16205337643623352,0.16347819566726685,0.04891608655452728
1725631030620754700,10.380754638671876,0.19609549641609192,0.19126056134700775,0.08928214758634567
1725631030630707500,10.39070751953125,0.23569099605083466,0.24787713587284088,0.07239104062318802
1725631030640660500,10.400660400390626,0.3448944389820099,0.23119962215423584,-0.07549349218606949
1725631030650613500,10.410613525390625,0.50119549036026,0.07086802273988724,-0.38037165999412537
1725631030660567600,10.420567626953124,0.6240777373313904,-0.07670864462852478,-0.6849907040596008
1725631030670520600,10.4305205078125,0.8022723197937012,-0.06386108696460724,-0.7589783072471619
1725631030680473600,10.4404736328125,0.931701123714447,0.054932668805122375,-0.6106599569320679
1725631030690426600,10.450426513671875,0.9887359738349915,0.10114815831184387,-0.6113081574440002
1725631030700379600,10.460379638671874,0.9921642541885376,0.022395556792616844,-0.7874637246131897
1725631030710332700,10.470332763671875,0.8909623622894287,-0.05474773794412613,-0.9208766222000122
1725631030720285700,10.48028564453125,0.7074777483940125,0.04104829579591751,-0.8370397686958313
1725631030730238700,10.49023876953125,0.5437248945236206,0.16309405863285065,-0.731768786907196
1725631030740191700,10.500191650390626,0.39829203486442566,0.1784256100654602,-0.7133769989013672
1725631030750144800,10.510144775390625,0.3748054504394531,0.190687894821167,-0.5900753140449524
1725631030760097500,10.52009765625,0.4213857352733612,0.1652616262435913,-0.4423058032989502
1725631030770050600,10.530050537109375,0.49846842885017395,0.16053272783756256,-0.39108768105506897
1725631030780003600,10.540003662109376,0.5474346280097961,0.22886623442173004,-0.38994625210762024
1725631030789956600,10.54995654296875,0.5762356519699097,0.16354893147945404,-0.5460560917854309
1725631030799909600,10.55990966796875,0.6645338535308838,-0.10636429488658905,-0.8234805464744568
1725631030809862700,10.569862548828125,0.7038561105728149,-0.3194172978401184,-0.949056088924408
1725631030819815700,10.579815673828126,0.6840547323226929,-0.2565464377403259,-0.8319571614265442
1725631030829768700,10.589768798828125,0.6336987018585205,0.006601380649954081,-0.6734042763710022
1725631030839721700,10.5997216796875,0.5835769772529602,0.18632666766643524,-0.5487006902694702
1725631030849674800,10.6096748046875,0.5639349818229675,0.242057666182518,-0.5341475605964661
1725631030859627800,10.619627685546876,0.587740421295166,0.21991507709026337,-0.670436441898346
1725631030869580500,10.62958056640625,0.6252827644348145,0.23001791536808014,-0.8172950744628906
1725631030879533600,10.639533447265626,0.6553362607955933,0.28026193380355835,-0.7897409200668335
1725631030889486600,10.649486572265625,0.5921667218208313,0.2929823696613312,-0.6123352646827698
1725631030899439600,10.659439697265626,0.5062294602394104,0.3480221927165985,-0.38016757369041443
1725631030909393700,10.6693935546875,0.4185127317905426,0.3832457959651947,-0.1844443678855896
1725631030919346700,10.6793466796875,0.3816753625869751,0.42131727933883667,-0.06843147426843643
1725631030929299700,10.6892998046875,0.3671141564846039,0.3871549367904663,-0.017252985388040543
1725631030939252700,10.699252685546876,0.39638230204582214,0.3176459074020386,0.03996209800243378
1725631030949205800,10.709205810546875,0.4229547679424286,0.2142309546470642,0.0856003612279892
1725631030959158800,10.71915869140625,0.4812691807746887,0.15902574360370636,0.07739170640707016
1725631030969111800,10.72911181640625,0.5342037081718445,0.12898051738739014,-0.0016279906267300248
1725631030979064600,10.739064697265626,0.4937031865119934,0.11244522035121918,-0.04447638988494873
1725631030989017600,10.749017578125,0.39110007882118225,0.1498897224664688,0.011322131380438805
1725631030998970600,10.758970703125,0.29170534014701843,0.1950979381799698,0.09750894457101822
1725631031008923600,10.768923583984375,0.211470827460289,0.17832233011722565,0.19634073972702026
1725631031018876700,10.778876708984376,0.09892617166042328,0.14224156737327576,0.31156906485557556
1725631031028829700,10.78882958984375,0.012773568741977215,0.15432041883468628,0.38752877712249756
1725631031038782700,10.79878271484375,-0.013992532156407833,0.10683412104845047,0.41387277841567993
1725631031048735700,10.80873583984375,-0.012226762250065804,0.037357695400714874,0.3864448666572571
1725631031058688800,10.818688720703125,0.00599724892526865,-0.025764813646674156,0.35716742277145386
1725631031068641500,10.8286416015625,0.00983447302132845,-0.03070000931620598,0.39394116401672363
1725631031078594600,10.838594482421875,0.03570015728473663,-0.007215723395347595,0.47515666484832764
1725631031088547600,10.848547607421875,0.05101046711206436,0.014935940504074097,0.5063759684562683
1725631031098500600,10.85850048828125,0.049161698669195175,0.045251503586769104,0.5141785144805908
1725631031108453600,10.86845361328125,0.026415908709168434,0.08263475447893143,0.5232107043266296
1725631031118407700,10.87840771484375,0.05052737146615982,0.05946578457951546,0.44720539450645447
1725631031128360400,10.8883603515625,0.08245956152677536,-0.012183783575892448,0.2539898753166199
1725631031138313500,10.8983134765625,0.12340779602527618,-0.087798111140728,0.0655994713306427
1725631031148266500,10.9082666015625,0.15142738819122314,-0.08079688251018524,-0.02039341628551483
1725631031158219500,10.918219482421875,0.10240045189857483,-0.019248034805059433,-0.017215998843312263
1725631031168173000,10.928173095703125,0.01815442368388176,0.011309515684843063,0.003658139146864414
1725631031178126000,10.9381259765625,-0.04837480187416077,-0.0011980202980339527,0.00546749122440815
1725631031188079000,10.9480791015625,-0.10161441564559937,-0.06059594824910164,0.004835245665162802
1725631031198032100,10.9580322265625,-0.08817930519580841,-0.16377826035022736,-0.010603631846606731
1725631031207985200,10.967985107421875,-0.024443451315164566,-0.26706400513648987,-0.09406023472547531
1725631031217938200,10.977938232421875,0.03602948039770126,-0.34402456879615784,-0.2501891255378723
1725631031227891200,10.98789111328125,0.1015719398856163,-0.3300221562385559,-0.3485100567340851
1725631031237845200,10.99784521484375,0.10886155068874359,-0.26099807024002075,-0.3415983319282532
1725631031247798300,11.00779833984375,0.10057352483272552,-0.13762475550174713,-0.18120494484901428
1725631031257751300,11.017751220703126,0.08101660013198853,-0.10715711861848831,0.030131010338664055
1725631031267704000,11.0277041015625,0.05183429270982742,-0.08940977603197098,0.14868266880512238
1725631031277657000,11.037656982421876,-0.0018803344573825598,-0.12550972402095795,0.0926193967461586
1725631031287610000,11.047610107421875,-0.042697519063949585,-0.07222112268209457,-0.034459955990314484
1725631031297563100,11.057563232421876,-0.07168149948120117,-0.008183017373085022,-0.03677637130022049
1725631031307516200,11.06751611328125,-0.10058488696813583,0.05665844678878784,0.04483325779438019
1725631031317469200,11.07746923828125,-0.14305616915225983,0.025138869881629944,-0.03315155580639839
1725631031327422200,11.087422119140625,-0.11924494802951813,-0.07558393478393555,0.05034928023815155
1725631031337375200,11.097375244140625,-0.12317417562007904,-0.27501633763313293,0.042305465787649155
1725631031347328300,11.107328369140625,-0.16122914850711823,-0.3097079396247864,-0.01722959242761135
1725631031357281300,11.11728125,-0.16170398890972137,-0.26950860023498535,0.029325392097234726
1725631031367234300,11.127234375,-0.14785872399806976,-0.2808558940887451,0.12579980492591858
1725631031377187000,11.13718701171875,-0.12163110077381134,-0.23887568712234497,0.11902791261672974
1725631031387140000,11.14714013671875,-0.0907863974571228,-0.13786660134792328,-0.004785141441971064
1725631031397093000,11.157093017578125,-0.12032245099544525,-0.0744793638586998,0.02491363137960434
1725631031407046100,11.167046142578124,-0.20159617066383362,-0.10207252204418182,0.159975066781044
1725631031416999200,11.176999267578125,-0.30283355712890625,-0.07924444228410721,0.08761297166347504
1725631031426953000,11.186952880859375,-0.3753061890602112,-0.03829975798726082,0.10754191130399704
1725631031436906000,11.196906005859375,-0.35791122913360596,-0.1431068629026413,0.2145136296749115
1725631031446859000,11.20685888671875,-0.32211482524871826,-0.2666079103946686,0.18734623491764069
1725631031456812000,11.21681201171875,-0.34725186228752136,-0.2981487810611725,0.07421914488077164
1725631031466765000,11.22676513671875,-0.39178192615509033,-0.3053660988807678,0.19225499033927917
1725631031476718000,11.236718017578125,-0.47888460755348206,-0.30225419998168945,0.3026469945907593
1725631031486671000,11.246671142578125,-0.536439836025238,-0.2631402313709259,0.3404061794281006
1725631031496624000,11.2566240234375,-0.5347729325294495,-0.2453942596912384,0.3535771071910858
1725631031506577000,11.266576904296874,-0.4927769899368286,-0.22795191407203674,0.40168535709381104
1725631031516530000,11.276530029296875,-0.43967676162719727,-0.2542876601219177,0.39042285084724426
1725631031526483000,11.28648291015625,-0.4161882996559143,-0.2028449922800064,0.26183226704597473
1725631031536436000,11.29643603515625,-0.4295240640640259,-0.0895775556564331,0.2234792709350586
1725631031546389000,11.306388916015624,-0.42484158277511597,-0.08752530813217163,0.18920087814331055
1725631031556342000,11.316342041015625,-0.44419237971305847,-0.09821736812591553,0.23915937542915344
1725631031566295000,11.326294921875,-0.46485188603401184,-0.14330555498600006,0.21669428050518036
1725631031576248000,11.336248046875,-0.4566304385662079,-0.14225919544696808,0.2526959478855133
1725631031586201000,11.346201171875,-0.4681946933269501,-0.1410396546125412,0.30593058466911316
1725631031596155100,11.356155029296875,-0.4740946590900421,-0.11025191098451614,0.2854999005794525
1725631031606108200,11.366108154296874,-0.5045003294944763,-0.08175992965698242,0.3096933364868164
1725631031616061200,11.376061279296875,-0.5572442412376404,-0.05040973424911499,0.29364168643951416
1725631031626014200,11.38601416015625,-0.6164089441299438,-0.027185678482055664,0.21986687183380127
1725631031635967000,11.395967041015625,-0.685968279838562,0.013140172697603703,0.23726478219032288
1725631031645920000,11.405919921875,-0.7580127716064453,0.07538513094186783,0.2914592921733856
1725631031655873000,11.415873046875,-0.8287407159805298,0.17180489003658295,0.3795502781867981
1725631031665826000,11.425825927734374,-0.8936476111412048,0.21857430040836334,0.4976530075073242
1725631031675779000,11.435779052734375,-0.9444724321365356,0.15654103457927704,0.46311262249946594
1725631031685732000,11.445732177734374,-0.9399377107620239,0.0488387830555439,0.43279629945755005
1725631031695685000,11.45568505859375,-0.9308717846870422,-0.033755697309970856,0.5127979516983032
1725631031705638100,11.46563818359375,-0.9090365767478943,-0.0856475755572319,0.5424883365631104
1725631031715591200,11.475591064453125,-0.8482711911201477,-0.1552242636680603,0.5574643611907959
1725631031725544200,11.485544189453124,-0.752210795879364,-0.16366970539093018,0.6035301685333252
1725631031735497200,11.495497314453125,-0.6779991388320923,-0.057377889752388,0.6710189580917358
1725631031745450000,11.505449951171874,-0.6061538457870483,0.05683397874236107,0.6637073159217834
1725631031755403000,11.515403076171875,-0.534019947052002,0.1175287514925003,0.577225923538208
1725631031765356000,11.52535595703125,-0.46515244245529175,0.14929302036762238,0.5004899501800537
1725631031775309000,11.53530908203125,-0.41598570346832275,0.20532859861850739,0.4085403382778168
1725631031785263000,11.54526318359375,-0.3642529845237732,0.20350618660449982,0.2907244861125946
1725631031795216100,11.555216064453125,-0.316560834646225,0.20768575370311737,0.2411833107471466
1725631031805169200,11.565169189453124,-0.2809703052043915,0.25358647108078003,0.23964746296405792
1725631031815122200,11.5751220703125,-0.2554311156272888,0.3003385066986084,0.20393526554107666
1725631031825075200,11.5850751953125,-0.21708664298057556,0.3231167197227478,0.17972110211849213
1725631031835028200,11.5950283203125,-0.17512694001197815,0.3312894403934479,0.14369651675224304
1725631031844981200,11.604981201171874,-0.13900549709796906,0.33573830127716064,0.11199711263179779
1725631031854934300,11.614934326171875,-0.07838370651006699,0.3078715205192566,0.05229170620441437
1725631031864887300,11.62488720703125,-0.02549169771373272,0.2793601155281067,-0.019464176148176193
1725631031874840000,11.634840087890625,0.01542138122022152,0.29428234696388245,-0.045528002083301544
1725631031884793000,11.64479296875,0.022266626358032227,0.3175233006477356,-0.059049416333436966
1725631031894746000,11.65474609375,0.020438633859157562,0.2969927489757538,-0.1293984055519104
1725631031904699100,11.66469921875,0.05739287659525871,0.2719382047653198,-0.16509011387825012
1725631031914652200,11.674652099609375,0.09948254376649857,0.2724052965641022,-0.18394875526428223
1725631031924605200,11.684605224609374,0.10864534974098206,0.2626625597476959,-0.21485796570777893
1725631031934558200,11.69455810546875,0.12462830543518066,0.23734065890312195,-0.2198266237974167
1725631031944511200,11.70451123046875,0.13058899343013763,0.1844109743833542,-0.2306874692440033
1725631031954464300,11.71446435546875,0.1282012015581131,0.14040197432041168,-0.29991501569747925
1725631031964418000,11.72441796875,0.13389462232589722,0.11260034143924713,-0.37123242020606995
1725631031974371000,11.73437109375,0.14310222864151,0.08751975744962692,-0.3888247311115265
1725631031984324000,11.744323974609374,0.17571797966957092,0.0780479684472084,-0.4378097355365753
1725631031994277000,11.754277099609375,0.23132558166980743,0.08139156550168991,-0.43873465061187744
1725631032004230100,11.764230224609374,0.29853183031082153,0.10631675273180008,-0.4296451210975647
1725631032014183200,11.77418310546875,0.35317882895469666,0.12272822111845016,-0.4558468759059906
1725631032024136200,11.78413623046875,0.40752506256103516,0.10858655720949173,-0.48709264397621155
1725631032034089200,11.794089111328125,0.4673497676849365,0.066434845328331,-0.5477181673049927
1725631032044042000,11.8040419921875,0.5262783169746399,0.013839993625879288,-0.6088334918022156
1725631032053995000,11.8139951171875,0.5564104318618774,-0.022177662700414658,-0.6556729078292847
1725631032063948000,11.823947998046876,0.5870237350463867,-0.02593141235411167,-0.6772381663322449
1725631032073901000,11.833901123046875,0.5875856876373291,-0.022950004786252975,-0.6612754464149475
1725631032083854000,11.84385400390625,0.5828893780708313,-0.005852829664945602,-0.6416134834289551
1725631032093807000,11.85380712890625,0.5831445455551147,0.002344113541767001,-0.6244930624961853
1725631032103760100,11.863760009765626,0.6175523996353149,0.005683030933141708,-0.5811073780059814
1725631032113713200,11.873713134765625,0.670594334602356,-0.010832562111318111,-0.5376368761062622
1725631032123666200,11.883666259765626,0.7167152166366577,-0.05261410027742386,-0.5801417231559753
1725631032133619000,11.893618896484375,0.7230277061462402,-0.07108897715806961,-0.6114404797554016
1725631032143572000,11.903572021484376,0.7082070112228394,-0.01568872109055519,-0.6385591626167297
1725631032153526000,11.913526123046875,0.6823279857635498,0.05863238126039505,-0.6449779272079468
1725631032163478800,11.923478759765626,0.6430231332778931,0.11340712010860443,-0.6031774878501892
1725631032173431800,11.933431884765625,0.6132732033729553,0.1440393328666687,-0.5657755136489868
1725631032183384800,11.943384765625,0.6318880319595337,0.11534535884857178,-0.6203659772872925
1725631032193337900,11.953337890625,0.6936835050582886,0.009499621577560902,-0.6984890103340149
1725631032203291000,11.963290771484376,0.72759610414505,-0.07137405872344971,-0.7467916011810303
1725631032213244000,11.973243896484375,0.7284739017486572,-0.03167884796857834,-0.6928764581680298
1725631032223197000,11.983197021484376,0.7093306183815002,0.04427828639745712,-0.5636919736862183
1725631032233150000,11.99314990234375,0.6473926901817322,0.12080875039100647,-0.4281562268733978
1725631032243103000,12.00310302734375,0.6056535243988037,0.20083008706569672,-0.37289631366729736
1725631032253055700,12.0130556640625,0.5727227330207825,0.2575591206550598,-0.3542206287384033
1725631032263008800,12.0230087890625,0.5395172238349915,0.2777576148509979,-0.3364603519439697
1725631032272961800,12.0329619140625,0.4692923426628113,0.2999747693538666,-0.23463118076324463
1725631032282914800,12.042914794921876,0.3984867036342621,0.32957324385643005,-0.07076261192560196
1725631032292867800,12.052867919921875,0.4578384459018707,0.27646368741989136,-0.07582367956638336
1725631032302820900,12.06282080078125,0.6819146275520325,0.028699668124318123,-0.5426039099693298
1725631032312774000,12.07277392578125,0.8205643892288208,-0.21521392464637756,-0.8497702479362488
1725631032322727000,12.082726806640625,0.7709958553314209,-0.15386195480823517,-0.55366051197052
1725631032332681000,12.092680908203125,0.5626985430717468,0.02237885259091854,-0.2577156722545624
1725631032342634000,12.102634033203126,0.4647761285305023,0.09564749151468277,-0.26663291454315186
1725631032352587000,12.1125869140625,0.42406386137008667,0.07010351121425629,-0.2916423976421356
1725631032362540000,12.1225400390625,0.36643776297569275,0.016742490231990814,-0.2598435580730438
1725631032372493000,12.1324931640625,0.28996777534484863,0.10094072669744492,-0.24538607895374298
1725631032382445800,12.14244580078125,0.17843270301818848,0.2870340645313263,-0.18954041600227356
1725631032392398800,12.15239892578125,0.06712401658296585,0.43156009912490845,-0.09665681421756744
1725631032402351900,12.162351806640626,-0.07931279391050339,0.41526365280151367,0.12762153148651123
1725631032412305000,12.172304931640625,-0.17934033274650574,0.44607189297676086,0.09441564232110977
1725631032422258000,12.1822578125,-0.16914770007133484,0.3848520517349243,0.14662832021713257
1725631032432211000,12.1922109375,-0.20375147461891174,0.1715346872806549,0.38754478096961975
1725631032442164000,12.2021640625,-0.19554270803928375,0.18186743557453156,0.5612007975578308
1725631032452117000,12.212116943359375,-0.08703860640525818,-0.10009527951478958,0.49752116203308105
1725631032462070000,12.222070068359375,0.016856711357831955,-0.23517681658267975,0.3727114498615265
1725631032472023000,12.23202294921875,0.10738767683506012,-0.26183027029037476,0.2785942852497101
1725631032481975800,12.241975830078125,0.1496681123971939,-0.1583084613084793,0.21705028414726257
1725631032491928800,12.2519287109375,0.09671273827552795,0.0016785518964752555,0.13062112033367157
1725631032501881900,12.2618818359375,0.01482360903173685,0.09612959623336792,0.06665228307247162
1725631032511835000,12.2718349609375,-0.021152768284082413,0.11009307950735092,0.014719045720994473
1725631032521789000,12.281788818359376,0.0022155605256557465,0.013093102723360062,0.11650928109884262
