time,seconds_elapsed,z,y,x
1725891178898895600,0.0348955078125,0,0,0
1725891178917744600,0.05374462890625,3.135991096496582,0.4217846393585205,-0.5547056198120117
1725891178936593700,0.07259375,0.8291959762573242,0.029920101165771484,-0.3588743209838867
1725891178955442700,0.091442626953125,-0.5464191436767578,-0.3632776737213135,-0.3645029067993164
1725891178974291700,0.110291748046875,-0.27514076232910156,-0.7698273658752441,-0.22020626068115234
1725891178993140500,0.129140380859375,-1.176218032836914,-0.7758095264434814,-1.284167766571045
1725891179011989800,0.14798974609375,-1.224367618560791,0.611696720123291,-1.811182975769043
1725891179030838800,0.1668388671875,-0.2937631607055664,1.4901084899902344,-3.636216163635254
1725891179049687800,0.185687744140625,-0.9608383178710938,0.6584677696228027,-2.7898287773132324
1725891179068536800,0.204536865234375,-0.8654899597167969,-1.2107930183410645,-0.31148242950439453
1725891179087385600,0.223385498046875,-1.6794123649597168,-1.0471551418304443,1.3109923601150513
1725891179106235000,0.24223486328125,-1.137953758239746,-0.5920095443725586,2.768324613571167
1725891179125084000,0.261083984375,0.5084247589111328,0.02442455291748047,2.3870620727539062
1725891179143932700,0.2799326171875,0.3430366516113281,-1.185316562652588,1.3003748655319214
1725891179162782000,0.298781982421875,0.3244972229003906,-0.5945713520050049,0.4673752784729004
1725891179181630700,0.317630615234375,0.0228424072265625,0.1785111427307129,0.052556514739990234
1725891179200479700,0.336479736328125,-0.20224857330322266,0.9354982376098633,0.5067040920257568
1725891179219329000,0.3553291015625,0.6222476959228516,1.2948002815246582,1.2049202919006348
1725891179238177800,0.374177734375,-0.13120269775390625,1.0005712509155273,0.6477169990539551
1725891179257027000,0.393027099609375,0.01383209228515625,0.4260292053222656,-0.8939828872680664
1725891179275875800,0.411875732421875,2.3409643173217773,1.7988815307617188,-5.316433906555176
1725891179294724900,0.430724853515625,1.1455116271972656,-0.6430020332336426,2.0833544731140137
1725891179313574100,0.44957421875,-0.6046266555786133,1.5188021659851074,-0.05902862548828125
1725891179332423000,0.4684228515625,-3.1323318481445312,-2.074338912963867,0.3561871349811554
1725891179351272000,0.48727197265625,-1.038877010345459,0.41021728515625,1.4238474369049072
1725891179370121000,0.506120849609375,2.606672763824463,-0.5113382339477539,0.5236201286315918
1725891179388970000,0.524969970703125,6.435863971710205,-4.083317279815674,-1.8490310907363892
1725891179407819300,0.5438193359375,3.808306932449341,-5.379136085510254,-2.8705601692199707
1725891179426668000,0.56266796875,-1.8958252668380737,-4.167532444000244,-8.420438766479492
1725891179445517000,0.58151708984375,-5.975944995880127,-6.063246726989746,-5.361913681030273
1725891179464366000,0.600365966796875,-2.7592098712921143,-0.6175737380981445,-3.9258980751037598
1725891179483215000,0.619215087890625,-0.5938348770141602,-1.0541954040527344,-7.156896114349365
1725891179502064000,0.638064208984375,1.7261887788772583,-4.409461975097656,-5.858529090881348
1725891179520913200,0.6569130859375,1.7378907203674316,-3.182859182357788,-3.088998794555664
1725891179539762200,0.67576220703125,2.0715434551239014,-0.5146546363830566,-0.5083284378051758
1725891179558611200,0.694611083984375,2.1627118587493896,1.3927993774414062,0.8607749938964844
1725891179577460200,0.713460205078125,1.943349838256836,2.364687919616699,1.6760964393615723
1725891179596309200,0.732309326171875,1.8651847839355469,1.9747695922851562,1.696645736694336
1725891179615158300,0.751158203125,1.3406330347061157,1.0149445533752441,0.7678914070129395
1725891179634007300,0.77000732421875,1.198477864265442,0.9468650817871094,0.9911274909973145
1725891179652856300,0.788856201171875,-1.4397838115692139,2.280329704284668,-1.8541431427001953
1725891179671705300,0.807705322265625,4.953517913818359,3.4976048469543457,-2.7772369384765625
1725891179690554400,0.826554443359375,-0.6892684698104858,-6.735922813415527,-2.062957286834717
1725891179709403400,0.8454033203125,-3.1321163177490234,-4.312260627746582,3.515286445617676
1725891179728252400,0.86425244140625,-3.3460757732391357,-2.316390037536621,19.818248748779297
1725891179747101400,0.883101318359375,-3.011512041091919,4.849217414855957,3.7240772247314453
1725891179765950500,0.901950439453125,5.910871982574463,0.3243427276611328,-3.9277501106262207
1725891179784799500,0.920799560546875,-1.4398317337036133,1.4066672325134277,-1.8734865188598633
1725891179803648500,0.9396484375,0.4384669065475464,0.8080620765686035,-0.30036020278930664
1725891179822497500,0.95849755859375,-2.088336229324341,-1.323103427886963,-0.778048038482666
1725891179841346600,0.9773466796875,-3.3397936820983887,-0.522700309753418,-2.7794837951660156
1725891179860195600,0.996195556640625,-2.1141676902770996,-0.0029249191284179688,-0.8901748657226562
1725891179879044600,1.015044677734375,-1.9644215106964111,0.6283812522888184,-0.01889514923095703
1725891179897893600,1.0338935546875,-1.5518112182617188,1.2711758613586426,-0.7798190116882324
1725891179916742700,1.05274267578125,-1.7885996103286743,0.27303647994995117,-1.4332456588745117
1725891179935591700,1.071591796875,-2.7694053649902344,-0.48895692825317383,-0.8284282684326172
1725891179954440700,1.090440673828125,-3.200530529022217,-0.8573498725891113,-1.194139003753662
1725891179973289700,1.109289794921875,-3.612823486328125,0.40839338302612305,-1.8853378295898438
1725891179992138800,1.128138671875,-2.229581117630005,0.2976536750793457,-1.2685112953186035
1725891180010987800,1.14698779296875,-1.6696560382843018,-0.8448853492736816,-0.9731259346008301
1725891180029836800,1.1658369140625,-1.2921375036239624,-0.614443302154541,-0.9707136154174805
1725891180048685800,1.184685791015625,-0.5665609836578369,-1.6331987380981445,-1.561880111694336
1725891180067534800,1.203534912109375,-0.7922608852386475,-1.9720797538757324,-1.6825518608093262
1725891180086383900,1.2223837890625,0.3257399797439575,-2.1776528358459473,0.15554523468017578
1725891180105233000,1.24123291015625,1.1070047616958618,-2.2068400382995605,0.25537872314453125
1725891180124082200,1.260082275390625,3.019942283630371,-3.9953527450561523,-0.554053783416748
1725891180142931000,1.278930908203125,5.438185691833496,-5.693214416503906,-0.8803601264953613
1725891180161780000,1.297780029296875,6.251199245452881,-1.0716252326965332,0.7112064361572266
1725891180180629200,1.316629150390625,5.9846272468566895,1.702408790588379,5.016627311706543
1725891180199478000,1.33547802734375,4.542927265167236,-0.704653263092041,5.398761749267578
1725891180218327000,1.3543271484375,3.7928593158721924,-0.17359399795532227,2.509613513946533
1725891180237176300,1.37317626953125,2.7654073238372803,-1.4257426261901855,0.1357560157775879
1725891180256025000,1.392025146484375,0.6462193131446838,-0.15638113021850586,0.8919277191162109
1725891180274874400,1.410874267578125,0.37882000207901,1.2563915252685547,5.385324478149414
1725891180293723400,1.429723388671875,-0.2742733359336853,2.925330638885498,2.943422317504883
1725891180312572200,1.448572265625,-1.3765376806259155,2.0271248817443848,-1.0245022773742676
1725891180331421400,1.46742138671875,-1.7791293859481812,2.0294618606567383,-0.812751293182373
1725891180350270500,1.4862705078125,-1.9512169361114502,3.349285125732422,-1.3920722007751465
1725891180369119200,1.505119140625,-1.020568609237671,1.244894027709961,-3.638000011444092
1725891180387968500,1.523968505859375,2.3578994274139404,-2.532108783721924,0.7312378883361816
1725891180406817500,1.542817626953125,0.19172251224517822,6.9762678146362305,2.7704100608825684
1725891180425666300,1.561666259765625,1.7771739959716797,1.3850555419921875,-1.2294354438781738
1725891180444515600,1.580515625,2.2509002685546875,-3.879535675048828,1.2928500175476074
1725891180463364600,1.599364501953125,0.30892932415008545,5.819888114929199,-0.0845327377319336
1725891180482213600,1.618213623046875,0.15549492835998535,5.7087273597717285,0.4793252944946289
1725891180501062700,1.637062744140625,-2.9351677894592285,-0.5974678993225098,-2.3548216819763184
1725891180519911700,1.65591162109375,-0.38354790210723877,4.295266151428223,-2.193787097930908
1725891180538760700,1.6747607421875,-2.9819138050079346,4.116925239562988,0.5576133728027344
1725891180557609700,1.693609619140625,-1.404595136642456,2.0519142150878906,-1.6419687271118164
1725891180576458800,1.712458740234375,-2.840909004211426,3.7048845291137695,-1.161067008972168
1725891180595307800,1.731307861328125,-5.033604621887207,2.9550371170043945,-2.200972557067871
1725891180614156800,1.75015673828125,-3.9228057861328125,1.938448429107666,-2.2720303535461426
1725891180633005800,1.769005859375,-4.063397407531738,3.5399341583251953,-0.12659883499145508
1725891180651854800,1.787854736328125,-2.213592529296875,1.4458603858947754,0.16761255264282227
1725891180670703900,1.806703857421875,-1.0410552024841309,1.1462020874023438,-1.0511722564697266
1725891180689553000,1.825552978515625,-0.9036344289779663,0.32526731491088867,-0.7132015228271484
1725891180708402000,1.84440185546875,0.8496150374412537,1.594390869140625,-1.495572566986084
1725891180727251000,1.8632509765625,2.3046467304229736,0.8096399307250977,-0.6249589920043945
1725891180746100000,1.882099853515625,2.5980679988861084,-1.2542409896850586,-0.6876420974731445
1725891180764949000,1.900948974609375,3.014887571334839,0.15604782104492188,0.07766008377075195
1725891180783798000,1.919798095703125,3.1936841011047363,0.20643186569213867,0.29381227493286133
1725891180802647000,1.93864697265625,1.2914273738861084,0.1561117172241211,-1.3062067031860352
1725891180821496000,1.95749609375,1.8577443361282349,1.0134410858154297,-0.9426469802856445
1725891180840345000,1.976344970703125,1.0539567470550537,0.22626304626464844,-1.1337552070617676
1725891180859194400,1.9951943359375,-0.38353949785232544,1.7846431732177734,-1.135840892791748
1725891180878043400,2.01404345703125,0.692478358745575,0.4485173225402832,-1.6410937309265137
1725891180896892200,2.03289208984375,1.6559655666351318,0.022571563720703125,-2.365346908569336
1725891180915741400,2.051741455078125,0.6864984035491943,1.832972526550293,-1.1976981163024902
1725891180934590500,2.070590576171875,0.8502088785171509,0.7801461219787598,0.486478328704834
1725891180953439500,2.089439453125,1.0539096593856812,0.7576799392700195,1.9925603866577148
1725891180972288500,2.10828857421875,-0.6472880244255066,-0.9503931999206543,0.717005729675293
1725891180991137500,2.127137451171875,-3.6483073234558105,-2.127047538757324,-1.243746280670166
1725891181009986600,2.145986572265625,1.8808339834213257,-7.673990249633789,-1.9768762588500977
1725891181028835600,2.164835693359375,1.4680445194244385,-5.709845542907715,1.771690845489502
1725891181047684600,2.1836845703125,1.2597849369049072,-5.404638767242432,4.942820072174072
1725891181066533600,2.20253369140625,-0.9911213517189026,-8.279633522033691,-0.8886685371398926
1725891181085382700,2.221382568359375,5.080268859863281,-1.9203338623046875,0.8375802040100098
1725891181104231700,2.240231689453125,8.719136238098145,-3.297250747680664,4.085992336273193
1725891181123080700,2.259080810546875,5.384392738342285,-3.4039087295532227,0.562983512878418
1725891181141929700,2.2779296875,5.091116905212402,-0.5959219932556152,2.0011539459228516
1725891181160778800,2.29677880859375,0.7736274003982544,0.49684572219848633,3.7351412773132324
1725891181179627800,2.315627685546875,-0.6052077412605286,-0.28069305419921875,1.5623626708984375
1725891181198477000,2.33447705078125,-2.5412769317626953,-2.731044054031372,-0.30352020263671875
1725891181217326000,2.353326171875,-0.8827071785926819,-4.070155143737793,-0.9970846176147461
1725891181236174800,2.3721748046875,-0.06915509700775146,-2.7589352130889893,-0.730097770690918
1725891181255024000,2.391024169921875,0.2696019411087036,0.45934200286865234,-0.0003070831298828125
1725891181273873200,2.409873046875,1.0850939750671387,2.625565528869629,1.5319762229919434
1725891181292722200,2.42872216796875,1.164738655090332,2.863062858581543,1.630152702331543
1725891181311571200,2.4475712890625,-0.07096099853515625,1.84968900680542,0.3427424430847168
1725891181330420200,2.466420166015625,0.4933493137359619,1.4733290672302246,0.5568356513977051
1725891181349269200,2.485269287109375,-1.0856602191925049,2.1324143409729004,0.2875351905822754
1725891181368118300,2.5041181640625,-3.5450427532196045,3.295328140258789,0.6041159629821777
1725891181386967300,2.52296728515625,-1.729710578918457,2.1399154663085938,0.45755672454833984
1725891181405816300,2.54181640625,-0.16466856002807617,3.3012704849243164,0.5471477508544922
1725891181424665600,2.56066552734375,0.19239377975463867,2.598727226257324,-0.9100618362426758
1725891181443514400,2.579514404296875,-0.27536487579345703,1.482689380645752,-1.4868645668029785
1725891181462363400,2.59836328125,0.48857641220092773,1.2151527404785156,-1.268470287322998
1725891181481212700,2.617212646484375,1.0433216094970703,-0.036336421966552734,-0.4636573791503906
1725891181500061700,2.636061767578125,-0.41982173919677734,0.4167313575744629,-0.9096536636352539
1725891181518910700,2.65491064453125,-1.5865182876586914,-0.17001914978027344,-0.5971026420593262
1725891181537759700,2.673759765625,0.07952260971069336,-0.7660403251647949,-0.4243907928466797
1725891181556608800,2.69260888671875,-0.09642219543457031,-0.6055500507354736,-1.0237083435058594
1725891181575457800,2.711457763671875,0.2751498222351074,-0.6742367744445801,0.017513751983642578
1725891181594306800,2.730306884765625,0.43320441246032715,-1.0230422019958496,1.300936222076416
1725891181613155800,2.74915576171875,0.8698012828826904,-3.9740066528320312,-0.6135950088500977
1725891181632004900,2.7680048828125,0.012311220169067383,-0.02084064483642578,-1.7139277458190918
1725891181650854100,2.786854248046875,-0.6530189514160156,1.6909899711608887,0.9521527290344238
1725891181669703200,2.805703125,-1.0556082725524902,-1.9432463645935059,-3.7742714881896973
1725891181688552200,2.82455224609375,-0.3583049774169922,2.977717876434326,-0.1920185089111328
1725891181707401200,2.843401123046875,0.00994110107421875,-0.693000316619873,1.6410889625549316
1725891181726250200,2.862250244140625,0.886993408203125,-2.3337607383728027,-1.4108657836914062
1725891181745099300,2.881099365234375,0.18772149085998535,-1.5970611572265625,-1.4770255088806152
1725891181763948300,2.8999482421875,1.4945504665374756,-4.007078647613525,-0.9822826385498047
1725891181782797300,2.91879736328125,0.16664791107177734,-2.1519670486450195,-1.5568890571594238
1725891181801646300,2.937646240234375,-0.47064685821533203,-1.1997098922729492,1.9853105545043945
1725891181820495600,2.95649560546875,-0.3034701347351074,-0.5101690292358398,1.031682014465332
1725891181839344600,2.9753447265625,-2.880034923553467,-0.2623586654663086,1.8200702667236328
1725891181858193700,2.994193603515625,-2.2691006660461426,0.5472126007080078,1.5713443756103516
1725891181877042700,3.013042724609375,-1.076350450515747,2.465579032897949,0.5257277488708496
1725891181895891700,3.0318916015625,-0.06566166877746582,2.683274745941162,0.2138347625732422
1725891181914740700,3.05074072265625,0.562441349029541,4.47902774810791,-0.4794139862060547
1725891181933589800,3.06958984375,1.1236720085144043,3.6993861198425293,-0.42218732833862305
1725891181952439000,3.08843896484375,0.47661828994750977,4.121103763580322,-0.9509482383728027
1725891181971288000,3.1072880859375,1.8180384635925293,2.448031425476074,-0.31758546829223633
1725891181990137000,3.12613720703125,1.689103603363037,1.5600800514221191,-1.3732500076293945
1725891182008986000,3.144986083984375,1.0306510925292969,0.5031466484069824,-1.750077247619629
1725891182027835100,3.163835205078125,-0.10602760314941406,0.501887321472168,-2.9333415031433105
1725891182046684200,3.18268408203125,-0.00496673583984375,0.4520401954650879,-2.157626152038574
1725891182065533200,3.201533203125,-0.65903639793396,0.4366111755371094,-1.5481328964233398
1725891182084382500,3.220382568359375,-0.9975688457489014,-0.059961795806884766,-1.418907642364502
1725891182103231500,3.2392314453125,-2.415534019470215,0.4243307113647461,-0.7664265632629395
1725891182122080500,3.25808056640625,-2.2866809368133545,0.6745834350585938,0.9628696441650391
1725891182140929500,3.276929443359375,-0.2505148649215698,0.3242459297180176,1.7911319732666016
1725891182159778600,3.295778564453125,-2.3825533390045166,0.08633804321289062,-0.17853260040283203
1725891182178627600,3.314627685546875,-0.7750183343887329,-1.812093734741211,0.6415538787841797
1725891182197476900,3.333476806640625,1.780839443206787,-1.117161750793457,0.5303812026977539
1725891182216326000,3.352325927734375,4.17761754989624,-1.0122718811035156,1.7869901657104492
1725891182235175000,3.3711748046875,1.5168421268463135,-2.7413859367370605,0.5125980377197266
1725891182254024000,3.39002392578125,2.3393638134002686,-2.147221803665161,0.02046489715576172
1725891182272873000,3.408873046875,2.658114433288574,-3.024991750717163,1.4438457489013672
1725891182291722000,3.427721923828125,0.747106671333313,-2.2153120040893555,0.7074909210205078
1725891182310571000,3.446571044921875,-0.4196302592754364,-2.700580596923828,0.02157878875732422
1725891182329420300,3.465420166015625,0.31198811531066895,-2.926318883895874,0.6884946823120117
1725891182348269300,3.484269287109375,0.874191164970398,-2.161573886871338,-0.11639022827148438
1725891182367118300,3.503118408203125,1.705952525138855,-2.5908024311065674,-0.29596424102783203
1725891182385967400,3.52196728515625,1.316034197807312,-3.3116164207458496,0.011293411254882812
1725891182404816400,3.54081640625,1.6882485151290894,-3.0526692867279053,0.6752586364746094
1725891182423665400,3.55966552734375,1.0731550455093384,-2.0500545501708984,0.05026054382324219
1725891182442514400,3.578514404296875,-0.1705789566040039,-1.4773378372192383,-0.28017425537109375
1725891182461363700,3.59736376953125,0.1679058074951172,-0.11730098724365234,0.03980445861816406
1725891182480212700,3.616212646484375,-0.06570887565612793,0.29513978958129883,1.395552635192871
1725891182499061800,3.635061767578125,-0.9832439422607422,0.7203984260559082,1.0083036422729492
1725891182517910800,3.653910888671875,-1.0020334720611572,0.4554176330566406,0.5658845901489258
1725891182536759800,3.672759765625,0.44057464599609375,0.35175085067749023,0.3867664337158203
1725891182555608800,3.69160888671875,0.16503286361694336,1.3465981483459473,0.16974830627441406
1725891182574458000,3.7104580078125,-0.9675779342651367,1.6339216232299805,0.035305023193359375
1725891182593307100,3.72930712890625,0.845292329788208,1.3078079223632812,0.14637184143066406
1725891182612156200,3.74815625,-0.526569128036499,1.5855035781860352,0.5797977447509766
1725891182631005200,3.767005126953125,-1.3964269161224365,1.838670253753662,0.17655324935913086
1725891182649854500,3.7858544921875,-1.12874174118042,2.0098204612731934,0.14054489135742188
1725891182668703500,3.804703369140625,-1.4395203590393066,1.1727538108825684,0.5351152420043945
1725891182687552500,3.823552490234375,-0.8354141712188721,0.3126959800720215,1.359987735748291
1725891182706401500,3.842401611328125,-0.5296745300292969,0.2604098320007324,0.9872007369995117
1725891182725250600,3.86125048828125,-1.424105167388916,0.16617679595947266,0.37811899185180664
1725891182744099600,3.880099609375,0.037904977798461914,0.6761589050292969,0.30682992935180664
1725891182762948900,3.898948974609375,0.7595477104187012,0.38843441009521484,0.3448362350463867
1725891182781798000,3.9177978515625,-1.3999793529510498,1.7598700523376465,-0.9720754623413086
1725891182800647000,3.93664697265625,-0.5252265930175781,2.625171184539795,0.9575052261352539
1725891182819496000,3.955495849609375,-0.6307439804077148,2.548887252807617,1.3443727493286133
1725891182838345000,3.974344970703125,-0.9634020328521729,2.6724538803100586,-0.29605579376220703
1725891182857194200,3.9931943359375,0.4528977870941162,1.9173955917358398,0.398681640625
1725891182876043300,4.012043212890625,1.987030267715454,1.363356590270996,0.9571647644042969
1725891182894892300,4.030892333984375,0.4085566997528076,0.923985481262207,-0.8993425369262695
1725891182913741300,4.0497412109375,2.6310548782348633,1.1500177383422852,-1.9094886779785156
1725891182932590600,4.068590576171875,3.523144245147705,-0.12656450271606445,-0.00876617431640625
1725891182951439600,4.087439697265625,1.2406210899353027,0.6416816711425781,-0.25478172302246094
1725891182970288600,4.10628857421875,1.7028114795684814,0.6407718658447266,-2.4874424934387207
1725891182989137700,4.1251376953125,2.2320556640625,-0.05562257766723633,-0.9625558853149414
1725891183007987000,4.143987060546875,1.3370366096496582,-0.4587407112121582,-0.07408905029296875
1725891183026836000,4.1628359375,0.2738323211669922,-0.42924022674560547,-0.9697890281677246
1725891183045685000,4.18168505859375,0.5364460945129395,-1.7766294479370117,-0.23666954040527344
1725891183064534000,4.200533935546875,0.5217897891998291,-2.3509814739227295,0.26953983306884766
1725891183083383000,4.219383056640625,1.1469972133636475,-1.8262090682983398,0.5644016265869141
1725891183102232300,4.238232421875,-0.30985379219055176,-1.3099479675292969,-0.34203243255615234
1725891183121081300,4.257081298828125,-0.32184600830078125,-0.775489330291748,-0.033194541931152344
1725891183139930400,4.275930419921875,0.657081127166748,-0.6810946464538574,0.6053657531738281
1725891183158779400,4.294779296875,0.08142685890197754,-0.46659326553344727,0.2976055145263672
1725891183177628400,4.31362841796875,0.8463742733001709,-0.6056990623474121,-0.11744213104248047
1725891183196477700,4.332477783203125,0.7860524654388428,-0.5643868446350098,-0.10374927520751953
1725891183215326700,4.35132666015625,0.19731402397155762,-0.5915384292602539,0.2306814193725586
1725891183234175700,4.37017578125,0.5892095565795898,-1.2787504196166992,1.0474557876586914
1725891183253024800,4.389024658203125,0.3988015651702881,-0.9954042434692383,1.0266175270080566
1725891183271874000,4.4078740234375,-1.2576215267181396,-1.2161893844604492,-0.8318514823913574
1725891183290723000,4.42672314453125,-1.0426900386810303,-2.3659567832946777,-1.0452923774719238
1725891183309572000,4.445572021484375,-0.9620974063873291,-2.0914058685302734,-1.1468720436096191
1725891183328421000,4.464421142578125,0.4821152687072754,-1.9047882556915283,0.09145641326904297
1725891183347270400,4.4832705078125,-1.4563612937927246,-0.5614562034606934,-0.5756001472473145
1725891183366119400,4.502119384765625,-1.2963719367980957,-1.238898754119873,-0.2785372734069824
1725891183384968400,4.520968505859375,-0.532228946685791,-0.734560489654541,-0.35093212127685547
1725891183403817500,4.5398173828125,0.06046581268310547,-0.6810798645019531,-0.024628162384033203
1725891183422666800,4.558666748046875,0.9367995262145996,-0.31026744842529297,0.02646923065185547
1725891183441515800,4.577515869140625,-0.5513596534729004,-0.5434203147888184,-1.0138263702392578
1725891183460364800,4.59636474609375,-0.25102663040161133,0.06557703018188477,-0.1968545913696289
1725891183479213800,4.6152138671875,-0.10502099990844727,0.8695440292358398,0.6766300201416016
1725891183498063000,4.63406298828125,-0.922391414642334,0.7884445190429688,0.30150938034057617
1725891183516912000,4.652912109375,-1.0593886375427246,0.45947742462158203,0.5200304985046387
1725891183535761200,4.67176123046875,-1.0185661315917969,1.4928898811340332,1.2530708312988281
1725891183554610200,4.690610107421875,-0.8526167869567871,2.6698551177978516,0.5477561950683594
1725891183573459500,4.70945947265625,1.2057640552520752,1.9396157264709473,1.308802604675293
1725891183592308500,4.72830859375,1.7707037925720215,0.11789083480834961,1.0749902725219727
1725891183611157500,4.747157470703125,0.5902845859527588,-2.277600049972534,-0.8782243728637695
1725891183630006800,4.7660068359375,0.7718842029571533,-0.403353214263916,0.5807304382324219
1725891183648855800,4.784855712890625,0.3565711975097656,-0.47011423110961914,1.4246511459350586
1725891183667704800,4.803704833984375,-1.6210527420043945,-0.14141035079956055,-0.9843754768371582
1725891183686554000,4.82255419921875,-0.013504981994628906,-0.245758056640625,-0.057503700256347656
1725891183705403100,4.841403076171875,-0.6814727783203125,-0.5204758644104004,0.8838033676147461
1725891183724252200,4.860252197265625,0.1508653163909912,-1.1210966110229492,0.7433347702026367
1725891183743101400,4.879101318359375,-0.15299344062805176,-1.21610689163208,0.18538570404052734
1725891183761950500,4.897950439453125,0.32779884338378906,-0.9328551292419434,-0.10940361022949219
1725891183780799500,4.916799560546875,0.7255337238311768,-0.10621786117553711,0.7227411270141602
1725891183799648500,4.9356484375,0.33872056007385254,0.0006957054138183594,0.0428466796875
1725891183818497800,4.954497802734375,1.1119186878204346,-0.2083125114440918,0.29846763610839844
1725891183837346800,4.973346923828125,0.7169139385223389,-0.7714085578918457,-0.35797929763793945
1725891183856195800,4.99219580078125,0.8785207271575928,-0.2203059196472168,0.6495513916015625
1725891183875044900,5.011044921875,0.32590579986572266,-0.26419544219970703,0.21798229217529297
1725891183893894100,5.02989404296875,-0.7016928195953369,0.8296494483947754,0.03790760040283203
1725891183912743200,5.0487431640625,0.5575582981109619,0.5397143363952637,0.7520608901977539
1725891183931592400,5.067592529296875,-1.1531131267547607,0.7699770927429199,-0.7057504653930664
1725891183950441500,5.08644140625,1.558457374572754,-0.21613550186157227,-0.24192094802856445
1725891183969290500,5.10529052734375,0.7001638412475586,-0.4510643482208252,0.431215763092041
1725891183988139800,5.124139892578125,0.3144412040710449,-0.24411296844482422,-1.5958356857299805
1725891184006988800,5.14298876953125,0.07506227493286133,0.055739402770996094,-0.09375667572021484
1725891184025837800,5.161837890625,0.15560102462768555,0.24660587310791016,-0.7913923263549805
1725891184044686800,5.180686767578125,0.1126565933227539,-0.2579507827758789,-0.7454109191894531
1725891184063536000,5.1995361328125,0.846337080001831,0.33190488815307617,-0.43084239959716797
1725891184082385200,5.21838525390625,1.1740121841430664,0.33864641189575195,0.5121221542358398
1725891184101234200,5.237234130859375,-1.016934871673584,0.3459591865539551,0.7612295150756836
1725891184120083500,5.25608349609375,0.13516807556152344,-0.33003950119018555,-0.7531051635742188
1725891184138932500,5.274932373046875,0.5646352767944336,-1.172314167022705,0.13904428482055664
1725891184157781800,5.29378173828125,0.024069786071777344,-0.884955883026123,-0.14301490783691406
1725891184176630800,5.312630859375,0.057534217834472656,-1.230961799621582,0.18434524536132812
1725891184195479800,5.331479736328125,-0.00506591796875,-1.3054580688476562,-0.8318243026733398
1725891184214328800,5.350328857421875,0.4791073799133301,-0.9649286270141602,-0.8159208297729492
1725891184233178000,5.36917822265625,2.908325672149658,-0.9037485122680664,-0.19494915008544922
1725891184252027100,5.388027099609375,0.43443918228149414,0.005719184875488281,0.2593235969543457
1725891184270876200,5.406876220703125,-0.8706841468811035,-0.5229830741882324,-0.6495165824890137
1725891184289725400,5.425725341796875,1.5463099479675293,-0.5092954635620117,-0.26272058486938477
1725891184308574500,5.444574462890625,-0.31084394454956055,0.27765989303588867,-0.580592155456543
1725891184327423700,5.463423828125,0.45862483978271484,0.23488283157348633,-1.188878059387207
1725891184346272800,5.482272705078125,1.2143120765686035,-1.3589885234832764,0.4376411437988281
1725891184365121800,5.501121826171875,0.012319087982177734,-1.835275650024414,-0.3550605773925781
1725891184383970800,5.519970703125,0.4391975402832031,-1.553863525390625,-0.3342905044555664
1725891184402820000,5.538820068359375,0.7746415138244629,-0.41727542877197266,-0.06666851043701172
1725891184421669000,5.557669189453125,0.7008047103881836,-0.3064899444580078,0.6205668449401855
1725891184440518400,5.576518310546875,0.595771312713623,-0.06601238250732422,-0.05680227279663086
1725891184459367400,5.595367431640625,0.1274557113647461,-1.549292802810669,0.15166378021240234
1725891184478216400,5.614216552734375,0.4272575378417969,0.10857820510864258,0.7108607292175293
1725891184497065700,5.633065673828125,0.4011802673339844,0.44810056686401367,0.7227330207824707
1725891184515914800,5.651914794921875,-0.06319808959960938,-0.5143804550170898,0.2236332893371582
1725891184534764000,5.670763916015625,-0.3194999694824219,0.5453190803527832,0.5265407562255859
1725891184553613000,5.689613037109375,0.22478914260864258,0.1510624885559082,0.8120174407958984
1725891184572462000,5.708462158203125,0.6109228134155273,0.4290781021118164,0.5646600723266602
1725891184591311000,5.72731103515625,0.8391551971435547,-0.1462383270263672,0.8815054893493652
1725891184610160400,5.746160400390625,0.7065858840942383,0.4898686408996582,2.151859760284424
1725891184629009700,5.765009765625,1.5849456787109375,-0.3581075668334961,3.800785541534424
1725891184647858700,5.783858642578125,3.106666088104248,-1.7114558219909668,5.216221332550049
1725891184666707700,5.802707763671875,4.890301704406738,-0.8122391700744629,7.606544494628906
1725891184685556700,5.821556640625,8.976842880249023,-3.1561789512634277,11.347122192382812
1725891184704406000,5.840406005859375,7.270756721496582,-2.124154567718506,8.429177284240723
1725891184723255000,5.859255126953125,7.108620643615723,-3.6460418701171875,5.172793388366699
1725891184742104300,5.878104248046875,4.3929595947265625,-3.426237106323242,4.71483850479126
1725891184760953300,5.896953369140625,2.1716582775115967,-4.517704486846924,4.691291809082031
1725891184779802400,5.91580224609375,2.0915229320526123,-8.266152381896973,2.187171459197998
1725891184798651600,5.934651611328125,-0.1973569393157959,-8.48238754272461,-0.593548059463501
1725891184817501000,5.9535009765625,-3.1729238033294678,-10.070638656616211,-3.206441879272461
1725891184836350000,5.972349853515625,-5.234114646911621,-10.835220336914062,-4.316659927368164
1725891184855199000,5.991198974609375,-6.296323299407959,-9.239425659179688,-4.169257164001465
1725891184874048300,6.01004833984375,-7.658863067626953,-6.502260208129883,-3.2484846115112305
1725891184892897300,6.028897216796875,-7.507261276245117,-4.113478660583496,-2.204714298248291
1725891184911746300,6.047746337890625,-6.089155197143555,-2.276979446411133,-2.0961766242980957
1725891184930595600,6.066595703125,-2.9189956188201904,0.7434334754943848,-1.1609764099121094
1725891184949444600,6.085444580078125,2.0882768630981445,3.32374906539917,0.6117503643035889
1725891184968294000,6.1042939453125,2.084986686706543,4.445056915283203,-1.4770861864089966
1725891184987143000,6.123142822265625,4.420351982116699,2.7476601600646973,-3.7094216346740723
1725891185005992000,6.141991943359375,6.433189392089844,2.556091070175171,-3.8221755027770996
1725891185024841200,6.16084130859375,8.697738647460938,2.6109015941619873,-3.3527588844299316
1725891185043690500,6.1796904296875,9.448811531066895,1.884319543838501,-5.44438362121582
1725891185062539500,6.19853955078125,6.448469161987305,-1.8852050304412842,-6.366024017333984
1725891185081388500,6.217388427734375,6.2249908447265625,1.4344559907913208,-6.009512901306152
1725891185100237800,6.23623779296875,4.242539405822754,4.394815444946289,-10.121695518493652
1725891185119086800,6.2550869140625,9.711461067199707,3.422628164291382,-4.754373550415039
1725891185137936100,6.27393603515625,2.9161386489868164,-1.66962468624115,-4.382140159606934
1725891185156785200,6.29278515625,0.3438453674316406,-3.091871500015259,-2.3318023681640625
1725891185175634400,6.311634521484375,-1.5421075820922852,1.2866771221160889,0.9162673950195312
1725891185194483500,6.3304833984375,-1.786613941192627,4.347060203552246,-0.036830902099609375
1725891185213332500,6.34933251953125,-0.4184894561767578,3.879269599914551,1.7786054611206055
1725891185232181800,6.368181640625,-1.159151554107666,-0.3488677740097046,2.8208093643188477
1725891185251030800,6.38703076171875,0.32580041885375977,-2.3504014015197754,1.8078250885009766
1725891185269880000,6.405880126953125,1.6065402030944824,-0.8065956830978394,2.5435218811035156
1725891185288729000,6.42472900390625,0.8341684341430664,-0.6722917556762695,4.131101608276367
1725891185307578400,6.443578369140625,-0.6342849731445312,-0.9549932479858398,3.4254274368286133
1725891185326427400,6.462427490234375,-1.8977909088134766,-1.5668518543243408,1.6656513214111328
1725891185345276400,6.4812763671875,-1.8870668411254883,-2.331322193145752,0.029168128967285156
1725891185364125700,6.500125732421875,-2.593181610107422,-2.8089559078216553,-0.08185815811157227
1725891185382975000,6.51897509765625,-0.837315559387207,-1.6349899768829346,0.9132652282714844
1725891185401824000,6.537823974609375,-0.8557147979736328,-1.3224029541015625,0.8555197715759277
1725891185420673300,6.55667333984375,0.06473731994628906,-1.5807039737701416,0.4090919494628906
1725891185439522300,6.575522216796875,0.573338508605957,-2.304572582244873,-0.9988441467285156
1725891185458371300,6.594371337890625,0.8024168014526367,-2.0064473152160645,-1.7919468879699707
1725891185477224000,6.613223876953125,0.3353614807128906,-2.084636688232422,-1.6923909187316895
1725891185496070000,6.63206982421875,0.4313216209411621,-2.4007322788238525,-0.9442806243896484
1725891185514919000,6.6509189453125,1.2504315376281738,-2.129495143890381,-1.735234260559082
1725891185533768000,6.669767822265625,1.4444661140441895,-1.950143814086914,-1.5486087799072266
1725891185552617200,6.6886171875,1.4298334121704102,-2.196669816970825,-2.812912940979004
1725891185571466200,6.70746630859375,2.501479387283325,-1.70236337184906,-2.388181209564209
1725891185590315500,6.7263154296875,2.75850510597229,-1.9338359832763672,-1.250046730041504
1725891185609164500,6.74516455078125,2.9112653732299805,-1.5799143314361572,0.6018228530883789
1725891185628013800,6.764013916015625,1.0152497291564941,0.2659733295440674,1.0766878128051758
1725891185646862800,6.78286279296875,1.5317020416259766,0.7953517436981201,0.5699558258056641
1725891185665712000,6.801712158203125,-0.22408072650432587,0.32766127586364746,0.4008150100708008
1725891185684561200,6.82056103515625,-1.7845101356506348,1.0057098865509033,0.12300968170166016
1725891185703410400,6.839410400390625,-1.9418805837631226,1.4690165519714355,0.11603546142578125
1725891185722259500,6.858259521484375,-1.607720136642456,0.9949307441711426,-0.13826751708984375
1725891185741108700,6.877108642578125,-0.8536444902420044,0.13483405113220215,-0.13526344299316406
1725891185759958000,6.8959580078125,-0.9178829193115234,0.07401323318481445,-0.28008270263671875
1725891185778807000,6.91480712890625,-1.6511225700378418,0.009222030639648438,-0.7335615158081055
1725891185797656000,6.933656005859375,-1.5613597631454468,-0.23072481155395508,-0.9843034744262695
1725891185816505300,6.95250537109375,-0.4984266757965088,-0.7776832580566406,-0.9891233444213867
1725891185835354400,6.971354248046875,0.6647510528564453,-0.6685686111450195,0.006740570068359375
1725891185854203600,6.99020361328125,1.687767505645752,-0.6750625371932983,0.5426120758056641
1725891185873052700,7.009052734375,1.7024264335632324,-0.6471176147460938,-0.07602977752685547
1725891185891902000,7.02790185546875,1.6217436790466309,-0.8272862434387207,-0.6333236694335938
1725891185910751200,7.046751220703125,0.8866465091705322,-0.8980836868286133,-0.3640727996826172
1725891185929600300,7.065600341796875,-0.0494387149810791,-0.7948658466339111,-0.8272600173950195
1725891185948449500,7.084449462890625,-2.4962058067321777,0.21931767463684082,-1.8183698654174805
1725891185967298600,7.103298583984375,-8.109086036682129,2.202622890472412,-3.4090523719787598
1725891185986147800,7.12214794921875,-3.546081781387329,0.556910514831543,-1.7324485778808594
1725891186004996900,7.140996826171875,-0.04616498947143555,-1.3025290966033936,-1.4890971183776855
1725891186023846000,7.159845947265625,1.011228084564209,-0.4794214367866516,-1.1277618408203125
1725891186042695200,7.178695068359375,2.5607573986053467,0.039700984954833984,0.9038124084472656
1725891186061544400,7.19754443359375,3.0341134071350098,0.3241579532623291,2.2359743118286133
1725891186080393500,7.2163935546875,1.1954145431518555,0.46742773056030273,1.935598373413086
1725891186099242800,7.23524267578125,-1.4258521795272827,0.5575510859489441,2.008451461791992
1725891186118091800,7.254091796875,-2.442242383956909,0.6908549070358276,2.2063255310058594
1725891186136941000,7.272941162109375,-1.3933744430541992,0.2818836569786072,1.5445165634155273
1725891186155790000,7.2917900390625,-0.5201804637908936,0.30967283248901367,-2.715216636657715
1725891186174639400,7.310639404296875,-2.541605234146118,-2.4471538066864014,-0.9904823303222656
1725891186193488600,7.329488525390625,9.303786277770996,0.36593228578567505,-1.4765233993530273
1725891186212337700,7.348337646484375,5.797819137573242,1.0876846313476562,-2.7711706161499023
1725891186231187000,7.36718701171875,-3.9615368843078613,-0.7333624362945557,2.883481025695801
1725891186250036000,7.386035888671875,-3.539821147918701,3.102966547012329,1.3278331756591797
1725891186268885200,7.40488525390625,-1.0658245086669922,5.0500640869140625,0.8031845092773438
1725891186287734300,7.423734375,-0.465429425239563,1.6796849966049194,-2.7103662490844727
1725891186306583600,7.44258349609375,1.156654715538025,-3.611478328704834,-1.8470087051391602
1725891186325432600,7.4614326171875,0.018945932388305664,-4.493125915527344,-1.9165000915527344
1725891186344281900,7.48028173828125,-0.011930704116821289,-2.2255804538726807,2.469024658203125
1725891186363131100,7.499131103515625,-0.305195152759552,-2.026085138320923,3.5340986251831055
1725891186381980200,7.517980224609375,1.3399794101715088,-3.0238404273986816,2.3947572708129883
1725891186400829400,7.536829345703125,2.9284276962280273,-2.4290876388549805,2.0805864334106445
1725891186419678500,7.555678466796875,1.6409920454025269,-1.8054598569869995,1.0735893249511719
1725891186438527700,7.57452783203125,0.570442259311676,-3.1252822875976562,-0.031232833862304688
1725891186457376800,7.593376708984375,-0.013885974884033203,-2.7527432441711426,0.03904533386230469
1725891186476226000,7.61222607421875,1.256622552871704,-0.8316783905029297,-0.8723640441894531
1725891186495075000,7.631074951171875,0.22399145364761353,0.45130980014801025,-1.3739824295043945
1725891186513924400,7.64992431640625,0.4864691495895386,1.612122893333435,-0.8703556060791016
1725891186532773600,7.668773681640625,0.40204834938049316,-0.06923508644104004,0.3650693893432617
1725891186551623000,7.687622802734375,-0.04011118412017822,0.852778971195221,0.5801057815551758
1725891186570472000,7.706471923828125,-0.46903955936431885,0.6152592897415161,0.5759735107421875
1725891186589321200,7.7253212890625,0.6120644807815552,-0.14564013481140137,0.5155935287475586
1725891186608170200,7.744170166015625,-0.017932891845703125,-1.18673574924469,0.3833122253417969
1725891186627019500,7.76301953125,-1.5596903562545776,-0.7400592565536499,-0.6566324234008789
1725891186645868500,7.78186865234375,0.02683734893798828,-1.1279840469360352,-0.44248199462890625
1725891186664717800,7.8007177734375,0.7087821960449219,-1.7624742984771729,-0.889373779296875
1725891186683566800,7.81956689453125,0.9078584909439087,-3.099459171295166,-2.000701427459717
1725891186702416100,7.838416015625,0.557732343673706,-2.1789870262145996,-0.2584037780761719
1725891186721265400,7.857265380859375,-0.6754266023635864,2.24977970123291,1.0785579681396484
1725891186740114400,7.876114501953125,-0.2979860305786133,1.6138083934783936,0.9430665969848633
1725891186784867300,7.920867431640625,0.9714059829711914,2.854525089263916,0.8384275436401367
1725891186803716400,7.93971630859375,0.69869065284729,2.5500664710998535,-0.013498306274414062
1725891186822565600,7.958565673828125,1.404541015625,2.9550044536590576,-1.0294675827026367
1725891186841415000,7.977414794921875,-1.1048786640167236,0.8163989782333374,-0.4050893783569336
1725891186860264000,7.996263916015625,0.3391745090484619,-0.26740050315856934,-0.8771581649780273
1725891186879113200,8.01511328125,1.6937170028686523,-1.608886480331421,-0.8670883178710938
1725891186897962500,8.03396240234375,0.045651912689208984,-1.4346290826797485,-1.3379864692687988
1725891186916811500,8.0528115234375,-0.5064187049865723,-1.454698920249939,-2.750260353088379
1725891186935660800,8.071660888671875,0.23565435409545898,-3.806450605392456,1.8413581848144531
1725891186954509800,8.090509765625,2.1352124214172363,2.2966651916503906,-2.6007823944091797
1725891186973359000,8.109359130859374,0.6113359928131104,-1.4074478149414062,-1.5375804901123047
1725891186992208100,8.1282080078125,0.0005254745483398438,-1.9104387760162354,-1.0224123001098633
1725891187011057400,8.147057373046875,0.4222679138183594,-1.7413729429244995,-0.8421711921691895
1725891187029906700,8.16590673828125,2.0634732246398926,-3.180924654006958,1.2890729904174805
1725891187048755700,8.184755615234375,1.4441413879394531,-3.170719861984253,1.8764886856079102
1725891187067605000,8.20360498046875,-0.8270525932312012,-0.48195385932922363,1.89532470703125
1725891187086454300,8.222454345703126,-0.8599662780761719,0.5576969385147095,1.8746490478515625
1725891187105303300,8.24130322265625,-1.569370985031128,-0.1123376190662384,1.0388784408569336
1725891187124152600,8.260152587890625,-1.2914056777954102,-0.7162448167800903,-0.2339620590209961
1725891187143001900,8.279001953125,0.8646588325500488,-1.699208378791809,-1.0714616775512695
1725891187161851000,8.297850830078126,1.263763666152954,-1.4744672775268555,-1.5104336738586426
1725891187180700200,8.3167001953125,1.4273425340652466,-1.2892619371414185,-1.4104423522949219
1725891187199549200,8.335549072265625,0.38153910636901855,-1.6278760433197021,-0.3641815185546875
1725891187218398500,8.3543984375,0.4096546173095703,-0.13102591037750244,0.2782917022705078
1725891187237247700,8.373247802734374,-0.5097460746765137,1.3160886764526367,2.4416542053222656
1725891187256097000,8.392096923828126,-1.6557438373565674,1.7350962162017822,2.421393394470215
1725891187274946000,8.410946044921875,0.731789767742157,3.0631957054138184,0.003326416015625
1725891187293795300,8.42979541015625,5.627800941467285,0.8950352668762207,0.1728677749633789
1725891187312644400,8.448644287109374,7.044345855712891,-0.6309084892272949,1.557046890258789
1725891187331493600,8.46749365234375,1.792362093925476,-0.2461094856262207,2.7761974334716797
1725891187350343000,8.486343017578125,-3.1758108139038086,0.8410874605178833,1.1557044982910156
1725891187369192000,8.50519189453125,-2.361173391342163,1.0628215074539185,-1.1496315002441406
1725891187388041200,8.524041259765625,-0.3107568025588989,-1.1889536380767822,-1.9408440589904785
1725891187406890500,8.542890380859374,2.135751485824585,-1.5081803798675537,-2.9676480293273926
1725891187425739500,8.561739501953125,2.1012637615203857,-0.5461864471435547,-1.4615669250488281
1725891187444588800,8.5805888671875,1.6105444431304932,-0.35346031188964844,0.7340278625488281
1725891187463438000,8.59943798828125,-0.08523476123809814,-0.24110198020935059,1.741511344909668
1725891187482287000,8.618287109375,-0.5964950323104858,-0.7155115604400635,0.9223661422729492
1725891187501136400,8.637136474609376,0.34990376234054565,-1.044710397720337,-1.2429227828979492
1725891187519985700,8.655985595703125,1.3183776140213013,-0.4139881134033203,-1.9449162483215332
1725891187538834700,8.674834716796875,2.0062904357910156,-0.580420732498169,-1.0276203155517578
1725891187557684000,8.69368408203125,1.3651384115219116,0.3651595115661621,-0.3105306625366211
1725891187576533200,8.712533203125,1.5792733430862427,0.31223106384277344,2.5845441818237305
1725891187595382300,8.73138232421875,-1.626960039138794,3.9762706756591797,-2.7188634872436523
1725891187614231600,8.7502314453125,-0.7897135615348816,5.128781318664551,-2.054131031036377
1725891187633080800,8.769080810546875,0.7595458626747131,0.025423526763916016,0.612584114074707
1725891187651929900,8.787929931640624,0.45612668991088867,-1.2846803665161133,0.9773149490356445
1725891187670779100,8.806779052734376,-0.8028278946876526,-1.8742122650146484,1.8003044128417969
1725891187689628400,8.82562841796875,-0.8602412939071655,-1.6246685981750488,0.4289426803588867
1725891187708477700,8.844477783203125,1.2510915994644165,-2.3399181365966797,-1.2390117645263672
1725891187727326700,8.86332666015625,4.8149518966674805,-2.001002311706543,-1.3407907485961914
1725891187746176000,8.882176025390624,1.1426750421524048,-3.114546775817871,0.09330272674560547
1725891187765025300,8.901025390625,0.6620360016822815,-0.76235032081604,0.6967658996582031
1725891187783874300,8.919874267578125,-0.09692728519439697,-0.8059113025665283,1.5329828262329102
1725891187802723600,8.9387236328125,-2.0761561393737793,-3.3127965927124023,2.110553741455078
1725891187821572900,8.95757275390625,-2.351088047027588,-3.029930591583252,0.32227039337158203
1725891187840422000,8.976421875,-1.0332865715026855,-2.5926425457000732,-0.14426326751708984
1725891187859271200,8.995271240234375,-0.3785073757171631,-3.0281803607940674,-1.157883644104004
1725891187878120400,9.014120361328125,-0.11868077516555786,-4.412232398986816,-1.1053457260131836
1725891187896969700,9.0329697265625,-0.2347346544265747,-1.6489770412445068,-1.5864295959472656
1725891187915818800,9.05181884765625,2.5845651626586914,1.8229424953460693,-2.529867649078369
1725891187934668000,9.07066796875,1.2960600852966309,2.862306594848633,1.8919906616210938
1725891187953517300,9.089517333984375,-0.02659870684146881,3.3113150596618652,2.254302978515625
1725891187972366300,9.108366455078125,-1.3290618658065796,1.0411546230316162,1.5714073181152344
1725891187991215600,9.127215576171874,-1.6982357501983643,-0.5334224700927734,0.13277912139892578
1725891188010065000,9.14606494140625,0.35855531692504883,0.28315019607543945,-1.3092927932739258
1725891188028914000,9.164913818359375,4.992083549499512,1.1299633979797363,-1.17930269241333
1725891188047763200,9.18376318359375,4.365115165710449,0.021520614624023438,0.1748666763305664
1725891188066612500,9.202612548828125,-0.9395836591720581,0.5785942077636719,0.8241643905639648
1725891188085461800,9.221461669921876,-2.0341098308563232,1.006335735321045,0.3580894470214844
1725891188104310800,9.240310791015625,-0.8839836716651917,0.4631354808807373,-1.2929801940917969
1725891188123160000,9.25916015625,-1.562892198562622,-1.050187587738037,-2.6067466735839844
1725891188142009300,9.27800927734375,-0.09346413612365723,-0.6263890266418457,-3.174927234649658
1725891188160858400,9.2968583984375,0.3197433352470398,-1.68314528465271,-2.1432485580444336
1725891188179707600,9.315707763671876,0.6931325793266296,-4.719376564025879,-0.2693672180175781
1725891188198557000,9.334556884765625,0.021698355674743652,-5.029857635498047,-0.5929269790649414
1725891188217406200,9.35340625,0.9151732325553894,-3.7496516704559326,0.9011211395263672
1725891188236255200,9.372255126953124,-0.6058754920959473,-1.9807486534118652,1.291447639465332
1725891188255104500,9.3911044921875,-1.0765268802642822,-2.089690685272217,2.1691856384277344
1725891188273953800,9.409953857421876,-0.5548155307769775,-0.03632378578186035,1.1250314712524414
1725891188292802800,9.428802734375,-0.3758237361907959,-2.449732780456543,-1.8747854232788086
1725891188311652000,9.447652099609375,1.2127622365951538,-2.810439348220825,-0.0947256088256836
1725891188330501400,9.46650146484375,-0.5751779079437256,-0.4993312358856201,-0.06987285614013672
1725891188349350700,9.4853505859375,-3.2837157249450684,-2.882996082305908,-11.251078605651855
1725891188368200000,9.504199951171875,-1.802215576171875,1.486931562423706,3.7762393951416016
1725891188387049000,9.523049072265625,0.28408265113830566,4.26075553894043,-1.031827449798584
1725891188405898200,9.541898193359375,3.3508803844451904,4.15695333480835,5.606560707092285
1725891188424747500,9.56074755859375,0.5712418556213379,5.796640872955322,4.327691555023193
1725891188443596800,9.5795966796875,-0.375415563583374,3.067931652069092,4.2838521003723145
1725891188462445800,9.59844580078125,-0.663548469543457,1.7936592102050781,2.0398201942443848
1725891188481295000,9.617295166015625,-1.71201491355896,-0.9430627822875977,0.7943601608276367
1725891188500144400,9.636144287109374,-0.6622071266174316,-2.3719606399536133,0.7258615493774414
1725891188518993400,9.654993408203126,3.5826282501220703,-3.533842086791992,1.1724224090576172
1725891188537842700,9.6738427734375,0.99802565574646,-2.544877052307129,2.972994327545166
1725891188556692000,9.69269189453125,0.8102898597717285,-4.927517890930176,-1.059610366821289
1725891188575541200,9.711541259765625,0.058467864990234375,-3.6290669441223145,-1.8786144256591797
1725891188594390300,9.730390380859374,-0.3917112350463867,-1.9942665100097656,-0.6654877662658691
1725891188613239600,9.749239501953125,1.6763420104980469,-1.5804762840270996,1.9424147605895996
1725891188632088800,9.7680888671875,0.5589561462402344,1.9359791278839111,-0.062021732330322266
1725891188650938000,9.786938232421875,-0.4811515808105469,2.2768192291259766,-0.6480574607849121
1725891188669787100,9.805787109375,1.8482155799865723,-3.4157705307006836,-5.808259010314941
1725891188688636400,9.824636474609376,0.9448785781860352,-3.454293727874756,-8.40184211730957
1725891188707485700,9.843485595703125,0.4681205749511719,-5.170858383178711,-5.497570037841797
1725891188726335000,9.8623349609375,1.164210319519043,-6.298030376434326,-6.899257659912109
1725891188745184000,9.88118408203125,1.0795621871948242,-4.308570384979248,-5.1736955642700195
1725891188764033300,9.900033203125,0.6143598556518555,0.574188232421875,3.4748435020446777
1725891188782882600,9.918882568359376,2.4377601146698,-0.22342681884765625,1.175346851348877
1725891188801731800,9.93773193359375,0.7601306438446045,5.990225791931152,9.744087219238281
1725891188820580900,9.956580810546875,-0.3602571487426758,12.238886833190918,10.997533798217773
1725891188839430100,9.97543017578125,0.19616222381591797,9.482666015625,6.695162773132324
1725891188858279400,9.994279541015626,1.7184314727783203,5.377837657928467,2.2102131843566895
1725891188877128700,10.013128662109375,1.8353595733642578,2.2549431324005127,-1.0713896751403809
1725891188895977700,10.031977783203125,-2.914307117462158,-0.6355948448181152,-1.630831241607666
1725891188914827000,10.050826904296875,-2.4013280868530273,-1.5655231475830078,1.1139302253723145
1725891188933676300,10.06967626953125,0.5647492408752441,-5.01921272277832,0.7054972648620605
1725891188952525600,10.088525634765626,1.5711166858673096,-3.6666507720947266,-0.41357994079589844
1725891188971374600,10.10737451171875,-1.372814655303955,5.417390823364258,5.509115219116211
1725891188990224000,10.126223876953125,2.3208634853363037,0.17562198638916016,3.114222526550293
1725891189009073200,10.1450732421875,2.2374911308288574,-4.912402629852295,-2.4857380390167236
1725891189027922400,10.16392236328125,1.467003345489502,-6.2501912117004395,-6.395459175109863
1725891189046771700,10.182771728515625,-0.10748434066772461,-2.825594425201416,-3.0268561840057373
1725891189065620700,10.201620849609375,0.17736530303955078,-3.259364128112793,-3.2457995414733887
1725891189084470000,10.220469970703125,1.043294906616211,-0.8992857933044434,-0.7397394180297852
1725891189103319300,10.2393193359375,0.8842196464538574,1.9189515113830566,0.8680245876312256
1725891189122168600,10.25816845703125,-0.06181144714355469,1.621950626373291,2.264760971069336
1725891189141017600,10.277017578125,-1.6448516845703125,1.768752098083496,3.1241796016693115
1725891189159867000,10.295866943359375,-0.9030561447143555,0.3343515396118164,2.5105743408203125
1725891189178716200,10.314716064453124,-1.004922866821289,-0.8502373695373535,1.1775383949279785
1725891189197565400,10.3335654296875,-1.548163890838623,-2.617673873901367,0.2855863571166992
1725891189216414700,10.352414794921875,0.4584012031555176,-5.046041488647461,-0.735109806060791
1725891189256483300,10.3924833984375,1.0546531677246094,-4.0385847091674805,-1.2645502090454102
1725891189275332600,10.41133251953125,1.214357852935791,-2.9382147789001465,-4.125056743621826
1725891189294181600,10.430181640625,1.6073493957519531,-4.025898456573486,-0.7245476245880127
1725891189313031000,10.449031005859375,3.0391123294830322,6.8392205238342285,-1.8251850605010986
1725891189331880200,10.467880126953125,1.9835872650146484,4.426526069641113,-1.1313862800598145
1725891189350729500,10.4867294921875,1.1791605949401855,1.9974088668823242,-0.5536766052246094
1725891189369578800,10.505578857421876,0.29532718658447266,2.973750591278076,-0.3045692443847656
1725891189388427800,10.524427734375,0.26136207580566406,-0.3069343566894531,-0.35210752487182617
1725891189407277000,10.543277099609375,-0.37305736541748047,-2.465064525604248,0.14413070678710938
1725891189426126300,10.562126220703124,3.017158031463623,-3.5338187217712402,-0.9789361953735352
1725891189444975600,10.5809755859375,-3.2310400009155273,2.9703967571258545,1.208728313446045
1725891189463825000,10.599824951171875,-1.1538934707641602,10.060064315795898,0.5978837013244629
1725891189482674200,10.618674072265625,1.2065749168395996,9.03521728515625,-5.492617607116699
1725891189501523200,10.637523193359375,0.00030803680419921875,2.8649747371673584,-0.9998698234558105
1725891189520372500,10.65637255859375,-0.3083529472351074,3.3409457206726074,1.4041495323181152
1725891189539221800,10.6752216796875,0.40140438079833984,-3.0885744094848633,1.137402057647705
1725891189558071000,10.694071044921875,-0.3785886764526367,-1.0045475959777832,0.8471279144287109
1725891189576920300,10.71292041015625,1.346872329711914,-2.034669876098633,1.3281440734863281
1725891189595769600,10.73176953125,-0.02797842025756836,-2.935807704925537,0.021122455596923828
1725891189614619000,10.750618896484376,-0.8901677131652832,-2.918038845062256,-0.34746456146240234
1725891189633468000,10.769468017578125,-0.6334047317504883,-1.473231315612793,-0.14565467834472656
1725891189652317200,10.788317138671875,0.926849365234375,-1.095019817352295,-2.830584764480591
1725891189671166500,10.80716650390625,-0.11586713790893555,-1.3013501167297363,-1.9496774673461914
1725891189690015700,10.826015625,0.7895679473876953,-2.513241767883301,-0.05139303207397461
1725891189708865000,10.844864990234376,-0.3002629280090332,-4.7359442710876465,1.2080159187316895
1725891189727714300,10.86371435546875,-0.2900838851928711,-5.226836681365967,0.6528191566467285
1725891189746563600,10.8825634765625,-1.2814669609069824,-2.5532784461975098,-0.498624324798584
1725891189765412600,10.90141259765625,-0.6809196472167969,1.5021443367004395,-1.7194676399230957
1725891189784262000,10.920261962890624,0.624913215637207,2.046542167663574,-1.016571044921875
1725891189803111200,10.939111083984375,0.4554271697998047,-0.7221245765686035,-0.26253318786621094
1725891189821960400,10.95796044921875,0.20842933654785156,-3.76120662689209,-0.09044170379638672
1725891189840809700,10.976809814453125,-0.2361154556274414,-4.945552349090576,0.09384775161743164
1725891189859658800,10.99565869140625,-0.9779424667358398,-4.39962100982666,-0.33905696868896484
1725891189878508000,11.014508056640626,-0.3459949493408203,-3.286835193634033,-0.2676568031311035
1725891189897357300,11.033357421875,0.8567438125610352,-3.0339932441711426,-0.4937272071838379
1725891189916206600,11.05220654296875,0.7306704521179199,-3.420644760131836,0.7291603088378906
1725891189935056000,11.071055908203125,-0.3071932792663574,-3.5902533531188965,0.7594823837280273
1725891189953905200,11.0899052734375,0.5174064636230469,-2.7030982971191406,0.5536761283874512
1725891189972754400,11.10875439453125,0.4812326431274414,-1.8233966827392578,0.11394453048706055
1725891189991603700,11.127603759765625,0.45564746856689453,-1.4317030906677246,-0.8672604560852051
1725891190010453000,11.146452880859375,0.5986642837524414,-0.536860466003418,-1.0274758338928223
1725891190029302000,11.165302001953124,1.0824036598205566,1.0875773429870605,-0.6627907752990723
1725891190048151300,11.1841513671875,0.5590915679931641,1.324873447418213,-0.9529852867126465
1725891190067000600,11.20300048828125,0.35495758056640625,2.8891329765319824,-1.2772760391235352
1725891190085849900,11.221849853515625,0.5509977340698242,5.699123859405518,-1.072139024734497
1725891190104699100,11.24069921875,0.6573953628540039,7.770792484283447,-0.5545802116394043
1725891190123548400,11.25954833984375,0.7882332801818848,3.298335075378418,-0.32144784927368164
1725891190142397700,11.278397705078126,0.18832778930664062,3.804706573486328,-0.7499463558197021
1725891190161247000,11.2972470703125,-1.6552081108093262,16.833688735961914,-0.8338727951049805
1725891190180096000,11.316095947265625,0.6464457511901855,9.389518737792969,-2.4677083492279053
1725891190198945300,11.3349453125,2.1154446601867676,5.7256059646606445,1.2843449115753174
1725891190217794600,11.353794677734374,-0.03348064422607422,6.059907913208008,0.10396790504455566
1725891190236643800,11.372643798828125,0.4667949676513672,-6.773856163024902,1.1149263381958008
1725891190255493000,11.3914931640625,2.3919506072998047,-10.207603454589844,3.604947090148926
1725891190274342400,11.41034228515625,-3.0066113471984863,-11.366767883300781,0.974135160446167
1725891190293191700,11.429191650390624,-1.2817869186401367,-9.581550598144531,1.1779897212982178
1725891190312041000,11.448041015625,-0.19610166549682617,-5.963454723358154,-0.9498200416564941
1725891190330890200,11.46689013671875,1.1409082412719727,-2.0386271476745605,-1.6972846984863281
1725891190349739500,11.485739501953125,0.24692821502685547,-1.9625039100646973,-0.4706592559814453
1725891190368588500,11.504588623046875,-0.918694019317627,-2.6746554374694824,0.5560760498046875
1725891190387437800,11.523437744140624,-1.4611940383911133,-4.475115776062012,1.5886240005493164
1725891190406287000,11.542287109375,-0.7757401466369629,-5.219788074493408,1.4083566665649414
1725891190425136400,11.561136474609375,-0.07957696914672852,-5.508677005767822,1.5019805431365967
1725891190443985700,11.579985595703125,2.1342592239379883,-3.9459829330444336,1.5909695625305176
1725891190462835000,11.5988349609375,1.2620148658752441,0.8017621040344238,-0.6325888633728027
1725891190481684200,11.617684326171876,-0.2208108901977539,-0.4183773994445801,-3.091968297958374
1725891190500533500,11.636533447265625,0.9013519287109375,5.351956844329834,-0.2944519519805908
1725891190519382800,11.6553828125,1.2206511497497559,2.0061421394348145,0.8215818405151367
1725891190538232000,11.674232177734375,0.4301486015319824,-2.0963330268859863,1.086853265762329
1725891190557081300,11.693081298828124,0.5355806350708008,-3.6377639770507812,0.6236975193023682
1725891190575930600,11.7119306640625,0.7360372543334961,-2.5337419509887695,-0.00537419319152832
1725891190594780000,11.73077978515625,0.6447515487670898,-0.2290184497833252,-0.6543548107147217
1725891190613629200,11.749629150390625,1.2109827995300293,0.680457353591919,-1.2338354587554932
1725891190632478200,11.768478271484375,2.4444894790649414,1.577570915222168,-0.5766987800598145
1725891190651327500,11.787327392578124,2.8205461502075195,2.3911869525909424,-1.066304326057434
1725891190670176800,11.8061767578125,2.436952590942383,2.688114881515503,-1.9700214862823486
1725891190689026000,11.825026123046875,2.1845288276672363,3.430689811706543,-1.9281060695648193
1725891190707875300,11.843875244140625,2.2526044845581055,2.0770199298858643,-1.8420748710632324
1725891190726724600,11.862724609375,1.966146469116211,2.046781301498413,-2.3190672397613525
1725891190745574000,11.881573974609376,1.32403564453125,1.9223304986953735,-2.2055182456970215
1725891190764423200,11.900423095703125,1.099959373474121,1.7547290325164795,-2.0225133895874023
1725891190783272400,11.9192724609375,1.5536575317382812,1.748610258102417,-2.094193935394287
1725891190802121700,11.938121826171875,1.9227924346923828,1.3539953231811523,-1.6893486976623535
1725891190820971000,11.956970947265624,1.289515495300293,0.7999117374420166,-0.8263163566589355
1725891190839820300,11.9758203125,0.2566547393798828,-1.7932162284851074,-0.09203314781188965
1725891190858669600,11.994669677734375,-1.0849637985229492,-2.5360357761383057,0.8899571895599365
1725891190877518800,12.013518798828125,-1.4379444122314453,-2.4227802753448486,1.437457799911499
1725891190896368000,12.0323681640625,-0.5395450592041016,-2.4362239837646484,0.2353806495666504
1725891190915217400,12.051217529296874,-1.1895389556884766,-2.385742425918579,1.2234041690826416
1725891190934066700,12.070066650390626,-1.9813547134399414,-1.6426074504852295,2.7864315509796143
1725891190952916000,12.088916015625,-0.9858026504516602,-1.4704375267028809,2.675153970718384
1725891190971765200,12.10776513671875,-0.0992879867553711,-0.33616161346435547,1.1463310718536377
1725891190990614500,12.126614501953124,-0.1522531509399414,-0.4702117443084717,0.6690502166748047
1725891191009463600,12.145463623046876,-0.06421470642089844,-0.8517563343048096,-0.05512499809265137
1725891191028312800,12.164312744140625,-0.14223670959472656,-1.1240735054016113,-0.5973787307739258
1725891191047162000,12.183162109375,1.1075267791748047,0.006502866744995117,-0.8436694145202637
1725891191066011400,12.202011474609375,2.0254874229431152,3.136997938156128,-1.6025710105895996
1725891191084860700,12.220860595703124,0.747100830078125,3.2463467121124268,-3.3024258613586426
1725891191103710000,12.2397099609375,3.256082534790039,1.345882534980774,-2.311674118041992
1725891191122559200,12.258559326171875,3.196239471435547,0.5604085922241211,-2.2841618061065674
1725891191141408500,12.277408447265625,2.0486559867858887,0.9316375255584717,-3.499122142791748
1725891191160257800,12.2962578125,1.3786306381225586,1.7451766729354858,-2.721607208251953
1725891191179107000,12.315107177734374,1.5934152603149414,2.3611435890197754,-1.406322956085205
1725891191197956400,12.333956298828125,1.3518123626708984,2.6846413612365723,-1.3054988384246826
1725891191216805600,12.3528056640625,1.2215399742126465,2.200455665588379,-0.7474327087402344
1725891191235655000,12.371655029296875,1.2323780059814453,0.8022642135620117,-0.11689233779907227
1725891191254504200,12.390504150390624,0.8736214637756348,-0.4858531951904297,0.37050628662109375
1725891191273353500,12.409353515625,-1.219104290008545,-1.8582653999328613,1.0795207023620605
1725891191292202800,12.42820263671875,-2.7080039978027344,-3.1183223724365234,1.7520222663879395
1725891191311052000,12.447052001953125,-2.2865309715270996,-2.980438709259033,2.5537872314453125
1725891191329901300,12.4659013671875,-1.2577214241027832,-1.302250862121582,1.2853546142578125
1725891191348750600,12.48475048828125,-1.795393943786621,1.1900811195373535,-0.6224663257598877
1725891191367599900,12.503599853515626,-0.09603738784790039,0.3753852844238281,-0.1248941421508789
1725891191386449200,12.52244921875,0.1254558563232422,-0.8292856216430664,0.5186643600463867
1725891191405298400,12.54129833984375,-0.6578249931335449,-1.7348980903625488,1.3106327056884766
1725891191424147700,12.560147705078125,-0.5842680931091309,-2.219954490661621,2.1451945304870605
1725891191442997000,12.5789970703125,0.034174442291259766,-2.7399978637695312,2.0791869163513184
1725891191461846300,12.59784619140625,-0.7274556159973145,-3.032917022705078,0.9966015815734863
1725891191480695600,12.616695556640625,-0.8992266654968262,-2.6504907608032227,0.0007562637329101562
1725891191499544800,12.635544921875,-0.46701669692993164,-1.9490327835083008,-0.9614791870117188
1725891191518394000,12.65439404296875,-0.2415452003479004,-1.8225617408752441,-1.4534051418304443
1725891191537243400,12.673243408203126,-0.8086161613464355,-2.1256771087646484,-1.3078250885009766
1725891191556092700,12.6920927734375,-0.8132152557373047,-2.0659570693969727,-0.21543645858764648
1725891191574942000,12.71094189453125,-0.02497386932373047,-1.0182571411132812,1.6411423683166504
1725891191593791200,12.729791259765625,0.25949716567993164,0.6963691711425781,2.0309104919433594
1725891191612640500,12.748640625,0.6059889793395996,1.3913078308105469,1.504852294921875
1725891191631489800,12.76748974609375,0.5364813804626465,0.16483354568481445,0.710383415222168
1725891191650339000,12.786339111328125,0.21044635772705078,-0.46039247512817383,0.6372456550598145
1725891191669188400,12.805188232421875,-0.33466291427612305,-0.38575220108032227,0.7235927581787109
1725891191688037600,12.82403759765625,-0.8303542137145996,0.46187829971313477,1.0456147193908691
1725891191706887000,12.842886962890624,-0.8092513084411621,1.0601749420166016,1.4474577903747559
1725891191725736200,12.861736083984376,-0.6946368217468262,1.7304892539978027,1.3387646675109863
1725891191744585500,12.88058544921875,-0.005732536315917969,2.0760579109191895,1.2402210235595703
1725891191763434800,12.899434814453125,0.4071502685546875,1.9820599555969238,0.8180580139160156
1725891191782284000,12.918283935546874,0.4235701560974121,1.6789498329162598,0.8751192092895508
1725891191801133300,12.93713330078125,-0.38578081130981445,0.9601082801818848,1.729968786239624
1725891191819982600,12.955982666015625,-0.3484935760498047,-0.2254199981689453,2.0714123249053955
1725891191838831900,12.974831787109375,-0.08097171783447266,-0.8935365676879883,0.9987869262695312
1725891191857681200,12.99368115234375,0.6423087120056152,-1.1218948364257812,0.0486903190612793
1725891191876530400,13.012530517578124,0.5870099067687988,-1.1735286712646484,-0.1032419204711914
1725891191895379700,13.031379638671876,0.7193202972412109,-0.9752035140991211,0.22876954078674316
1725891191914229000,13.05022900390625,0.9160447120666504,-0.3357582092285156,0.1418590545654297
1725891191933078300,13.069078369140625,0.4364638328552246,-0.06145524978637695,-0.14659714698791504
1725891191951927800,13.087927734375,0.6364450454711914,-1.5121374130249023,-0.08226656913757324
1725891191970776800,13.10677685546875,0.9494271278381348,-1.634101390838623,-0.7260701656341553
1725891191989626000,13.125626220703126,0.7972040176391602,-1.6285877227783203,-1.079453945159912
1725891192008475600,13.1444755859375,1.1362037658691406,-1.823300838470459,-1.0966696739196777
1725891192027325000,13.163324951171875,1.2395639419555664,-1.4690804481506348,-0.8016117811203003
1725891192046174200,13.18217431640625,1.448979377746582,-0.6135950088500977,-0.7030448913574219
1725891192065023500,13.2010234375,2.6670308113098145,-0.06756401062011719,-1.3099846839904785
1725891192083872800,13.219872802734375,2.6787476539611816,-0.12703609466552734,-0.7886016368865967
1725891192102722000,13.23872216796875,2.098825454711914,-0.584662914276123,-0.5962591171264648
1725891192121571300,13.2575712890625,2.2048096656799316,0.28694915771484375,-1.1629905700683594
1725891192140420600,13.276420654296874,2.356114387512207,1.6651755571365356,-2.8714346885681152
1725891192159270000,13.295269775390626,1.8250408172607422,1.7115788459777832,-3.9577503204345703
1725891192178119200,13.314119140625,0.9809446334838867,1.9199225902557373,-3.2706568241119385
1725891192196968400,13.332968505859375,0.8825960159301758,2.231119155883789,-1.9242792129516602
1725891192215817700,13.351817626953125,0.3646225929260254,1.9216859340667725,-1.2385997772216797
1725891192234667000,13.3706669921875,0.19106292724609375,1.8190205097198486,-0.21678757667541504
1725891192253516300,13.389516357421876,0.5391025543212891,1.5547258853912354,0.17558622360229492
1725891192272365600,13.408365478515625,0.42037105560302734,1.6600596904754639,-0.2222585678100586
1725891192291214800,13.42721484375,0.0028867721557617188,1.1215300559997559,-0.3827216625213623
1725891192310064000,13.446064208984374,0.25398826599121094,0.20964622497558594,0.5202960968017578
1725891192328913700,13.46491357421875,0.5326972007751465,-0.17876195907592773,0.7994556427001953
1725891192347763000,13.483762939453126,0.11896705627441406,0.11847782135009766,1.0838103294372559
1725891192366612200,13.5026123046875,0.038243770599365234,-0.16945695877075195,0.7773385047912598
1725891192385461500,13.52146142578125,0.027408599853515625,0.1601886749267578,0.34199047088623047
1725891192404310800,13.540310791015624,0.21303653717041016,0.06639957427978516,-0.36710691452026367
1725891192423160000,13.55916015625,0.25092506408691406,-0.6987833976745605,-0.014154911041259766
1725891192442009300,13.57800927734375,-0.7010331153869629,-2.7137465476989746,1.1359636783599854
1725891192460858600,13.596858642578125,-1.6124377250671387,-3.419022560119629,1.491769552230835
1725891192479708000,13.6157080078125,-1.48724365234375,-2.366668224334717,2.225069284439087
1725891192498557200,13.63455712890625,-1.1485600471496582,-2.151503562927246,2.395576000213623
1725891192517406500,13.653406494140626,-0.6540188789367676,-1.9058146476745605,2.422254800796509
1725891192536256000,13.672256103515625,-0.40729188919067383,-1.8722872734069824,1.8505094051361084
1725891192555105300,13.691105224609375,0.19016075134277344,-1.0920848846435547,1.323472023010254
1725891192573954600,13.70995458984375,0.16280651092529297,-0.5953645706176758,0.7828269004821777
1725891192592803800,13.728803955078124,-0.564030647277832,-0.8052611351013184,0.49605274200439453
1725891192611653000,13.747653076171876,-0.5661559104919434,-0.38349294662475586,0.47958850860595703
1725891192630502400,13.76650244140625,-0.018557071685791016,0.12703418731689453,0.29320621490478516
1725891192649351700,13.7853515625,0.7647662162780762,-0.023672103881835938,-0.13632774353027344
1725891192668201000,13.804200927734374,0.7055439949035645,0.055754661560058594,-0.08943033218383789
1725891192687050500,13.823050537109374,1.031087875366211,0.1859264373779297,0.3664560317993164
1725891192705899800,13.841899658203126,0.4892387390136719,-0.08135175704956055,0.3801307678222656
1725891192724749000,13.8607490234375,0.6010799407958984,-0.6221303939819336,0.9096488952636719
1725891192743598300,13.879598388671875,0.16601943969726562,-0.9926919937133789,0.35358238220214844
1725891192762447600,13.898447509765624,-0.16718387603759766,-0.7905678749084473,0.3109397888183594
1725891192781297000,13.917296875,-0.2864713668823242,-0.3251938819885254,1.17875337600708
1725891192800146200,13.936146240234375,-0.19691848754882812,-0.49388790130615234,1.4791345596313477
1725891192818995500,13.954995361328125,-0.07669305801391602,-0.8007445335388184,1.0188579559326172
1725891192837845000,13.973844970703125,0.08445882797241211,-0.7605481147766113,0.8402390480041504
1725891192856694000,13.992694091796874,0.12566709518432617,-1.4711060523986816,0.6315412521362305
1725891192875543600,14.01154345703125,0.021591663360595703,-1.6846771240234375,1.0332942008972168
1725891192894392800,14.030392822265625,0.08227300643920898,-1.7723212242126465,1.5705251693725586
1725891192913242000,14.0492421875,0.035691261291503906,-1.9697699546813965,2.028444290161133
1725891192932091400,14.06809130859375,1.0067791938781738,-1.939563274383545,1.6567580699920654
1725891192950940700,14.086940673828124,1.6772160530090332,-1.1808815002441406,0.625868558883667
1725891192969790000,14.1057900390625,0.7253284454345703,1.7299940586090088,-0.42339181900024414
1725891192988639200,14.12463916015625,1.4492416381835938,1.5349340438842773,-0.5854995250701904
1725891193007488800,14.14348876953125,1.5273246765136719,0.340972900390625,-0.8803308010101318
1725891193026338000,14.162338134765625,1.2509336471557617,0.08183646202087402,-1.6295642852783203
1725891193045187300,14.181187255859374,0.6042671203613281,-0.08869814872741699,-1.6358894109725952
1725891193064036600,14.20003662109375,0.41443443298339844,-0.8707001209259033,-1.0711233615875244
1725891193082886000,14.218885986328125,0.8452987670898438,-0.5134997367858887,-0.5670065879821777
1725891193101735200,14.237735107421875,3.010491371154785,0.747899055480957,-1.1811714172363281
1725891193120584700,14.256584716796874,2.444960594177246,1.0248143672943115,-1.5439820289611816
1725891193139434000,14.27543408203125,1.6943016052246094,0.7506229877471924,-1.169321060180664
1725891193158283300,14.294283203125,2.0522537231445312,0.8930792808532715,-0.9612641334533691
1725891193177132500,14.313132568359375,1.4382753372192383,0.9478275775909424,-1.971454381942749
1725891193195981800,14.33198193359375,1.1229524612426758,1.3558626174926758,-1.7101411819458008
1725891193214831000,14.3508310546875,2.162631034851074,1.1359436511993408,-1.3111343383789062
1725891193233680600,14.3696806640625,1.832122802734375,0.8421437740325928,-1.9774115085601807
1725891193252530000,14.388530029296875,1.3998823165893555,1.3876597881317139,-1.9116771221160889
1725891193271379200,14.407379150390625,1.332871437072754,2.2258551120758057,-1.7317016124725342
1725891193290228500,14.426228515625,0.9967718124389648,2.404426336288452,-1.4643008708953857
1725891193309078000,14.445078125,0.8134665489196777,1.8826968669891357,-0.9508628845214844
1725891193327927000,14.463927001953126,1.1807661056518555,0.7969198226928711,-0.02409505844116211
1725891193346776600,14.482776611328125,0.8285136222839355,-0.3099827766418457,-0.3043689727783203
1725891193365625900,14.5016259765625,0.2513236999511719,-0.4658479690551758,-0.039092063903808594
1725891193384475100,14.52047509765625,-0.6148362159729004,-1.747380256652832,1.3707237243652344
1725891193403324400,14.539324462890624,-0.8926448822021484,-2.4146299362182617,1.8817458152770996
1725891193422174000,14.558174072265626,-1.105940818786621,-2.6221423149108887,1.4939079284667969
1725891193441023200,14.577023193359375,-1.1926064491271973,-2.226318359375,0.9951925277709961
1725891193459872500,14.59587255859375,-0.847994327545166,-1.645620346069336,0.34824466705322266
1725891193478721800,14.6147216796875,-0.7349939346313477,-1.2709078788757324,0.3132057189941406
1725891193497571000,14.633571044921876,-0.6056690216064453,-1.3190155029296875,0.8583488464355469
1725891193516420600,14.652420654296876,-0.7462844848632812,-1.211130142211914,1.2510476112365723
1725891193535270000,14.671269775390625,-0.30266380310058594,-1.3860011100769043,1.9815025329589844
1725891193554119200,14.690119140625,-0.41466617584228516,-1.720287799835205,1.4712152481079102
1725891193572968400,14.708968505859374,-0.14786148071289062,-1.2799358367919922,0.6244416236877441
1725891193591817700,14.727817626953126,-0.3852815628051758,-0.5970640182495117,0.1542520523071289
1725891193610667300,14.746667236328125,-0.732487678527832,-1.0133657455444336,-0.14127349853515625
1725891193629516500,14.7655166015625,-1.1837515830993652,-1.4448752403259277,-0.2170710563659668
1725891193648365800,14.78436572265625,-0.6976957321166992,-0.9664335250854492,0.3380413055419922
1725891193667215000,14.803215087890624,-0.14310503005981445,-0.8221001625061035,0.2015085220336914
1725891193686064600,14.822064697265626,0.2406325340270996,-0.609957218170166,0.08879899978637695
1725891193704914000,14.840913818359375,0.8105459213256836,-0.2224116325378418,0.045917510986328125
1725891193723763200,14.85976318359375,0.746330738067627,-0.12575578689575195,0.03501129150390625
1725891193742612500,14.878612548828125,0.06591176986694336,-0.38788795471191406,0.5681676864624023
1725891193761461800,14.897461669921874,-0.6544127464294434,-0.33471202850341797,1.339897632598877
1725891193780311300,14.916311279296876,-0.7014255523681641,-0.35219621658325195,1.3806142807006836
1725891193799160600,14.93516064453125,-0.5927352905273438,-0.17430496215820312,0.6758508682250977
1725891193818009900,14.954009765625,0.4510374069213867,0.4600100517272949,0.7114419937133789
1725891193836859100,14.972859130859375,0.6535401344299316,0.6698355674743652,0.5621981620788574
1725891193855708700,14.991708740234374,0.6129536628723145,0.7242460250854492,0.9286885261535645
1725891193874558000,15.010557861328126,0.5223245620727539,0.07938003540039062,1.2008049488067627
1725891193893407200,15.0294072265625,-0.847661018371582,-1.124070167541504,1.960101842880249
1725891193912256500,15.048256591796875,-0.414461612701416,-1.9072656631469727,2.2535736560821533
1725891193931106000,15.06710595703125,0.6453227996826172,-1.8811445236206055,1.735973596572876
1725891193949955300,15.085955322265624,0.3797607421875,-0.8607382774353027,1.4280831813812256
1725891193968804600,15.1048046875,0.18802595138549805,-0.4849982261657715,1.242025375366211
1725891193987654100,15.123654052734375,1.305844783782959,-0.20581531524658203,0.21556377410888672
1725891194006503400,15.14250341796875,0.7668275833129883,-0.0013213157653808594,-0.5823767185211182
1725891194025352700,15.161352783203125,0.6442670822143555,-0.08532953262329102,-0.9861551523208618
1725891194044202000,15.180201904296876,1.31003999710083,-0.5136585235595703,-1.0405888557434082
1725891194063051500,15.199051513671876,1.803356647491455,-0.6130754947662354,-0.7569122314453125
1725891194081900800,15.21790087890625,1.4999008178710938,0.011720657348632812,-0.665738582611084
1725891194100750000,15.23675,2.261652946472168,1.048374891281128,-1.1132173538208008
1725891194119599400,15.255599365234374,2.18145751953125,1.566351056098938,-2.790370225906372
1725891194138449000,15.274448974609374,1.4780707359313965,0.3001067638397217,-0.9687778949737549
1725891194157298200,15.293298095703125,2.128028392791748,-1.1115801334381104,-0.29473114013671875
1725891194176147500,15.3121474609375,2.8811302185058594,1.3421189785003662,-1.721007227897644
1725891194194996700,15.330996826171875,1.2512025833129883,1.635462999343872,-2.3667383193969727
1725891194213846300,15.34984619140625,1.3004908561706543,0.3301079273223877,-1.7900173664093018
1725891194232695600,15.368695556640626,1.6904716491699219,2.047823190689087,-0.7818856239318848
1725891194251545000,15.387545166015625,1.7718863487243652,1.7648036479949951,-1.712340235710144
1725891194270394400,15.406394287109375,1.425276279449463,1.6847825050354004,-3.125415325164795
1725891194289243600,15.42524365234375,1.1919798851013184,1.872829794883728,-0.7716102600097656
1725891194308093000,15.444093017578124,2.295064926147461,1.3559057712554932,-0.845550537109375
1725891194326942500,15.4629423828125,0.9644289016723633,1.482649326324463,-1.0400443077087402
1725891194345791700,15.481791748046875,0.5048837661743164,0.8796234130859375,-0.8754420280456543
1725891194364641000,15.50064111328125,-0.5667915344238281,0.33568286895751953,-0.8397769927978516
1725891194383490600,15.519490478515625,-0.5146975517272949,0.29795169830322266,1.403517723083496
1725891194402339800,15.53833984375,-0.26003170013427734,-2.4045209884643555,2.3150434494018555
1725891194421189000,15.557189208984376,-0.8792328834533691,-3.984504222869873,2.393404006958008
1725891194440038700,15.57603857421875,-0.23156452178955078,-4.153207302093506,1.1330533027648926
1725891194458888000,15.594887939453125,-0.7619156837463379,-2.3659825325012207,-0.42399168014526367
1725891194477737200,15.6137373046875,-1.1510601043701172,-0.9832310676574707,-0.3515172004699707
1725891194496586800,15.632586669921874,-1.5600166320800781,-0.24109935760498047,1.4110841751098633
1725891194515436000,15.65143603515625,-1.1189417839050293,-0.6363754272460938,1.9518160820007324
1725891194534285300,15.670285400390625,-0.7901129722595215,-1.1929144859313965,0.8681659698486328
1725891194553134800,15.689134765625,0.15761041641235352,-0.7383966445922852,0.3508787155151367
1725891194571984100,15.707984130859375,0.09857559204101562,-0.8366427421569824,-0.01722860336303711
1725891194590833400,15.72683349609375,-0.18059396743774414,-1.2862954139709473,0.2923746109008789
1725891194609683000,15.745682861328126,-0.8373594284057617,-1.12446928024292,1.6936016082763672
1725891194628532200,15.7645322265625,-1.2698793411254883,-1.3122406005859375,0.7114896774291992
1725891194647381800,15.7833818359375,-1.6241202354431152,-0.9211177825927734,0.5305161476135254
1725891194666231000,15.80223095703125,-0.4882240295410156,-0.7479248046875,0.10402488708496094
1725891194685080300,15.821080322265624,-0.374361515045166,-0.8017840385437012,-1.0347003936767578
1725891194703929900,15.839929931640626,0.13878393173217773,-0.6224474906921387,-0.02381277084350586
1725891194722779100,15.858779052734375,-0.06137657165527344,-0.8493499755859375,0.5049619674682617
1725891194741628400,15.87762841796875,-0.027851104736328125,-0.5275678634643555,0.7314853668212891
1725891194760478000,15.89647802734375,0.3049740791320801,-0.09038496017456055,0.7107486724853516
1725891194779327200,15.9153271484375,0.5264368057250977,0.05395030975341797,0.020282268524169922
1725891194798176500,15.934176513671876,0.06631040573120117,0.2171487808227539,0.3475809097290039
1725891194817026000,15.953026123046875,-0.5997624397277832,-0.34511756896972656,0.8468365669250488
1725891194835875300,15.971875244140625,-1.0083765983581543,-0.606391429901123,1.8160924911499023
1725891194854724900,15.990724853515625,-0.5523014068603516,-0.6721525192260742,1.5003151893615723
1725891194873574100,16.00957421875,0.7050518989562988,-0.25952768325805664,0.6644015312194824
1725891194892423400,16.02842333984375,1.0935096740722656,-0.023353099822998047,0.7032499313354492
1725891194911273000,16.04727294921875,0.589299201965332,-0.5374102592468262,0.5151188373565674
1725891194930122200,16.066122314453125,0.21953153610229492,-0.9578919410705566,1.0699708461761475
1725891194948971500,16.084971435546876,-0.34823179244995117,-1.2881722450256348,1.6170051097869873
1725891194967821000,16.103821044921876,0.23058843612670898,-1.1466646194458008,1.113297700881958
1725891194986670300,16.12267041015625,0.8618321418762207,-0.6764726638793945,0.4866619110107422
1725891195005520000,16.141519775390623,0.3917388916015625,0.07653617858886719,-0.0621795654296875
1725891195024369200,16.160369140625,0.6869754791259766,-0.46384429931640625,-0.02024531364440918
1725891195043218700,16.17921875,-0.1219635009765625,-0.09058427810668945,-0.6644256114959717
1725891195062068000,16.19806787109375,0.7085428237915039,-0.41779208183288574,-0.42962050437927246
1725891195080917200,16.216917236328126,1.3693313598632812,-1.2259762287139893,-0.8008744716644287
1725891195099766800,16.235766845703125,1.6484184265136719,-0.6680035591125488,-1.1227885484695435
1725891195118616000,16.254615966796877,2.5353336334228516,1.2397170066833496,-2.204341173171997
1725891195137465600,16.273465576171876,3.381855010986328,2.0413458347320557,-2.597198247909546
1725891195156315000,16.29231494140625,1.7655057907104492,1.6306829452514648,-1.7818607091903687
1725891195175164400,16.311164306640624,1.8732490539550781,0.9087874889373779,-0.5880997180938721
1725891195194013700,16.330013671875,1.672734260559082,1.6701003313064575,-1.2242331504821777
1725891195212863000,16.348863037109375,0.7888545989990234,1.6691529750823975,-1.1180856227874756
1725891195231712500,16.36771240234375,0.9908337593078613,1.549295425415039,-0.8909552097320557
1725891195250561800,16.386561767578126,1.4593563079833984,0.6699013710021973,-0.7839291095733643
1725891195269411300,16.405411376953126,1.639094352722168,1.204042911529541,-1.6383932828903198
1725891195288260600,16.424260498046873,1.313258171081543,1.95047926902771,-1.6893579959869385
1725891195307110100,16.443110107421877,1.6048192977905273,1.9128468036651611,-1.63340425491333
1725891195325959400,16.46195947265625,1.0272717475891113,2.0744166374206543,-1.0592103004455566
1725891195344808700,16.48080859375,1.2318453788757324,1.3279409408569336,-0.6869864463806152
1725891195363658200,16.499658203125,0.47072267532348633,0.40157413482666016,-0.0763397216796875
1725891195382507800,16.5185078125,0.6638088226318359,-0.48422908782958984,0.7243576049804688
1725891195401357000,16.537357177734375,0.6695437431335449,-1.438300609588623,0.49668121337890625
1725891195420206300,16.556206298828126,-0.22350597381591797,-1.8357367515563965,0.8445892333984375
1725891195439056000,16.575055908203126,-0.6925053596496582,-1.6841239929199219,1.06390380859375
1725891195457905400,16.593905517578126,-1.430060863494873,-2.2708396911621094,0.9249391555786133
1725891195476754700,16.612754638671873,-1.6999716758728027,-3.09698486328125,2.0789084434509277
1725891195495604000,16.63160400390625,-1.556971549987793,-3.387877941131592,2.103107452392578
1725891195514453500,16.65045361328125,-1.3389577865600586,-2.1190366744995117,1.452066421508789
1725891195533302800,16.669302734375,-0.5630369186401367,-1.1063075065612793,0.42128705978393555
1725891195552152300,16.68815234375,-0.3007683753967285,-0.2840695381164551,0.36078786849975586
1725891195571001600,16.707001708984375,-0.19887828826904297,-0.41658496856689453,0.9138922691345215
1725891195589851100,16.72585107421875,2.2290854454040527,0.3126969337463379,1.5171937942504883
1725891195608700400,16.744700439453126,-0.32147884368896484,-2.4640440940856934,0.8236360549926758
1725891195662878500,16.79887841796875,-0.33172607421875,0.0715188980102539,0.07174253463745117
1725891195681728000,16.81772802734375,0.7742152214050293,6.81930685043335,0.33031606674194336
1725891195700577300,16.836577392578125,-0.1351470947265625,5.137985706329346,1.0155448913574219
1725891195719426800,16.8554267578125,0.9207019805908203,0.734743595123291,-0.2751436233520508
1725891195738276000,16.874276123046876,-1.1873388290405273,0.082733154296875,-1.2414436340332031
1725891195757125600,16.893125732421876,-0.7767424583435059,0.7115459442138672,-0.7647056579589844
1725891195775975000,16.911974853515623,-2.3485445976257324,1.1941347122192383,0.056726932525634766
1725891195794824400,16.930824462890627,-0.9962959289550781,1.0049409866333008,1.4655113220214844
1725891195813673700,16.949673828125,-0.059400081634521484,-0.8205695152282715,2.590224266052246
1725891195832523300,16.968523193359374,-1.5452594757080078,-5.526850700378418,3.4865355491638184
1725891195851372500,16.98737255859375,-2.249849319458008,-6.917173385620117,2.822958469390869
1725891195870222000,17.00622216796875,-1.1615633964538574,-6.0468597412109375,0.6594686508178711
1725891195889071400,17.0250712890625,0.12675952911376953,-3.824556350708008,-1.1806385517120361
1725891195907921000,17.0439208984375,-0.4652891159057617,-2.849735736846924,0.17430830001831055
1725891195926770400,17.0627705078125,0.2361292839050293,-3.2260375022888184,1.8281965255737305
1725891195945619700,17.08161962890625,1.3942537307739258,-3.632956027984619,1.6629018783569336
1725891195964469200,17.10046923828125,1.8485946655273438,-3.5476784706115723,1.7040133476257324
1725891195983318500,17.119318603515627,2.251349449157715,-3.6449732780456543,0.5599491596221924
1725891196002168000,17.13816796875,3.3986968994140625,-5.369324684143066,-0.5020778179168701
1725891196021017300,17.157017333984374,2.4588193893432617,-1.9592971801757812,-2.104534864425659
1725891196039867000,17.175866943359374,3.658743381500244,-1.9323413372039795,-1.319016456604004
1725891196058716200,17.194716064453125,1.7829084396362305,9.773649215698242,-2.0125064849853516
1725891196077565700,17.213565673828125,0.21743106842041016,7.751358985900879,-2.8119313716888428
1725891196096415000,17.2324150390625,1.4656481742858887,0.08855509757995605,-0.7395728826522827
1725891196115264500,17.251264404296876,2.4697365760803223,-0.9786937236785889,-1.225988507270813
1725891196134114000,17.270114013671876,2.099565029144287,1.6834806203842163,-1.8870627880096436
1725891196152963300,17.28896337890625,1.9053559303283691,1.6128785610198975,-1.6169748306274414
1725891196171812900,17.307812744140627,2.1979312896728516,1.5779348611831665,-0.8239433765411377
1725891196190662100,17.326662109375,2.549771785736084,1.4974747896194458,-1.4976751804351807
1725891196209511700,17.34551171875,2.1530871391296387,1.559248924255371,-2.1113686561584473
1725891196228361000,17.36436083984375,2.5849556922912598,0.9296599626541138,-0.6217637062072754
1725891196247210500,17.38321044921875,1.6013307571411133,1.849838376045227,-2.68050479888916
1725891196266060000,17.40206005859375,0.9957971572875977,3.2342116832733154,-0.9597127437591553
1725891196284909300,17.420909423828125,2.6277546882629395,2.0460071563720703,-0.7435688972473145
1725891196303758800,17.4397587890625,0.339963436126709,1.3717083930969238,-2.0851926803588867
1725891196322608000,17.458608154296876,1.4637947082519531,0.5278687477111816,0.7469730377197266
1725891196341457700,17.477457763671875,2.9846644401550293,-0.29164886474609375,0.12585163116455078
1725891196360307000,17.496306884765627,0.849027156829834,0.03085803985595703,-1.1150100231170654
1725891196379156500,17.515156494140626,0.44264793395996094,-0.33123159408569336,0.794959306716919
1725891196398006000,17.534006103515626,0.335787296295166,-1.0505023002624512,1.6326789855957031
1725891196416855300,17.552855224609374,-0.28020668029785156,-1.9796490669250488,1.9423542022705078
1725891196435704800,17.571704833984374,0.43738889694213867,-3.2180228233337402,2.1290483474731445
1725891196454554400,17.590554443359373,0.19681406021118164,-1.9524421691894531,0.45303821563720703
1725891196473403600,17.609403564453125,-1.9422645568847656,-2.116227149963379,0.4108119010925293
1725891196492253200,17.628253173828124,-1.8315801620483398,-1.3770432472229004,1.1460938453674316
1725891196511102500,17.6471025390625,-1.6285014152526855,-1.3866124153137207,1.7044148445129395
1725891196529952000,17.665951904296875,-1.7583184242248535,-1.6586356163024902,1.145829677581787
1725891196548801500,17.684801513671875,-0.5489544868469238,-1.9605097770690918,2.6058270931243896
1725891196567650800,17.70365087890625,-1.020885944366455,-3.150773525238037,2.356597423553467
1725891196586500400,17.722500244140626,-0.9386277198791504,-2.6308460235595703,0.9587349891662598
1725891196605349600,17.741349609375,-0.8210444450378418,-1.0342836380004883,1.0393486022949219
1725891196624199200,17.76019921875,-0.47478151321411133,-0.4313392639160156,-0.20097732543945312
1725891196643048700,17.779048583984373,-0.34397220611572266,-0.09162139892578125,-0.4491608142852783
1725891196661898000,17.79789794921875,0.22637271881103516,0.08170413970947266,0.07173967361450195
1725891196680747500,17.81674755859375,0.4287834167480469,0.0350799560546875,-0.3885538578033447
1725891196699597000,17.83559716796875,0.08623361587524414,-0.5562682151794434,0.08406448364257812
1725891196718446300,17.8544462890625,0.30397748947143555,-0.6872878074645996,0.6803321838378906
1725891196737296000,17.8732958984375,-0.2672452926635742,-0.8469128608703613,0.16311264038085938
1725891196756145200,17.892145263671875,-0.48613977432250977,-0.8019499778747559,-0.1377396583557129
1725891196774994700,17.91099462890625,-0.5745453834533691,-0.7830638885498047,1.0862455368041992
1725891196793844200,17.92984423828125,-1.4142265319824219,-1.74033784866333,1.2133746147155762
1725891196812693500,17.948693603515625,-1.408024787902832,-1.221196174621582,0.8757033348083496
1725891196831543000,17.96754296875,0.45728540420532227,0.04303693771362305,0.8379168510437012
1725891196850392600,17.986392578125,0.7930164337158203,0.15660667419433594,0.4120001792907715
1725891196869241900,18.005241943359376,0.03665590286254883,0.018873214721679688,0.865088939666748
1725891196888091400,18.02409130859375,-0.3494257926940918,-1.249283790588379,1.5964269638061523
1725891196906941000,18.04294091796875,-0.07219552993774414,-2.2051315307617188,1.5898642539978027
1725891196925790200,18.061790283203123,0.3651285171508789,-1.6093096733093262,1.632655143737793
1725891196944639700,18.0806396484375,2.3662643432617188,-2.8548665046691895,2.2529072761535645
1725891196963489000,18.099489013671874,0.518397331237793,-0.5428366661071777,0.7723076343536377
1725891196982338600,18.118338623046874,0.9350013732910156,-0.5560302734375,0.7099063396453857
1725891197001188000,18.13718798828125,0.6081962585449219,-0.4323248863220215,0.5889492034912109
1725891197020037400,18.156037353515625,1.3594722747802734,-0.28087878227233887,-0.21318674087524414
1725891197038887000,18.174886962890625,1.219365119934082,0.12407493591308594,-1.6213805675506592
1725891197057736400,18.193736328125,0.9096145629882812,0.007741212844848633,-1.9662100076675415
1725891197076586000,18.2125859375,0.9510726928710938,0.9527263641357422,-1.3765772581100464
1725891197095435300,18.231435302734376,1.3932828903198242,-0.3169126510620117,-0.6596524715423584
1725891197114284800,18.250284912109375,2.6341609954833984,-0.02672886848449707,-1.3097881078720093
1725891197133134000,18.269134033203127,4.111428737640381,1.5629327297210693,-1.472784161567688
1725891197151983600,18.287983642578126,3.8840465545654297,1.6598581075668335,-1.4060497283935547
1725891197170833200,18.306833251953126,2.2850122451782227,1.8849793672561646,-1.677187442779541
1725891197189682400,18.325682373046874,2.2058019638061523,1.7454233169555664,-1.0616531372070312
1725891197208532000,18.344531982421874,1.9425435066223145,2.2894794940948486,-1.637974739074707
1725891197227381500,18.363381591796873,0.7921380996704102,1.9095473289489746,-1.7697172164916992
1725891197246230800,18.382230712890625,1.3322172164916992,1.7570005655288696,-1.3859732151031494
1725891197265080300,18.401080322265624,1.4355168342590332,1.0325543880462646,-0.8439745903015137
1725891197283929900,18.419929931640624,1.323380947113037,0.39339327812194824,-0.8573944568634033
1725891197302779100,18.438779052734375,1.0016274452209473,1.007232427597046,-0.9907517433166504
1725891197321628700,18.457628662109375,1.009202003479004,1.060161828994751,-1.2666957378387451
1725891197340478200,18.476478271484375,0.708864688873291,1.1506733894348145,-0.7114930152893066
1725891197359327700,18.49532763671875,1.2555351257324219,0.40486860275268555,0.5576028823852539
1725891197378177000,18.514177001953126,0.9888186454772949,-1.0316357612609863,0.9224662780761719
1725891197397026600,18.533026611328125,0.286923885345459,-1.7754297256469727,0.9160432815551758
1725891197415875800,18.551875732421873,0.003055095672607422,-2.368011951446533,0.6763415336608887
1725891197434725400,18.570725341796877,-0.2477865219116211,-2.115199089050293,0.3989229202270508
1725891197453575000,18.589574951171876,-0.5168089866638184,-1.9768381118774414,0.3836634159088135
1725891197472424400,18.608424560546876,-0.7609891891479492,-1.7347478866577148,1.1427621841430664
1725891197491273700,18.627273681640624,-1.250274658203125,-1.6160492897033691,1.2365007400512695
1725891197510123300,18.646123291015623,-1.6288938522338867,-1.4639873504638672,1.603917121887207
1725891197528972800,18.664972900390627,-0.867835521697998,-1.9779748916625977,2.668787956237793
1725891197547822000,18.683822021484374,-1.3173880577087402,-2.269894599914551,1.803422451019287
1725891197566671600,18.702671630859374,-0.9446535110473633,-1.5809712409973145,1.8178730010986328
1725891197585521200,18.721521240234374,-0.793886661529541,-1.269902229309082,0.8417134284973145
1725891197604370400,18.740370361328125,-0.340975284576416,-0.9350814819335938,0.9692106246948242
1725891197623220000,18.759219970703125,-0.5325016975402832,-1.010486125946045,0.29223108291625977
1725891197642069500,18.778069580078125,-0.29273176193237305,-1.1016411781311035,-0.33366847038269043
1725891197660919000,18.7969189453125,-0.20170354843139648,-0.9891629219055176,-0.48120617866516113
1725891197679768300,18.815768310546876,-0.30840587615966797,-0.6276736259460449,-0.4954872131347656
1725891197698617900,18.834617919921875,-0.12381362915039062,-0.8067646026611328,-0.5345320701599121
1725891197717467400,18.85346728515625,0.3447732925415039,-0.4750547409057617,0.4861454963684082
1725891197736316700,18.872316650390626,0.3202328681945801,-0.3955550193786621,1.1544175148010254
1725891197755166200,18.891166259765626,-0.07714700698852539,-0.39246225357055664,1.2543354034423828
1725891197774015700,18.910015625,-0.4747323989868164,0.032684326171875,0.9301624298095703
1725891197792865000,18.928864990234374,-1.0493979454040527,0.1817936897277832,0.8436493873596191
1725891197811714600,18.947714599609377,-1.0849394798278809,-0.28951025009155273,1.233572006225586
1725891197830564000,18.966564208984376,-0.34714555740356445,-0.810152530670166,1.5078086853027344
1725891197849413600,18.98541357421875,-0.1426849365234375,-1.0541439056396484,1.4498190879821777
1725891197868263000,19.004262939453124,-0.1423816680908203,-0.5909919738769531,1.466773509979248
1725891197887112400,19.023112548828124,-0.23601150512695312,-0.8699049949645996,1.6609888076782227
1725891197905962000,19.0419619140625,-0.1801919937133789,-1.9211182594299316,1.9588537216186523
1725891197924811300,19.060811279296875,0.6749053001403809,-1.7591872215270996,1.7127330303192139
1725891197943660800,19.079660888671874,1.4789910316467285,-0.9543428421020508,1.4491462707519531
1725891197962510300,19.09851025390625,2.4126601219177246,-0.9206924438476562,0.7705371379852295
1725891197981359900,19.11735986328125,1.7813644409179688,-0.5071210861206055,-0.48840999603271484
1725891198000209200,19.136209228515625,1.243013858795166,0.4444906711578369,-0.8891892433166504
1725891198019058700,19.15505859375,2.202263832092285,0.3139934539794922,-1.301357626914978
1725891198037908200,19.173908203125,1.2128257751464844,1.048837423324585,-1.7170898914337158
1725891198056757500,19.192757568359376,1.4862098693847656,0.9055192470550537,-2.000533103942871
1725891198075607000,19.21160693359375,0.9370851516723633,-0.03413891792297363,-1.2175676822662354
1725891198094456600,19.23045654296875,0.8766450881958008,-0.7220580577850342,-0.6444355249404907
1725891198113306000,19.24930615234375,0.8460931777954102,0.33577704429626465,-0.7018554210662842
1725891198132155400,19.2681552734375,2.4783663749694824,1.3279428482055664,-0.516974687576294
1725891198151005000,19.2870048828125,2.1720504760742188,0.8753182888031006,-1.237701177597046
1725891198169854500,19.3058544921875,1.8857221603393555,0.7522869110107422,-0.6972428560256958
1725891198188704000,19.3247041015625,2.5337023735046387,1.293622374534607,-1.1222478151321411
1725891198207553300,19.34355322265625,1.9726018905639648,2.2902252674102783,-1.535360336303711
1725891198226402800,19.36240283203125,1.4764900207519531,2.2490603923797607,-1.182813048362732
1725891198245252400,19.38125244140625,2.1927356719970703,2.3209571838378906,-1.230918288230896
1725891198264101600,19.4001015625,2.2963614463806152,2.1900205612182617,-1.629668116569519
1725891198282951200,19.418951171875,2.178515911102295,2.140957832336426,-1.344851016998291
1725891198301800700,19.43780078125,1.8819799423217773,1.1012628078460693,-1.29850435256958
1725891198320650200,19.456650146484375,1.1991534233093262,0.7099099159240723,-1.4843389987945557
1725891198339499500,19.47549951171875,0.3141303062438965,0.5031008720397949,-1.1683485507965088
1725891198358349000,19.49434912109375,0.8617548942565918,-1.0702300071716309,-0.03969454765319824
1725891198377198600,19.513198486328125,1.2221741676330566,-1.648503303527832,1.0475678443908691
1725891198396048000,19.5320478515625,0.1488347053527832,-2.360410690307617,1.7540135383605957
1725891198414897400,19.5508974609375,-0.1696162223815918,-2.041743278503418,1.5667791366577148
1725891198433747000,19.569746826171876,-0.3678598403930664,-1.5366463661193848,1.212122917175293
1725891198452596500,19.588596435546876,-0.5404253005981445,-1.8460578918457031,0.9429111480712891
1725891198471445800,19.60744580078125,-0.9194879531860352,-2.4313626289367676,0.9209227561950684
1725891198490295300,19.62629541015625,-1.2571415901184082,-2.245006561279297,0.8860116004943848
1725891198509144800,19.645144775390627,-0.9700632095336914,-2.0402979850769043,1.672513484954834
1725891198527994400,19.663994384765626,-1.208883285522461,-2.0279455184936523,1.3611016273498535
1725891198546843600,19.68284375,-0.8726086616516113,-1.4405345916748047,2.085635185241699
1725891198565693200,19.701693115234374,-1.4144606590270996,-1.2633695602416992,2.150254726409912
1725891198584542700,19.720542724609373,-1.2124066352844238,-1.5557856559753418,2.2286086082458496
1725891198603392300,19.739392333984377,-1.7805075645446777,-2.4069418907165527,1.9841680526733398
1725891198622241500,19.758241455078124,-1.2392807006835938,-1.4547624588012695,0.7316904067993164
1725891198641091000,19.777091064453124,-0.515190601348877,-0.5790829658508301,-0.33640503883361816
1725891198659940600,19.795940673828124,0.30414772033691406,-0.019681453704833984,-0.050776004791259766
1725891198678790100,19.8147900390625,0.40999412536621094,-0.26827239990234375,-0.40364861488342285
1725891198697639400,19.833639404296875,-0.3095712661743164,-0.1914658546447754,-0.06264352798461914
1725891198716489000,19.852489013671875,0.03921365737915039,-0.27793455123901367,0.19220876693725586
1725891198735338500,19.87133837890625,-0.004727363586425781,-0.3613276481628418,0.027863025665283203
1725891198754188000,19.89018798828125,0.02075815200805664,-0.21683168411254883,0.43695068359375
1725891198773037300,19.909037353515625,-0.8755006790161133,-0.7961344718933105,1.0903844833374023
1725891198791886800,19.927886962890625,-0.5765161514282227,-1.243767261505127,1.2394475936889648
1725891198810736400,19.946736328125,0.28814697265625,-0.7091903686523438,1.026233196258545
1725891198829586000,19.9655859375,0.17758607864379883,-0.4395155906677246,1.1738896369934082
1725891198848435200,19.984435302734376,-0.16788005828857422,-0.5450277328491211,1.1170201301574707
1725891198867284700,20.00328466796875,-0.5316462516784668,-0.5097064971923828,1.7580821514129639
1725891198886134300,20.02213427734375,0.15658998489379883,-0.6882615089416504,2.4068243503570557
1725891198904983600,20.040983642578126,0.5364398956298828,-0.7556161880493164,2.1225430965423584
1725891198923833000,20.0598330078125,1.2768487930297852,-0.4885425567626953,2.2974557876586914
1725891198942682600,20.0786826171875,1.4761443138122559,-0.6914277076721191,1.780189037322998
1725891198961532200,20.0975322265625,1.7787318229675293,-0.5911636352539062,0.8598916530609131
1725891198980381700,20.116381591796873,1.2468647956848145,0.43148326873779297,-0.41071248054504395
1725891198999231000,20.13523095703125,1.5263657569885254,0.2734355926513672,-1.7103102207183838
1725891199018080500,20.15408056640625,1.1009726524353027,1.4333343505859375,-2.510594129562378
1725891199036930000,20.172929931640624,0.26128387451171875,1.0835700035095215,-2.1387133598327637
1725891199055779300,20.191779296875,0.5372514724731445,-0.6353025436401367,-0.4238370656967163
1725891199074628900,20.21062890625,1.699465274810791,-1.1355922222137451,-0.23240876197814941
1725891199093478400,20.229478515625,2.4491734504699707,0.024976491928100586,-0.7752883434295654
1725891199112328000,20.248327880859375,2.9216814041137695,0.9745981693267822,-1.1658101081848145
1725891199131177500,20.267177490234374,2.9018449783325195,1.1237393617630005,-1.7693485021591187
1725891199150026800,20.28602685546875,2.3703556060791016,0.9864965677261353,-1.360239028930664
1725891199168876300,20.304876220703125,2.2016897201538086,1.0611661672592163,-1.546811819076538
1725891199187725800,20.323725830078125,1.659386157989502,1.9615797996520996,-2.4803216457366943
1725891199206575400,20.342575439453125,1.136669635772705,2.3687827587127686,-2.052154779434204
1725891199225424600,20.361424560546876,1.3814358711242676,1.5168951749801636,-0.9582606554031372
1725891199244274200,20.380274169921876,2.071694850921631,0.9812753200531006,-0.7045230865478516
1725891199263123700,20.399123779296875,1.3901777267456055,1.0894293785095215,-1.4066040515899658
1725891199281973000,20.417972900390627,1.2345285415649414,1.672102689743042,-1.2543666362762451
1725891199300822500,20.436822509765626,1.0165424346923828,1.0047814846038818,-1.267763376235962
1725891199319672000,20.455672119140626,0.5991792678833008,0.9667446613311768,-0.8554487228393555
1725891199338521600,20.474521484375,1.2054224014282227,0.46567535400390625,0.29569363594055176
1725891199357371100,20.49337109375,1.505159854888916,-0.7516679763793945,0.48972415924072266
1725891199376220400,20.512220458984373,1.0725488662719727,-1.2328696250915527,0.4359159469604492
1725891199395070000,20.531070068359377,0.2738041877746582,-1.9240221977233887,0.7311453819274902
1725891199413919500,20.54991943359375,-0.5698013305664062,-2.272933006286621,1.028738260269165
1725891199432768800,20.568768798828124,-1.5227656364440918,-2.1888370513916016,1.853332281112671
1725891199451618300,20.587618408203124,-1.3922805786132812,-2.3239598274230957,2.548158884048462
1725891199470467800,20.6064677734375,-1.4128570556640625,-2.2896881103515625,1.52347731590271
1725891199489317400,20.6253173828125,-1.1599745750427246,-1.4907722473144531,0.5806088447570801
1725891199508166700,20.644166748046874,-0.9459667205810547,-1.0106406211853027,0.5388481616973877
1725891199527016200,20.66301611328125,-0.6512165069580078,-1.3798279762268066,1.5335822105407715
1725891199545865700,20.68186572265625,-1.1290135383605957,-2.3594441413879395,2.408874750137329
1725891199564715300,20.70071533203125,-0.7596397399902344,-2.8164238929748535,2.308076858520508
1725891199583564500,20.719564453125,-1.0736145973205566,-2.2090206146240234,0.5726888179779053
1725891199602414000,20.7384140625,-0.8460006713867188,-1.2569799423217773,0.6591353416442871
1725891199621263600,20.757263671875,-0.6089615821838379,-0.2333087921142578,-0.1470201015472412
1725891199640113200,20.776113037109376,-0.08971071243286133,0.1330394744873047,-0.3012995719909668
1725891199658962400,20.79496240234375,0.2574195861816406,-0.09340333938598633,-0.3548247814178467
1725891199677812000,20.81381201171875,0.6161861419677734,-0.20752954483032227,0.26891326904296875
1725891199696661500,20.83266162109375,0.38664722442626953,-0.31424760818481445,0.6547088623046875
1725891199715511000,20.851510986328126,-0.12282991409301758,-0.08957672119140625,0.6973264217376709
1725891199734360300,20.8703603515625,-0.031202316284179688,0.24946117401123047,0.8413605690002441
1725891199753209900,20.8892099609375,-0.18430233001708984,-0.2705402374267578,0.6385645866394043
1725891199772059400,20.908059326171873,-0.9489178657531738,-0.41513872146606445,1.3103504180908203
1725891199790909000,20.926908935546876,-0.9847235679626465,-0.659949779510498,1.7782630920410156
1725891199809759000,20.945759033203124,-0.46076393127441406,-0.3854789733886719,1.249314785003662
1725891199828608300,20.964608154296876,0.28594255447387695,-0.10226058959960938,1.8995685577392578
1725891199847457800,20.983457763671876,0.0699009895324707,-0.967292308807373,1.4803714752197266
1725891199866307300,21.002307373046875,-0.4494314193725586,-1.7652349472045898,1.8522636890411377
1725891199885156600,21.021156494140627,-0.386812686920166,-2.5962491035461426,2.2790703773498535
1725891199904006100,21.040006103515626,-1.0193099975585938,-1.1069025993347168,2.357497453689575
1725891199922855700,21.058855712890626,1.392751693725586,-2.3136587142944336,2.2617642879486084
1725891199941705200,21.077705322265626,2.368220806121826,-1.8061985969543457,1.0199661254882812
1725891199960554800,21.0965546875,2.2734642028808594,0.6681616306304932,-0.8789297342300415
1725891199979404000,21.115404052734377,2.402411460876465,2.1440322399139404,-1.399172306060791
1725891199998253600,21.134253662109376,1.6455373764038086,2.0792083740234375,-2.3367812633514404
1725891200017103000,21.15310302734375,0.9968752861022949,0.7332983016967773,-1.6870996952056885
1725891200035952400,21.171952392578124,0.9124546051025391,-1.4798955917358398,-0.35387229919433594
1725891200054802000,21.190802001953124,1.2768802642822266,-1.8069307804107666,0.11561524868011475
1725891200073651500,21.2096513671875,2.2821044921875,-0.020816564559936523,-0.8200384378433228
1725891200092501000,21.2285009765625,2.691868782043457,1.1263411045074463,-1.5537413358688354
1725891200111350300,21.247350341796874,2.0252299308776855,1.2260360717773438,-1.3692054748535156
1725891200130199800,21.26619970703125,1.9891133308410645,1.2413429021835327,-1.0054430961608887
1725891200149049300,21.28504931640625,2.51932954788208,1.4572134017944336,-1.033891201019287
1725891200167898600,21.303898681640625,2.5682692527770996,1.8390140533447266,-1.5510492324829102
1725891200186748200,21.322748046875,2.1274232864379883,2.61027455329895,-2.169311046600342
1725891200205597700,21.34159765625,2.206254482269287,2.148526191711426,-1.1909536123275757
1725891200224447200,21.360447265625,2.01528263092041,1.5861777067184448,-1.2775160074234009
1725891200243296500,21.379296630859375,1.589003562927246,1.773413896560669,-1.3834868669509888
1725891200262146000,21.39814599609375,1.1274423599243164,1.9136632680892944,-1.0817885398864746
1725891200280995600,21.41699560546875,0.6743803024291992,1.0079011917114258,-0.34836459159851074
1725891200299845000,21.43584521484375,1.1282296180725098,0.47327470779418945,0.09622645378112793
1725891200318694400,21.4546943359375,0.8015670776367188,-0.47110605239868164,-0.2835731506347656
1725891200337544000,21.4735439453125,0.4469590187072754,-0.9710941314697266,-0.2833740711212158
1725891200356393500,21.4923935546875,0.48040151596069336,-1.063150405883789,0.8049283027648926
1725891200375243000,21.511242919921877,0.5715179443359375,-1.9433555603027344,1.8675432205200195
1725891200394092300,21.53009228515625,0.24108600616455078,-3.0102462768554688,1.3427023887634277
1725891200412941800,21.54894189453125,-0.5348916053771973,-2.4093103408813477,0.9858336448669434
1725891200431791400,21.567791259765624,-0.6235489845275879,-1.769160270690918,0.6978254318237305
1725891200450641000,21.586640869140624,-1.1517243385314941,-1.307359218597412,0.916348934173584
1725891200469490200,21.605490234375,-1.3162946701049805,-1.5346179008483887,1.3270373344421387
1725891200488339700,21.624339599609375,-1.5493574142456055,-1.9290580749511719,1.8751161098480225
1725891200507189200,21.643189208984374,-1.02341890335083,-2.104668140411377,1.614797592163086
1725891200526038500,21.66203857421875,-1.1354107856750488,-2.20839786529541,1.362732172012329
1725891200544888000,21.68088818359375,-1.3173284530639648,-2.6644234657287598,1.3893001079559326
1725891200563737600,21.699737548828125,-1.4469451904296875,-1.8559489250183105,0.9503014087677002
1725891200582587100,21.718587158203125,-1.1900687217712402,-0.7929067611694336,0.8245236873626709
1725891200601436400,21.7374365234375,-0.9447627067565918,-0.3924140930175781,0.3475031852722168
1725891200620286000,21.756285888671876,-0.49301862716674805,-0.23551654815673828,0.46362733840942383
1725891200639135500,21.775135498046875,-0.1773548126220703,-0.1485590934753418,0.7539196014404297
1725891200657985000,21.793985107421875,0.15976428985595703,0.12508487701416016,0.33663511276245117
1725891200676834300,21.812834228515626,0.6946663856506348,0.1859607696533203,-0.2700345516204834
1725891200695683800,21.831683837890626,0.869138240814209,0.36274242401123047,-0.18040776252746582
1725891200714533400,21.850533447265626,0.33057355880737305,0.12195491790771484,0.24129295349121094
1725891200733382700,21.869382568359374,-1.2116265296936035,-0.5962748527526855,0.1772606372833252
1725891200752232200,21.888232177734373,-1.970961570739746,-1.0423579216003418,1.293858289718628
1725891200771081700,21.907081787109377,-1.0194315910339355,-2.0457773208618164,1.786872386932373
1725891200789931300,21.92593115234375,-0.2859807014465332,-1.7618141174316406,1.1620807647705078
1725891200808780500,21.944780517578124,1.0507283210754395,-0.8986301422119141,1.1558384895324707
1725891200827630000,21.963630126953124,0.16252565383911133,-0.47812843322753906,1.6400556564331055
1725891200846479600,21.982479736328123,-0.5086088180541992,-1.1128649711608887,2.3787035942077637
1725891200865329000,22.001328857421875,0.04078817367553711,-1.9595942497253418,2.1301004886627197
1725891200884178400,22.020178466796875,1.0122828483581543,-1.48392915725708,1.4218251705169678
1725891200903028000,22.039028076171874,2.120997905731201,-1.2942585945129395,1.0997741222381592
1725891200921877200,22.057877197265626,1.419602394104004,-0.6536970138549805,0.493877649307251
1725891200940726800,22.076726806640625,1.062760353088379,0.6142621040344238,0.7775135040283203
1725891200959576300,22.095576416015625,1.773763656616211,0.36110949516296387,-0.008010625839233398
1725891200978425900,22.11442578125,1.23382568359375,0.7766797542572021,-1.0374597311019897
1725891200997275100,22.133275146484376,1.948552131652832,0.8519096374511719,-1.393592357635498
1725891201016124700,22.152124755859376,1.6036577224731445,0.23107385635375977,-1.3650290966033936
1725891201034974200,22.17097412109375,1.489389419555664,-0.059780120849609375,-1.6201640367507935
1725891201053823500,22.189823486328127,0.7703447341918945,0.3491683006286621,-1.5562857389450073
1725891201072673000,22.208673095703126,1.8467302322387695,0.634749174118042,-0.8526281714439392
1725891201091522600,22.2275224609375,3.5970516204833984,0.9044867753982544,-1.171736240386963
1725891201110371800,22.246371826171874,1.9778714179992676,1.4353878498077393,-0.9183323383331299
1725891201129221400,22.265221435546874,2.488393783569336,1.6160005331039429,-0.8606023788452148
1725891201148071000,22.28407080078125,2.015634059906006,2.1835079193115234,-1.3213281631469727
1725891201166920200,22.302920166015625,1.2916245460510254,1.2792624235153198,-1.1296528577804565
1725891201185769700,22.321769775390624,1.3847761154174805,1.8625123500823975,-1.3762917518615723
1725891201204619300,22.340619384765624,1.779700756072998,1.5622204542160034,-0.7941999435424805
1725891201223468800,22.35946875,1.6198511123657227,1.8001446723937988,-1.5991374254226685
1725891201242318000,22.378318115234375,1.3157496452331543,1.3058123588562012,-1.2556190490722656
1725891201261167600,22.397167724609375,1.6411981582641602,0.6576018333435059,-1.3321409225463867
1725891201280017200,22.41601708984375,0.22755765914916992,1.0248353481292725,-1.4362425804138184
1725891201298866400,22.434866455078126,1.1911120414733887,0.7783637046813965,0.16603493690490723
1725891201317716000,22.453716064453126,1.9280824661254883,-0.21141576766967773,0.5209622383117676
1725891201336565500,22.4725654296875,1.2136383056640625,-1.157569408416748,-0.28215527534484863
1725891201355414800,22.491414794921877,0.5102672576904297,-0.8485908508300781,0.6340475082397461
1725891201374264300,22.510264404296876,0.2696347236633301,-1.7427663803100586,0.6985263824462891
1725891201393113900,22.52911376953125,-1.1113624572753906,-1.8926448822021484,1.2777886390686035
1725891201411963100,22.547963134765624,-1.4143271446228027,-3.2490334510803223,1.4639782905578613
1725891201430812700,22.566812744140623,-1.1496763229370117,-3.259316921234131,2.928464412689209
1725891201449662200,22.585662109375,-1.1077666282653809,-3.128312110900879,1.253159999847412
1725891201468511500,22.604511474609374,-1.9979238510131836,-2.225524425506592,0.29613351821899414
1725891201487361000,22.623361083984374,-0.8191394805908203,-1.7908592224121094,1.4082226753234863
1725891201506210600,22.64221044921875,-1.8991899490356445,-1.3248300552368164,1.439396858215332
1725891201525059800,22.661059814453125,-1.0135493278503418,-1.078230381011963,1.674769639968872
1725891201543909400,22.679909423828125,-0.6827507019042969,-1.570141315460205,0.586106538772583
1725891201562759000,22.698759033203125,-0.07568025588989258,-0.724668025970459,0.22462797164916992
1725891201581608200,22.717608154296876,-0.5723185539245605,-0.1607518196105957,-0.4823648929595947
1725891201600457700,22.736457763671876,-0.8245353698730469,0.5380444526672363,-1.0706932544708252
1725891201619307300,22.755307373046875,-0.5449361801147461,0.3397984504699707,-0.03868722915649414
1725891201638156500,22.774156494140627,-0.5696506500244141,-0.6306471824645996,0.7344493865966797
1725891201657006000,22.793006103515626,-0.6055731773376465,-1.205801010131836,1.3219399452209473
1725891201675855600,22.811855712890626,-0.6307511329650879,-0.6903948783874512,-0.2016746997833252
1725891201694705000,22.830704833984374,0.26609134674072266,0.5561676025390625,0.6033101081848145
1725891201713554400,22.849554443359374,0.578648567199707,-0.24221420288085938,1.2590694427490234
1725891201732404000,22.868404052734373,-0.7947278022766113,-1.2721996307373047,1.469438076019287
1725891201751253200,22.887253173828125,-1.2790923118591309,-0.9665646553039551,0.9296393394470215
1725891201770102800,22.906102783203124,-1.0450067520141602,-0.09517049789428711,1.640390396118164
1725891201788952300,22.924952392578124,-0.43322134017944336,-1.009035587310791,1.6125068664550781
1725891201807801600,22.943801513671875,-0.48267221450805664,-1.1396899223327637,1.9249815940856934
1725891201826651100,22.962651123046875,1.542703628540039,-1.5086688995361328,1.227717399597168
1725891201845500700,22.981500732421875,2.0279946327209473,-0.6016926765441895,0.3808577060699463
1725891201864350000,23.000349853515626,0.6695127487182617,0.47249937057495117,0.33409571647644043
1725891201883199500,23.019199462890626,-0.8693265914916992,-0.7314300537109375,1.0928905010223389
1725891201902049000,23.038049072265625,0.9233036041259766,-2.4148874282836914,0.6524484157562256
1725891201920898300,23.056898193359373,0.49097776412963867,-1.4134221076965332,-0.01659226417541504
1725891201939747800,23.075747802734377,0.5490880012512207,0.4756479263305664,0.010366439819335938
1725891201958597000,23.09459716796875,1.0462427139282227,0.558645486831665,-0.5776712894439697
1725891201977446700,23.11344677734375,1.0108051300048828,1.061889410018921,-0.7517880201339722
1725891201996296200,23.132296142578124,1.464909553527832,1.135934591293335,-0.7830480337142944
1725891202015145500,23.1511455078125,0.014474868774414062,0.13158249855041504,-0.4112292528152466
1725891202033995000,23.1699951171875,1.1903209686279297,-1.2278923988342285,0.12188529968261719
1725891202052844500,23.188844482421874,2.8210792541503906,-0.09081554412841797,-1.0903959274291992
1725891202071693800,23.20769384765625,3.738016128540039,1.6908491849899292,-1.970748782157898
1725891202090543400,23.22654345703125,2.6379194259643555,2.0259578227996826,-2.2460849285125732
1725891202109392600,23.245392578125,3.143507957458496,0.8461290597915649,-1.1301920413970947
1725891202128242200,23.2642421875,1.6794743537902832,2.235194683074951,-1.8806822299957275
1725891202147091700,23.283091796875,1.4040632247924805,1.5627379417419434,-0.7072947025299072
1725891202165941000,23.30194091796875,1.9200472831726074,0.847191572189331,-1.9898600578308105
1725891202184790500,23.32079052734375,1.6629595756530762,1.1923844814300537,-0.6966326236724854
1725891202203640000,23.33964013671875,2.0865416526794434,0.7886123657226562,-1.5527822971343994
1725891202222489300,23.3584892578125,0.7070469856262207,1.6786062717437744,-2.527020215988159
1725891202241339000,23.3773388671875,0.6981816291809082,1.8946805000305176,-0.8472573757171631
1725891202260188200,23.396188232421874,1.1575617790222168,1.518897294998169,-0.5586886405944824
1725891202279037700,23.41503759765625,0.9917144775390625,1.2766425609588623,-0.8267033100128174
1725891202297887200,23.43388720703125,1.5181612968444824,0.5774240493774414,-0.22230911254882812
1725891202316736500,23.452736572265625,1.0392518043518066,-0.15458440780639648,-0.13874387741088867
1725891202335586000,23.4715859375,0.6900444030761719,-0.8053727149963379,0.5723786354064941
1725891202354435600,23.490435546875,-0.07152032852172852,-1.9058551788330078,1.582620620727539
1725891202373284900,23.509284912109376,-0.7144684791564941,-3.1548094749450684,1.8715147972106934
1725891202392134400,23.528134521484375,-1.6592745780944824,-2.996659755706787,1.4392321109771729
1725891202410983700,23.546983642578127,-1.6576976776123047,-2.974881172180176,1.8199231624603271
1725891202429833200,23.565833251953126,-1.6947541236877441,-2.8054256439208984,1.3233020305633545
1725891202448682800,23.584682861328126,-1.6297707557678223,-1.4487361907958984,1.258317232131958
1725891202467532000,23.603531982421874,-1.6779460906982422,-1.1501145362854004,1.4055941104888916
1725891202486381600,23.622381591796874,-0.6840872764587402,-1.5623712539672852,1.6902191638946533
1725891202505230800,23.64123095703125,-0.6089625358581543,-1.6824145317077637,1.2803473472595215
1725891202524080400,23.660080322265625,-0.12328386306762695,-1.2252278327941895,1.1615147590637207
