time,seconds_elapsed,z,y,x
1725891178917744600,0.05374462890625,-1.497840404510498,2.3901612758636475,-0.8704059720039368
1725891178936593700,0.07259375,-1.010064959526062,1.0612248182296753,0.014431680552661419
1725891178955442700,0.091442626953125,-0.591622531414032,1.5737403631210327,0.7349466681480408
1725891178974291700,0.110291748046875,-0.2009745091199875,0.8565851449966431,1.2382992506027222
1725891178993140500,0.129140380859375,0.2309068888425827,-0.010842849500477314,1.4524073600769043
1725891179011989800,0.14798974609375,0.8335250020027161,-1.060308575630188,1.4554617404937744
1725891179030838800,0.1668388671875,1.5531237125396729,-2.3535091876983643,1.3726894855499268
1725891179049687800,0.185687744140625,1.8808526992797852,-2.961625099182129,1.0321323871612549
1725891179068536800,0.204536865234375,1.7635666131973267,-3.426187753677368,0.1521816849708557
1725891179087385600,0.223385498046875,1.6236785650253296,-2.4961462020874023,-0.7647263407707214
1725891179106235000,0.24223486328125,1.3665045499801636,-0.8623883724212646,-1.2598322629928589
1725891179125084000,0.261083984375,0.9098830819129944,-0.4589121639728546,-1.1370484828948975
1725891179143932700,0.2799326171875,0.29077163338661194,0.1406516134738922,-0.7806088328361511
1725891179162782000,0.298781982421875,-0.07238747924566269,0.4271472096443176,-0.39942920207977295
1725891179181630700,0.317630615234375,0.0769689604640007,0.5102248191833496,0.07796161621809006
1725891179200479700,0.336479736328125,0.6548470258712769,0.4796815812587738,0.5840631127357483
1725891179219329000,0.3553291015625,1.339626431465149,0.2444986253976822,1.2975531816482544
1725891179238177800,0.374177734375,1.8078542947769165,1.0154099464416504,2.1576507091522217
1725891179257027000,0.393027099609375,2.039983034133911,0.9402735829353333,2.744691848754883
1725891179275875800,0.411875732421875,2.1985023021698,-1.9170464277267456,2.817995548248291
1725891179294724900,0.430724853515625,1.551901936531067,-1.4366012811660767,3.8146214485168457
1725891179313574100,0.44957421875,1.8726060390472412,-2.182772636413574,4.683576583862305
1725891179332423000,0.4684228515625,1.933387041091919,-2.523635149002075,5.324068546295166
1725891179351272000,0.48727197265625,1.7354668378829956,-4.094168663024902,5.629195213317871
1725891179370121000,0.506120849609375,1.463021159172058,-4.004676818847656,6.188747406005859
1725891179388970000,0.524969970703125,1.884517788887024,-4.136623382568359,6.456611633300781
1725891179407819300,0.5438193359375,2.861290693283081,-3.649458885192871,6.226926326751709
1725891179426668000,0.56266796875,5.005120754241943,-4.244746685028076,4.835376739501953
1725891179445517000,0.58151708984375,6.009077072143555,-3.651291608810425,3.636554479598999
1725891179464366000,0.600365966796875,6.005411624908447,-2.6174027919769287,3.298746109008789
1725891179483215000,0.619215087890625,5.4580769538879395,0.458301305770874,3.0843327045440674
1725891179502064000,0.638064208984375,3.836230754852295,1.603672742843628,1.9976041316986084
1725891179520913200,0.6569130859375,1.692095398902893,1.3351976871490479,0.5956695079803467
1725891179539762200,0.67576220703125,0.21471896767616272,0.4237874448299408,-0.002672533504664898
1725891179558611200,0.694611083984375,-0.1637117564678192,0.48731738328933716,0.5788707137107849
1725891179577460200,0.713460205078125,0.37751442193984985,0.9894482493400574,1.5498403310775757
1725891179596309200,0.732309326171875,1.2183698415756226,1.0963495969772339,2.007072687149048
1725891179615158300,0.751158203125,2.0268492698669434,-0.9567669630050659,0.5009855031967163
1725891179634007300,0.77000732421875,3.9040367603302,0.11133010685443878,-3.5353035926818848
1725891179652856300,0.788856201171875,3.5329363346099854,1.475085735321045,-2.7243804931640625
1725891179671705300,0.807705322265625,2.036317825317383,4.336987018585205,-1.6419281959533691
1725891179690554400,0.826554443359375,-0.8155044913291931,0.2842048406600952,-1.1843904256820679
1725891179709403400,0.8454033203125,-2.1697916984558105,-3.18856143951416,0.29909467697143555
1725891179728252400,0.86425244140625,-4.075384140014648,-2.6842925548553467,3.402287721633911
1725891179747101400,0.883101318359375,-2.126725673675537,-1.7188208103179932,3.7611708641052246
1725891179765950500,0.901950439453125,-0.3863719701766968,1.7918190956115723,-0.4996110200881958
1725891179784799500,0.920799560546875,-0.3271180987358093,0.37858346104621887,0.12957969307899475
1725891179803648500,0.9396484375,0.3390299379825592,-0.7298306822776794,0.2551124095916748
1725891179822497500,0.95849755859375,0.13744457066059113,-0.5071704983711243,0.28932082653045654
1725891179841346600,0.9773466796875,0.1692095398902893,0.1974620372056961,-0.020998476073145866
1725891179860195600,0.996195556640625,0.5048797130584717,-0.0798705667257309,-0.013668099418282509
1725891179879044600,1.015044677734375,0.33017241954803467,-0.4812087416648865,0.24900375306606293
1725891179897893600,1.0338935546875,0.1340848207473755,-0.14981459081172943,0.11278090626001358
1725891179916742700,1.05274267578125,0.06352993845939636,0.360868364572525,-0.09185878932476044
1725891179935591700,1.071591796875,0.07269290834665298,0.13912445306777954,0.027259841561317444
1725891179954440700,1.090440673828125,0.13530655205249786,-0.23961171507835388,0.2551124095916748
1725891179973289700,1.109289794921875,0.09132428467273712,-0.38072147965431213,0.4059959948062897
1725891179992138800,1.128138671875,0.10720676928758621,-0.3413206934928894,0.4600575268268585
1725891180010987800,1.14698779296875,-0.0977383628487587,-0.0487164668738842,0.3534616231918335
1725891180029836800,1.1658369140625,-0.1288924664258957,0.07345648854970932,0.24411684274673462
1725891180048685800,1.184685791015625,0.0009162971982732415,-0.2689332067966461,0.26916229724884033
1725891180067534800,1.203534912109375,0.11881320178508759,-0.3006981909275055,0.10361793637275696
1725891180086383900,1.2223837890625,0.14019346237182617,-0.11468986421823502,-0.13584105670452118
1725891180105233000,1.24123291015625,-0.12644900381565094,0.31719154119491577,-0.5555051565170288
1725891180124082200,1.260082275390625,-0.22846342623233795,0.33826637268066406,-0.882317841053009
1725891180142931000,1.278930908203125,0.08460476994514465,-0.7026472091674805,-0.9174425601959229
1725891180161780000,1.297780029296875,0.3814850449562073,-1.1504111289978027,-1.2815179824829102
1725891180180629200,1.316629150390625,0.05436696484684944,-0.45646870136260986,-1.9830961227416992
1725891180199478000,1.33547802734375,-0.34636032581329346,0.458301305770874,-2.638859510421753
1725891180218327000,1.3543271484375,-0.2834412455558777,0.24327689409255981,-2.8199808597564697
1725891180237176300,1.37317626953125,-0.049480047076940536,-0.19990549981594086,-2.7775259017944336
1725891180256025000,1.392025146484375,0.32650721073150635,-0.351705402135849,-2.2576799392700195
1725891180274874400,1.410874267578125,-0.1798996776342392,-0.5090031027793884,-2.283946990966797
1725891180293723400,1.429723388671875,-0.2782489061355591,0.5251910090446472,-2.5841870307922363
1725891180312572200,1.448572265625,-0.2922987937927246,0.28756460547447205,-2.2906665802001953
1725891180331421400,1.46742138671875,0.0668896958231926,-0.49831295013427734,-1.6984331607818604
1725891180350270500,1.4862705078125,0.021685699000954628,-0.2893971800804138,-1.582674264907837
1725891180369119200,1.505119140625,0.28038692474365234,-0.5462658405303955,-1.4589741230010986
1725891180387968500,1.523968505859375,0.9291253089904785,-1.5279254913330078,-1.1327723264694214
1725891180406817500,1.542817626953125,-0.3436114490032196,-0.1256854236125946,-1.5426626205444336
1725891180425666300,1.561666259765625,-0.26908594369888306,0.41706791520118713,-1.7958661317825317
1725891180444515600,1.580515625,0.281914085149765,-1.2573124170303345,-1.1080323457717896
1725891180463364600,1.599364501953125,-0.11362084746360779,-0.10919208079576492,-1.4043017625808716
1725891180482213600,1.618213623046875,-0.3393353819847107,-0.2991710305213928,-1.037782907485962
1725891180501062700,1.637062744140625,-0.35277441143989563,-0.12782345712184906,-0.9357684850692749
1725891180519911700,1.65591162109375,-0.2306014597415924,-0.5774199366569519,-0.5182424187660217
1725891180538760700,1.6747607421875,-0.4059196412563324,-0.4289797842502594,-0.2277761995792389
1725891180557609700,1.693609619140625,-0.3121519088745117,-0.4332558512687683,0.12713623046875
1725891180576458800,1.712458740234375,-0.2153298407793045,-0.3559814393520355,0.3943895697593689
1725891180595307800,1.731307861328125,-0.1487455666065216,-0.5661189556121826,0.8497892618179321
1725891180614156800,1.75015673828125,0.018325943499803543,-0.5963567495346069,1.1741584539413452
1725891180633005800,1.769005859375,0.07116574794054031,-0.476321816444397,1.3904045820236206
1725891180651854800,1.787854736328125,-0.06414080411195755,-0.25091269612312317,1.6173408031463623
1725891180670703900,1.806703857421875,-0.017715077847242355,-0.03649916872382164,1.671096920967102
1725891180689553000,1.825552978515625,0.004581485874950886,0.21120649576187134,1.6002366542816162
1725891180708402000,1.84440185546875,0.20647229254245758,-0.13179408013820648,1.753258228302002
1725891180727251000,1.8632509765625,-0.07544180005788803,0.33460119366645813,1.4915027618408203
1725891180746100000,1.882099853515625,-0.12736530601978302,0.5658134818077087,1.2981640100479126
1725891180764949000,1.900948974609375,-0.3909534513950348,0.8669698238372803,1.2074506282806396
1725891180783798000,1.919798095703125,-0.4682278633117676,0.7252492308616638,1.1387282609939575
1725891180802647000,1.93864697265625,-0.2883281707763672,0.6287325620651245,1.146975040435791
1725891180821496000,1.95749609375,-0.25411975383758545,0.7591522336006165,1.0302997827529907
1725891180840345000,1.976344970703125,-0.26358816027641296,0.8254310488700867,0.9676861763000488
1725891180859194400,1.9951943359375,-0.023823726922273636,0.6082686185836792,1.053512692451477
1725891180878043400,2.01404345703125,-0.003665188793092966,0.595745861530304,1.1020764112472534
1725891180896892200,2.03289208984375,-0.04978547990322113,0.6583595275878906,1.1213186979293823
1725891180915741400,2.051741455078125,0.1792888194322586,0.3776671588420868,1.310381293296814
1725891180934590500,2.070590576171875,0.14599667489528656,0.32268932461738586,1.3714678287506104
1725891180953439500,2.089439453125,0.2629773020744324,0.064598947763443,1.4988330602645874
1725891180972288500,2.10828857421875,-0.09376774728298187,1.039233684539795,1.1100176572799683
1725891180991137500,2.127137451171875,1.0625993013381958,1.0453423261642456,-0.01183550525456667
1725891181009986600,2.145986572265625,1.3435970544815063,-0.05451968312263489,-0.7631992101669312
1725891181028835600,2.164835693359375,0.3454440236091614,-0.7753401398658752,-0.7296016216278076
1725891181047684600,2.1836845703125,-0.7040216326713562,0.0896444097161293,0.25938844680786133
1725891181066533600,2.20253369140625,-0.42455101013183594,0.09911280870437622,0.04130972921848297
1725891181085382700,2.221382568359375,0.34208428859710693,-0.5282453298568726,0.6622537970542908
1725891181104231700,2.240231689453125,0.09285144507884979,-0.07040216773748398,1.5299872159957886
1725891181123080700,2.259080810546875,0.020158538594841957,0.6882919073104858,0.5724566578865051
1725891181141929700,2.2779296875,0.12461641430854797,-0.16569706797599792,-0.8487202525138855
1725891181160778800,2.29677880859375,-0.048563748598098755,0.443945974111557,-2.0979387760162354
1725891181179627800,2.315627685546875,-0.07971785217523575,0.7212786078453064,-2.997437000274658
1725891181198477000,2.33447705078125,0.017104214057326317,0.826958179473877,-3.200549602508545
1725891181217326000,2.353326171875,0.07360920310020447,0.29245150089263916,-2.4284164905548096
1725891181236174800,2.3721748046875,0.20891575515270233,-0.41065385937690735,-1.1999675035476685
1725891181255024000,2.391024169921875,0.4508182108402252,-0.042913250625133514,0.037949975579977036
1725891181273873200,2.409873046875,0.5302306413650513,0.8660535216331482,0.5828413367271423
1725891181292722200,2.42872216796875,0.4407389461994171,1.7686063051223755,0.10789398849010468
1725891181311571200,2.4475712890625,0.3081812858581543,2.031583547592163,-1.0829869508743286
1725891181330420200,2.466420166015625,0.2467893660068512,1.4598140716552734,-2.108323335647583
1725891181349269200,2.485269287109375,0.5048797130584717,1.3953678607940674,-2.5127158164978027
1725891181368118300,2.5041181640625,0.9355394244194031,1.7551672458648682,-2.348393201828003
1725891181386967300,2.52296728515625,1.0955859422683716,1.9927936792373657,-1.621769666671753
1725891181405816300,2.54181640625,1.1218531131744385,1.4912736415863037,-0.7344885468482971
1725891181424665600,2.56066552734375,1.130099892616272,1.3477203845977783,-0.08025235682725906
1725891181443514400,2.579514404296875,0.7260127663612366,0.8535308241844177,0.07307469844818115
1725891181462363400,2.59836328125,0.12553271651268005,0.6345357894897461,0.23617559671401978
1725891181481212700,2.617212646484375,-0.33719736337661743,0.162031888961792,0.3586539924144745
1725891181500061700,2.636061767578125,-0.12980876863002777,0.12721258401870728,0.47991064190864563
1725891181518910700,2.65491064453125,0.3274235129356384,-0.1415679156780243,0.5031235218048096
1725891181537759700,2.673759765625,0.5296197533607483,-0.540768027305603,0.8317687511444092
1725891181556608800,2.69260888671875,0.4416552484035492,-0.24663665890693665,1.1824051141738892
1725891181575457800,2.711457763671875,0.04978547990322113,-0.44700029492378235,1.0012837648391724
1725891181594306800,2.730306884765625,-0.3326158821582794,0.02519817277789116,0.7828995585441589
1725891181613155800,2.74915576171875,-0.4407389461994171,0.6357575058937073,0.16226094961166382
1725891181632004900,2.7680048828125,0.416304349899292,-0.05696314200758934,-0.13767364621162415
1725891181650854100,2.786854248046875,0.8979712128639221,0.5285507440567017,0.4255436658859253
1725891181669703200,2.805703125,0.7730493545532227,0.1980729103088379,0.017486004158854485
1725891181688552200,2.82455224609375,0.6356047987937927,-0.5196931958198547,0.4823541045188904
1725891181707401200,2.843401123046875,-0.13133592903614044,0.13209950923919678,1.2343286275863647
1725891181726250200,2.862250244140625,-0.3995055556297302,0.36880961060523987,0.9288962483406067
1725891181745099300,2.881099365234375,-0.11087195575237274,-0.0013744457392022014,0.28932082653045654
1725891181763948300,2.8999482421875,-0.09896009415388107,-0.16814053058624268,-0.36888596415519714
1725891181782797300,2.91879736328125,0.13225223124027252,-0.1418733447790146,-0.7573959827423096
1725891181801646300,2.937646240234375,0.1029307171702385,-0.18096868693828583,-0.918053388595581
1725891181820495600,2.95649560546875,0.003665188793092966,-0.1363755613565445,-0.8300888538360596
1725891181839344600,2.9753447265625,-0.22937972843647003,0.06856957077980042,-0.9296598434448242
1725891181858193700,2.994193603515625,-0.29046618938446045,-0.11804962158203125,-0.8844558596611023
1725891181877042700,3.013042724609375,0.07880155742168427,0.2179260104894638,-0.33223408460617065
1725891181895891700,3.0318916015625,0.29016077518463135,-0.0386371985077858,-0.07047852128744125
1725891181914740700,3.05074072265625,0.40805765986442566,0.19837833940982819,0.2764926850795746
1725891181933589800,3.06958984375,0.20738859474658966,0.30894485116004944,0.32352927327156067
1725891181952439000,3.08843896484375,0.13500112295150757,0.3462076187133789,0.33971717953681946
1725891181971288000,3.1072880859375,-0.021685699000954628,0.32940882444381714,0.5361102223396301
1725891181990137000,3.12613720703125,-0.036651886999607086,0.36361727118492126,0.6961567997932434
1725891182008986000,3.144986083984375,0.143553227186203,0.4283689260482788,0.7166207432746887
1725891182027835100,3.163835205078125,0.49571678042411804,0.2863428592681885,0.6821069121360779
1725891182046684200,3.18268408203125,0.5842921733856201,-0.5523744821548462,0.8806379437446594
1725891182065533200,3.201533203125,0.3094030022621155,-1.1562143564224243,1.4191151857376099
1725891182084382500,3.220382568359375,0.012522728182375431,-1.4115557670593262,1.923689603805542
1725891182103231500,3.2392314453125,0.04734202101826668,-1.6085597276687622,2.0171518325805664
1725891182122080500,3.25808056640625,0.06841685622930527,-1.8339687585830688,2.046778917312622
1725891182140929500,3.276929443359375,-0.05192350596189499,-1.9903501272201538,2.239201307296753
1725891182159778600,3.295778564453125,-0.07483093440532684,-1.3907864093780518,1.9606468677520752
1725891182178627600,3.314627685546875,-0.31520622968673706,-1.824500322341919,1.4621812105178833
1725891182197476900,3.333476806640625,-0.287106454372406,-1.6714787483215332,1.642997145652771
1725891182216326000,3.352325927734375,-0.31459537148475647,-0.45188722014427185,2.3638176918029785
1725891182235175000,3.3711748046875,-0.3448331654071808,0.3065013885498047,1.8439717292785645
1725891182254024000,3.39002392578125,-0.401949018239975,0.7661771774291992,1.1448369026184082
1725891182272873000,3.408873046875,-0.5503891706466675,0.6830995678901672,0.377285361289978
1725891182291722000,3.427721923828125,-0.35613417625427246,0.8281798958778381,-0.45623964071273804
1725891182310571000,3.446571044921875,0.09926552325487137,0.7154753804206848,-1.304730772972107
1725891182329420300,3.465420166015625,0.47433650493621826,0.20906847715377808,-1.7735695838928223
1725891182348269300,3.484269287109375,0.7690787315368652,0.4845684766769409,-1.5802308320999146
1725891182367118300,3.503118408203125,0.776714563369751,0.6015490889549255,-1.3847540616989136
1725891182385967400,3.52196728515625,0.4050033390522003,0.6553052067756653,-1.4128538370132446
1725891182404816400,3.54081640625,0.002443459117785096,0.5737547278404236,-1.500512957572937
1725891182423665400,3.55966552734375,-0.010079269297420979,0.5435169339179993,-1.6046653985977173
1725891182442514400,3.578514404296875,0.19181154668331146,0.38072147965431213,-1.8215223550796509
1725891182461363700,3.59736376953125,0.25320345163345337,0.3889681398868561,-1.7036255598068237
1725891182480212700,3.616212646484375,-0.10965022444725037,0.039248060435056686,-1.3542108535766602
1725891182499061800,3.635061767578125,-0.3903425931930542,0.39141160249710083,-1.0970368385314941
1725891182517910800,3.653910888671875,-0.4321868419647217,0.6959276795387268,-1.138880968093872
1725891182536759800,3.672759765625,-0.3597993552684784,0.5514581799507141,-1.1373538970947266
1725891182555608800,3.69160888671875,-0.1637117564678192,0.6388118267059326,-0.9751692414283752
1725891182574458000,3.7104580078125,-0.0772743970155716,0.790611743927002,-1.00052011013031
1725891182593307100,3.72930712890625,-0.2721402645111084,0.4387536346912384,-0.9311869740486145
1725891182612156200,3.74815625,-0.3961458206176758,0.4955640435218811,-0.7274636030197144
1725891182631005200,3.767005126953125,-0.370184063911438,0.2848156988620758,-0.685924768447876
1725891182649854500,3.7858544921875,-0.29443681240081787,0.18646647036075592,-0.5402335524559021
1725891182668703500,3.804703369140625,-0.3909534513950348,-0.10277800261974335,-0.5551997423171997
1725891182687552500,3.823552490234375,-0.4978547990322113,-0.42012226581573486,-0.5961276888847351
1725891182706401500,3.842401611328125,-0.3396408259868622,-0.4897608458995819,-0.511217474937439
1725891182725250600,3.86125048828125,-0.06261363625526428,-0.2582430839538574,-0.2842811942100525
1725891182744099600,3.880099609375,0.1695149689912796,-0.7289143800735474,0.16592614352703094
1725891182762948900,3.898948974609375,0.3249800503253937,-1.08810293674469,0.5700132250785828
1725891182781798000,3.9177978515625,0.5329795479774475,-0.8849903345108032,0.7163153290748596
1725891182800647000,3.93664697265625,0.38667741417884827,-1.3043490648269653,0.8006146550178528
1725891182819496000,3.955495849609375,0.16554436087608337,-0.9164499044418335,0.9823469519615173
1725891182838345000,3.974344970703125,0.2467893660068512,-0.304974228143692,0.9756274223327637
1725891182857194200,3.9931943359375,0.2974911332130432,-0.14859285950660706,1.025718331336975
1725891182876043300,4.012043212890625,0.20861032605171204,-0.15745039284229279,1.3794090747833252
1725891182894892300,4.030892333984375,0.3555232882499695,0.2903134822845459,1.3613885641098022
1725891182913741300,4.0497412109375,0.4825831651687622,0.2503018379211426,1.3668862581253052
1725891182932590600,4.068590576171875,0.41263917088508606,-0.031001387163996696,0.9380592107772827
1725891182951439600,4.087439697265625,0.2935205399990082,0.30894485116004944,0.8287144303321838
1725891182970288600,4.10628857421875,0.20647229254245758,0.5297724604606628,0.73830646276474
1725891182989137700,4.1251376953125,0.3029889166355133,0.06826414167881012,0.75571608543396
1725891183007987000,4.143987060546875,0.3347539007663727,0.02764163166284561,0.7135664224624634
1725891183026836000,4.1628359375,0.3390299379825592,0.28756460547447205,0.5208385586738586
1725891183045685000,4.18168505859375,0.15241076052188873,0.46715885400772095,0.30428701639175415
1725891183064534000,4.200533935546875,0.005192350596189499,0.48823368549346924,0.07887791097164154
1725891183083383000,4.219383056640625,0.035124726593494415,0.46715885400772095,0.03061959706246853
1725891183102232300,4.238232421875,0.10170898586511612,0.6314814686775208,-0.06436987966299057
1725891183121081300,4.257081298828125,0.054672397673130035,0.4298960864543915,-0.05673406645655632
1725891183139930400,4.275930419921875,-0.10506874322891235,0.7738129496574402,0.3216966688632965
1725891183158779400,4.294779296875,-0.2513708472251892,0.9124792814254761,0.36109745502471924
1725891183177628400,4.31362841796875,-0.26450446248054504,0.8504765033721924,0.14698933064937592
1725891183196477700,4.332477783203125,-0.29993459582328796,0.928972601890564,-0.057039499282836914
1725891183215326700,4.35132666015625,-0.4016436040401459,1.0108284950256348,-0.36399903893470764
1725891183234175700,4.37017578125,-0.5894845128059387,1.1571305990219116,-0.469678670167923
1725891183253024800,4.389024658203125,-0.5705476999282837,1.0978766679763794,-0.6459131240844727
1725891183271874000,4.4078740234375,-0.2605338394641876,1.1681262254714966,-1.176143765449524
1725891183290723000,4.42672314453125,-0.09346231073141098,0.26710063219070435,-1.7537164688110352
1725891183309572000,4.445572021484375,-0.03634645417332649,0.48273590207099915,-1.4409536123275757
1725891183328421000,4.464421142578125,-0.19853104650974274,0.3969093859195709,-0.557337760925293
1725891183347270400,4.4832705078125,-0.1230892539024353,0.660802960395813,-0.072921983897686
1725891183366119400,4.502119384765625,-0.20738859474658966,0.31230461597442627,-0.38446301221847534
1725891183384968400,4.520968505859375,-0.3500255048274994,0.30863943696022034,-0.4626537263393402
1725891183403817500,4.5398173828125,-0.41355544328689575,0.1305723488330841,-0.2946659028530121
1725891183422666800,4.558666748046875,-0.26878049969673157,-0.08078686892986298,0.01870773360133171
1725891183441515800,4.577515869140625,0.0009162971982732415,-0.06582067906856537,-0.05429060757160187
1725891183460364800,4.59636474609375,0.11178825795650482,-0.7295252680778503,-0.01977674663066864
1725891183479213800,4.6152138671875,0.11453714966773987,-1.123533010482788,0.4521162807941437
1725891183498063000,4.63406298828125,0.043371398001909256,-1.2973240613937378,0.8168025612831116
1725891183516912000,4.652912109375,0.007024944759905338,-1.8703151941299438,0.8534544706344604
1725891183535761200,4.67176123046875,0.09560033679008484,-1.5960369110107422,1.0926079750061035
1725891183554610200,4.690610107421875,0.4462367296218872,-0.9714277386665344,1.2584577798843384
1725891183573459500,4.70945947265625,0.5170970559120178,-0.5661189556121826,1.3736058473587036
1725891183592308500,4.72830859375,0.2003636509180069,-0.08139773458242416,1.2245547771453857
1725891183611157500,4.747157470703125,-0.05803215503692627,0.0746782198548317,-0.4892263412475586
1725891183630006800,4.7660068359375,-0.14630211889743805,-0.020922118797898293,-0.667904257774353
1725891183648855800,4.784855712890625,-0.20463970303535461,-0.15470150113105774,-0.5005273222923279
1725891183667704800,4.803704833984375,0.09193515032529831,0.32421648502349854,-0.34170249104499817
1725891183686554000,4.82255419921875,0.19089524447917938,-0.13820815086364746,0.0654388889670372
1725891183705403100,4.841403076171875,0.05222893878817558,0.08628465235233307,0.6005564332008362
1725891183724252200,4.860252197265625,-0.11239911615848541,0.10247256606817245,0.7178424596786499
1725891183743101400,4.879101318359375,-0.17867794632911682,0.45280352234840393,0.5587121844291687
1725891183761950500,4.897950439453125,-0.13652828335762024,0.37430739402770996,0.2450331300497055
1725891183780799500,4.916799560546875,-0.09529490768909454,0.41218101978302,0.2092975378036499
1725891183799648500,4.9356484375,-0.03909534588456154,0.5508472919464111,-0.1346193253993988
1725891183818497800,4.954497802734375,-0.007941242307424545,0.5826122760772705,-0.09033162891864777
1725891183837346800,4.973346923828125,0.18325942754745483,0.6867647171020508,-0.23021966218948364
1725891183856195800,4.99219580078125,0.4120282828807831,0.20570871233940125,-0.124845489859581
1725891183875044900,5.011044921875,0.591622531414032,0.735023021697998,0.041004300117492676
1725891183893894100,5.02989404296875,0.637742817401886,0.4699077308177948,-0.11598794907331467
1725891183912743200,5.0487431640625,0.3445277214050293,0.6464476585388184,0.11125374585390091
1725891183931592400,5.067592529296875,0.11331541836261749,0.6452259421348572,-0.024663666263222694
1725891183950441500,5.08644140625,-0.03634645417332649,0.4949531853199005,0.10239620506763458
1725891183969290500,5.10529052734375,0.05100720748305321,0.2234237939119339,0.19249875843524933
1725891183988139800,5.124139892578125,0.12644900381565094,0.5371028780937195,0.20563235878944397
1725891184006988800,5.14298876953125,0.3023780584335327,0.04199695214629173,0.15676318109035492
1725891184025837800,5.161837890625,0.3909534513950348,0.028557928279042244,0.29451319575309753
1725891184044686800,5.180686767578125,0.19394956529140472,0.04566214233636856,0.4240165054798126
1725891184063536000,5.1995361328125,-0.07299833744764328,-0.1510363221168518,0.43684467673301697
1725891184082385200,5.21838525390625,-0.009162971749901772,0.125074565410614,0.343993216753006
1725891184101234200,5.237234130859375,-0.3387245237827301,0.5080868005752563,0.30398157238960266
1725891184120083500,5.25608349609375,-0.5433642268180847,0.921336829662323,0.30367615818977356
1725891184138932500,5.274932373046875,-0.7070759534835815,0.8074105381965637,0.31406086683273315
1725891184157781800,5.29378173828125,-0.6313287615776062,0.8049670457839966,0.3543779253959656
1725891184176630800,5.312630859375,-0.4608974754810333,0.5774199366569519,0.19280420243740082
1725891184195479800,5.331479736328125,-0.18845178186893463,0.7967203855514526,0.05719221383333206
1725891184214328800,5.350328857421875,0.06352993845939636,0.5774199366569519,0.0016035200096666813
1725891184233178000,5.36917822265625,0.11209368705749512,0.4659371078014374,0.15462514758110046
1725891184252027100,5.388027099609375,0.05039634555578232,0.7924443483352661,-0.14897464215755463
1725891184270876200,5.406876220703125,0.16157373785972595,0.6656898856163025,-0.519769549369812
1725891184289725400,5.425725341796875,0.06536252796649933,0.549930989742279,-0.3349829614162445
1725891184308574500,5.444574462890625,0.014966187067329884,0.5041161775588989,-0.28519749641418457
1725891184327423700,5.463423828125,0.039706211537122726,0.32330018281936646,-0.1755472719669342
1725891184346272800,5.482272705078125,-0.21288637816905975,0.08750637620687485,0.13477204740047455
1725891184365121800,5.501121826171875,-0.18692462146282196,0.13209950923919678,-0.2903898358345032
1725891184383970800,5.519970703125,-0.17226386070251465,-0.002901607658714056,-0.2638172209262848
1725891184402820000,5.538820068359375,-0.09071341902017593,-0.3223838806152344,-0.2015090137720108
1725891184421669000,5.557669189453125,-0.07574722915887833,-0.4546361267566681,-0.19051344692707062
1725891184440518400,5.576518310546875,-0.06627883017063141,-0.4656316637992859,-0.17951788008213043
1725891184459367400,5.595367431640625,-0.08277218043804169,-0.2790125012397766,-0.19845469295978546
1725891184478216400,5.614216552734375,-0.07971785217523575,-0.3776671588420868,-0.16821688413619995
1725891184497065700,5.633065673828125,-0.18753549456596375,-0.19379685819149017,-0.20883940160274506
1725891184515914800,5.651914794921875,-0.10415244847536087,-0.05787943676114082,-0.1755472719669342
1725891184534764000,5.670763916015625,-0.11667517572641373,-0.36514443159103394,-0.1141553521156311
1725891184553613000,5.689613037109375,-0.01802051067352295,-0.33001968264579773,-0.09155336022377014
1725891184572462000,5.708462158203125,0.003665188793092966,-0.30375251173973083,-0.07933606207370758
1725891184591311000,5.72731103515625,-0.17318016290664673,-0.3923279047012329,0.04039343446493149
1725891184610160400,5.746160400390625,-0.8848376274108887,-1.2194387912750244,0.34643667936325073
1725891184629009700,5.765009765625,-2.4740023612976074,-1.605199933052063,1.1839323043823242
1725891184647858700,5.783858642578125,-4.656316757202148,-1.6797254085540771,2.50248384475708
1725891184666707700,5.802707763671875,-6.490743637084961,-2.5804455280303955,3.360138177871704
1725891184685556700,5.821556640625,-7.916196823120117,-1.8348851203918457,4.494513988494873
1725891184704406000,5.840406005859375,-8.485522270202637,-0.7753401398658752,6.581533432006836
1725891184723255000,5.859255126953125,-7.899397850036621,-0.21517711877822876,6.822214126586914
1725891184742104300,5.878104248046875,-4.862178325653076,0.4082103967666626,5.978304386138916
1725891184760953300,5.896953369140625,-0.6606502532958984,0.1925751268863678,3.9517605304718018
1725891184779802400,5.91580224609375,2.220798969268799,-0.7108938694000244,1.2676208019256592
1725891184798651600,5.934651611328125,3.341430425643921,-0.1153007298707962,-1.1602612733840942
1725891184817501000,5.9535009765625,3.092808485031128,1.282357931137085,-3.371591806411743
1725891184836350000,5.972349853515625,1.9376630783081055,2.3009748458862305,-5.217014312744141
1725891184855199000,5.991198974609375,0.9315688014030457,2.564868450164795,-6.46195650100708
1725891184874048300,6.01004833984375,0.5079340934753418,2.229809045791626,-7.201714038848877
1725891184892897300,6.028897216796875,0.6511818766593933,1.641851782798767,-7.519669055938721
1725891184911746300,6.047746337890625,0.5387827157974243,1.5074615478515625,-7.806469917297363
1725891184930595600,6.066595703125,0.5109884142875671,1.7508912086486816,-7.981788158416748
1725891184949444600,6.085444580078125,0.041844237595796585,1.1201733350753784,-7.866640090942383
1725891184968294000,6.1042939453125,-0.8100066781044006,0.780837893486023,-7.728890419006348
1725891184987143000,6.123142822265625,-1.517082691192627,1.8144210577011108,-7.154982566833496
1725891185005992000,6.141991943359375,-1.3771946430206299,2.609461545944214,-6.165687084197998
1725891185024841200,6.16084130859375,-0.3329212963581085,2.9161157608032227,-4.482143878936768
1725891185043690500,6.1796904296875,0.318871408700943,2.19682240486145,-2.499582290649414
1725891185062539500,6.19853955078125,-0.42943793535232544,0.9604321718215942,-1.5567125082015991
1725891185081388500,6.217388427734375,-1.1499528884887695,-0.8981239199638367,-1.7399719953536987
1725891185100237800,6.23623779296875,-0.33567020297050476,-2.573725938796997,-2.1266493797302246
1725891185119086800,6.2550869140625,0.3225366175174713,-5.335140228271484,-1.0820705890655518
1725891185137936100,6.27393603515625,0.1744018942117691,-8.218727111816406,-0.44157886505126953
1725891185156785200,6.29278515625,0.3753764033317566,-7.609084606170654,-1.452865481376648
1725891185175634400,6.311634521484375,2.15726900100708,-4.439001560211182,-1.8120540380477905
1725891185194483500,6.3304833984375,2.917490243911743,-2.5581488609313965,-0.7980184555053711
1725891185213332500,6.34933251953125,2.484081506729126,-1.5716023445129395,0.395305871963501
1725891185232181800,6.368181640625,2.0127995014190674,-0.9433279633522034,0.7633519172668457
1725891185251030800,6.38703076171875,1.5806126594543457,-1.261588454246521,0.9310342669487
1725891185269880000,6.405880126953125,0.5952877402305603,-1.399643898010254,1.2150864601135254
1725891185288729000,6.42472900390625,-0.27580544352531433,-1.00594162940979,1.5489239692687988
1725891185307578400,6.443578369140625,-0.6484329700469971,-0.6772963404655457,1.8134284019470215
1725891185326427400,6.462427490234375,-0.22327107191085815,-0.5074759125709534,1.7062216997146606
1725891185345276400,6.4812763671875,0.2458730787038803,-0.45249807834625244,1.211115837097168
1725891185364125700,6.500125732421875,0.07483093440532684,-0.03588830679655075,0.6595048904418945
1725891185382975000,6.51897509765625,-0.5112938284873962,0.08200860023498535,0.6387354731559753
1725891185401824000,6.537823974609375,-1.0326669216156006,0.18616104125976562,1.1909571886062622
1725891185420673300,6.55667333984375,-1.211039423942566,-0.21700970828533173,1.8146501779556274
1725891185439522300,6.575522216796875,-1.147204041481018,-1.1076505184173584,2.1457388401031494
1725891185458371300,6.594371337890625,-0.9954041838645935,-2.132070779800415,2.2999823093414307
1725891185477224000,6.613223876953125,-0.776103675365448,-2.693760871887207,2.339993953704834
1725891185496070000,6.63206982421875,-0.4770853817462921,-2.953989267349243,2.320446252822876
1725891185514919000,6.6509189453125,-0.053756099194288254,-3.3229517936706543,2.3329689502716064
1725891185533768000,6.669767822265625,0.05711585655808449,-3.4326019287109375,2.507370948791504
1725891185552617200,6.6886171875,0.2254091054201126,-3.1311402320861816,2.8500659465789795
1725891185571466200,6.70746630859375,0.5845975875854492,-3.2007787227630615,3.2382705211639404
1725891185590315500,6.7263154296875,0.8350521326065063,-3.205360174179077,3.5965428352355957
1725891185609164500,6.74516455078125,0.721431314945221,-2.741713762283325,3.678704023361206
1725891185628013800,6.764013916015625,0.9645555019378662,-1.680947184562683,3.711996078491211
1725891185646862800,6.78286279296875,0.5152644515037537,-1.1797325611114502,3.4481027126312256
1725891185665712000,6.801712158203125,-0.40897396206855774,-0.4943423271179199,2.3302199840545654
1725891185684561200,6.82056103515625,-0.7822123765945435,-0.6647735834121704,1.571526050567627
1725891185703410400,6.839410400390625,-0.22449280321598053,-0.34468045830726624,1.2019528150558472
1725891185722259500,6.858259521484375,0.3943132162094116,0.0847574844956398,1.0483202934265137
1725891185741108700,6.877108642578125,0.4822777509689331,0.32391104102134705,0.9004910588264465
1725891185759958000,6.8959580078125,0.2406807243824005,-0.22464552521705627,1.0076978206634521
1725891185778807000,6.91480712890625,-0.35582873225212097,-1.5462514162063599,1.5834379196166992
1725891185797656000,6.933656005859375,-0.3295615613460541,-1.6559016704559326,2.0003530979156494
1725891185816505300,6.95250537109375,0.2788597643375397,-1.004719853401184,2.1631486415863037
1725891185835354400,6.971354248046875,0.6957749724388123,-0.11743875592947006,2.3051745891571045
1725891185854203600,6.99020361328125,0.5421425104141235,-0.3721693754196167,2.4646103382110596
1725891185873052700,7.009052734375,0.2984074354171753,-0.6736311316490173,2.6936845779418945
1725891185891902000,7.02790185546875,0.10690133273601532,-0.5325213670730591,2.8699190616607666
1725891185910751200,7.046751220703125,-0.3277289569377899,-0.31291547417640686,2.6570327281951904
1725891185929600300,7.065600341796875,-0.27916520833969116,-0.2444986253976822,2.4441463947296143
1725891185948449500,7.084449462890625,0.14752385020256042,-0.8904881477355957,1.7104977369308472
1725891185967298600,7.103298583984375,0.3686569035053253,-0.5450441241264343,-0.0732274129986763
1725891185986147800,7.12214794921875,0.42943793535232544,0.8064942359924316,-0.4623482823371887
1725891186004996900,7.140996826171875,0.6933315396308899,1.355356216430664,-0.4024835228919983
1725891186023846000,7.159845947265625,1.025336503982544,1.5163191556930542,-0.29069527983665466
1725891186042695200,7.178695068359375,1.0195332765579224,0.9372192621231079,0.15034909546375275
1725891186061544400,7.19754443359375,0.6820304989814758,0.3040579557418823,0.7422770857810974
1725891186080393500,7.2163935546875,0.814588189125061,0.25060728192329407,0.6821069121360779
1725891186099242800,7.23524267578125,1.3029745817184448,0.8235984444618225,-0.2378554791212082
1725891186118091800,7.254091796875,1.6429208517074585,1.9091051816940308,-0.9482911825180054
1725891186136941000,7.272941162109375,1.9046764373779297,2.7365214824676514,-0.8682679533958435
1725891186155790000,7.2917900390625,1.3671153783798218,2.634507179260254,-0.7085267901420593
1725891186174639400,7.310639404296875,0.6722567081451416,2.233168840408325,-0.42997244000434875
1725891186193488600,7.329488525390625,0.5293143391609192,0.35323256254196167,1.836946725845337
1725891186212337700,7.348337646484375,0.7235693335533142,-0.7496837973594666,2.968573808670044
1725891186231187000,7.36718701171875,0.08307760953903198,-2.5688390731811523,0.23648102581501007
1725891186250036000,7.386035888671875,-0.4156934916973114,-0.9931133985519409,-0.5359575152397156
1725891186268885200,7.40488525390625,-1.0375537872314453,-0.18616104125976562,0.04711294546723366
1725891186287734300,7.423734375,-1.1841614246368408,-0.8144354820251465,0.5892554521560669
1725891186306583600,7.44258349609375,-1.0903936624526978,-0.9476040005683899,1.3925426006317139
1725891186325432600,7.4614326171875,-0.06200277432799339,-0.4848739206790924,1.6268092393875122
1725891186344281900,7.48028173828125,0.4535670876502991,-0.19837833940982819,1.728212833404541
1725891186363131100,7.499131103515625,0.7082977294921875,0.4292852282524109,1.690339207649231
1725891186381980200,7.517980224609375,1.2073742151260376,0.5636754631996155,1.2276091575622559
1725891186400829400,7.536829345703125,1.2311979532241821,-0.06368265300989151,0.6769145131111145
1725891186419678500,7.555678466796875,1.3952151536941528,0.05757400393486023,-0.07964149862527847
1725891186438527700,7.57452783203125,1.7800599336624146,0.6076577305793762,-1.187444806098938
1725891186457376800,7.593376708984375,1.7568471431732178,0.5346593856811523,-1.6132174730300903
1725891186476226000,7.61222607421875,0.942258894443512,-0.2631300091743469,-1.1440733671188354
1725891186495075000,7.631074951171875,0.08155044913291931,-0.9744820594787598,-0.5426769852638245
1725891186513924400,7.64992431640625,-0.19761475920677185,-0.8681915402412415,-0.3285689055919647
1725891186532773600,7.668773681640625,-0.18325942754745483,-0.5765036344528198,-0.5521454215049744
1725891186551623000,7.687622802734375,0.06414080411195755,-0.3575085997581482,-0.7231875658035278
1725891186570472000,7.706471923828125,0.05345066636800766,-0.5761982202529907,-0.5820778012275696
1725891186589321200,7.7253212890625,-0.0021380267571657896,-0.8871283531188965,-0.42508551478385925
1725891186608170200,7.744170166015625,-0.11331541836261749,-0.7331904768943787,-0.25526511669158936
1725891186627019500,7.76301953125,0.07971785217523575,-0.20631958544254303,-0.17371466755867004
1725891186645868500,7.78186865234375,0.01954767294228077,-0.12171480804681778,-0.1553887277841568
1725891186664717800,7.8007177734375,-0.1640172004699707,-0.2390008419752121,-0.18379394710063934
1725891186683566800,7.81956689453125,0.32009315490722656,-0.08628465235233307,-0.1804341822862625
1725891186702416100,7.838416015625,-0.05039634555578232,-0.03588830679655075,-0.20609050989151
1725891186721265400,7.857265380859375,-0.907439649105072,-0.06490438431501389,-0.24152065813541412
1725891186740114400,7.876114501953125,-0.8698714375495911,0.1773035079240799,-0.22930335998535156
1725891186784867300,7.920867431640625,-1.137430191040039,-0.9164499044418335,0.19066616892814636
1725891186803716400,7.93971630859375,-1.288313865661621,-1.5267038345336914,0.24869832396507263
1725891186822565600,7.958565673828125,-1.5833615064620972,-1.884670615196228,0.19188790023326874
1725891186841415000,7.977414794921875,-1.5326597690582275,-1.577405571937561,-0.07506000995635986
1725891186860264000,7.996263916015625,-1.2736530303955078,-1.2829687595367432,-0.2729802131652832
1725891186879113200,8.01511328125,-1.0067051649093628,-1.4417935609817505,0.03917170315980911
1725891186897962500,8.03396240234375,-0.880256175994873,-1.6311616897583008,0.21021384000778198
1725891186916811500,8.0528115234375,-0.42455101013183594,-1.5719077587127686,0.23403756320476532
1725891186935660800,8.071660888671875,-0.6010909676551819,-1.9201006889343262,-0.778776228427887
1725891186954509800,8.090509765625,0.18875721096992493,-1.4540108442306519,-0.37865981459617615
1725891186973359000,8.109359130859374,1.05496346950531,-0.18096868693828583,-0.06345357745885849
1725891186992208100,8.1282080078125,1.05496346950531,0.3095557391643524,0.08437569439411163
1725891187011057400,8.147057373046875,0.7959567904472351,0.48670652508735657,0.3995819091796875
1725891187029906700,8.16590673828125,0.3488037884235382,0.23564109206199646,0.6451495885848999
1725891187048755700,8.184755615234375,0.15210533142089844,0.13545925915241241,0.7599921226501465
1725891187067605000,8.20360498046875,0.2926042377948761,0.523969292640686,0.3745364546775818
1725891187086454300,8.222454345703126,0.7550288438796997,1.2179116010665894,-0.007254019379615784
1725891187105303300,8.24130322265625,1.2424989938735962,2.015090227127075,-0.37865981459617615
1725891187124152600,8.260152587890625,1.4373648166656494,2.5056145191192627,-0.6468294262886047
1725891187143001900,8.279001953125,1.2980875968933105,1.8141156435012817,-0.38354671001434326
1725891187161851000,8.297850830078126,1.2681553363800049,0.8294016718864441,0.10392337292432785
1725891187180700200,8.3167001953125,1.397047758102417,0.009621120058000088,0.4716639816761017
1725891187199549200,8.335549072265625,1.1398736238479614,-0.29153522849082947,0.672027587890625
1725891187218398500,8.3543984375,1.099556565284729,-0.05329795181751251,0.5749000906944275
1725891187237247700,8.373247802734374,1.1099413633346558,1.1433861255645752,0.016569707542657852
1725891187256097000,8.392096923828126,1.1563670635223389,2.9332199096679688,-0.6559923887252808
1725891187274946000,8.410946044921875,1.0965023040771484,4.098750114440918,-1.1630102396011353
1725891187293795300,8.42979541015625,0.9779945015907288,2.776838541030884,-0.6285035014152527
1725891187312644400,8.448644287109374,0.41905322670936584,-0.7441860437393188,1.034881353378296
1725891187331493600,8.46749365234375,0.09529490768909454,-2.3868014812469482,1.9646174907684326
1725891187350343000,8.486343017578125,0.43310311436653137,-1.4301871061325073,1.8045709133148193
1725891187369192000,8.50519189453125,0.9706641435623169,0.10735948383808136,1.1613303422927856
1725891187388041200,8.524041259765625,0.7318159937858582,0.938746452331543,0.8308524489402771
1725891187406890500,8.542890380859374,-0.049480047076940536,0.6009382009506226,0.8742238283157349
1725891187425739500,8.561739501953125,-0.48075059056282043,-0.5761982202529907,1.2315797805786133
1725891187444588800,8.5805888671875,-0.6792816519737244,-1.2053889036178589,1.1686606407165527
1725891187463438000,8.59943798828125,-0.47464191913604736,-0.7637336850166321,0.7777072191238403
1725891187482287000,8.618287109375,-0.1905898153781891,0.37003132700920105,0.17234022915363312
1725891187501136400,8.637136474609376,-0.08979712426662445,1.087186574935913,-0.20945025980472565
1725891187519985700,8.655985595703125,-0.28038692474365234,0.966235339641571,-0.25587597489356995
1725891187538834700,8.674834716796875,-0.44409868121147156,0.5673406720161438,-0.17890702188014984
1725891187557684000,8.69368408203125,-0.5229002237319946,-0.2078467458486557,0.19738568365573883
1725891187576533200,8.712533203125,-0.4465421438217163,-0.5114465355873108,0.229150652885437
1725891187595382300,8.73138232421875,-0.1331685185432434,-0.08750637620687485,0.20105087757110596
1725891187614231600,8.7502314453125,0.06780599057674408,0.27229297161102295,0.19982914626598358
1725891187633080800,8.769080810546875,-0.15027274191379547,-0.0746782198548317,0.5907825827598572
1725891187651929900,8.787929931640624,-0.09896009415388107,-0.42531460523605347,0.628045380115509
1725891187670779100,8.806779052734376,-0.09957095980644226,0.2484692484140396,0.23220497369766235
1725891187689628400,8.82562841796875,-0.09346231073141098,1.0041090250015259,-0.0524580143392086
1725891187708477700,8.844477783203125,-0.1899789422750473,0.8294016718864441,-0.27114760875701904
1725891187727326700,8.86332666015625,-0.37690356373786926,-0.6385064125061035,-0.035964664071798325
1725891187746176000,8.882176025390624,-0.3549124300479889,-1.5963424444198608,-0.24915647506713867
1725891187765025300,8.901025390625,0.2101374864578247,-1.5285364389419556,-1.0066287517547607
1725891187783874300,8.919874267578125,0.7764091491699219,-0.7704532146453857,-1.5832850933074951
1725891187802723600,8.9387236328125,1.0091485977172852,0.2790125012397766,-1.4525600671768188
1725891187821572900,8.95757275390625,0.952949047088623,0.9045380353927612,-1.0640500783920288
1725891187840422000,8.976421875,1.008537769317627,1.3413063287734985,-0.9901354312896729
1725891187859271200,8.995271240234375,1.387273907661438,1.8672609329223633,-1.1831687688827515
1725891187878120400,9.014120361328125,1.7366886138916016,2.4066545963287354,-1.3554326295852661
1725891187896969700,9.0329697265625,1.7171409130096436,2.3932154178619385,-1.1171953678131104
1725891187915818800,9.05181884765625,1.296255111694336,1.1446079015731812,-0.5600866675376892
1725891187934668000,9.07066796875,0.3543015718460083,0.2240346521139145,0.05688678100705147
1725891187953517300,9.089517333984375,-0.33658650517463684,0.46654796600341797,-0.026190826669335365
1725891187972366300,9.108366455078125,0.2419024556875229,1.5123485326766968,-0.1862373948097229
1725891187991215600,9.127215576171874,0.3084867000579834,1.921017050743103,-0.17463096976280212
1725891188010065000,9.14606494140625,0.08796452730894089,1.2325724363327026,0.26274821162223816
1725891188028914000,9.164913818359375,-0.5033525824546814,-0.7368556261062622,0.8216894865036011
1725891188047763200,9.18376318359375,-1.3500111103057861,-2.4796528816223145,1.0513746738433838
1725891188066612500,9.202612548828125,-1.7501275539398193,-2.2676827907562256,0.560850203037262
1725891188085461800,9.221461669921876,-1.85092031955719,-1.5175408124923706,0.32566729187965393
1725891188104310800,9.240310791015625,-1.3597849607467651,-1.5712969303131104,0.5040398240089417
1725891188123160000,9.25916015625,-0.7012727856636047,-1.3348922729492188,0.7099012136459351
1725891188142009300,9.27800927734375,-0.3488037884235382,-1.254258155822754,0.5577958822250366
1725891188160858400,9.2968583984375,-0.1588248461484909,-1.162628412246704,0.03367391973733902
1725891188179707600,9.315707763671876,0.11606431007385254,-0.6195695996284485,-0.9064469933509827
1725891188198557000,9.334556884765625,0.4355465769767761,-0.19929464161396027,-1.8031964302062988
1725891188217406200,9.35340625,0.4422661066055298,-1.1369720697402954,-1.7219514846801758
1725891188236255200,9.372255126953124,0.4764745235443115,-1.4161372184753418,-1.5032618045806885
1725891188255104500,9.3911044921875,0.9425643682479858,-1.0813833475112915,-1.500207543373108
1725891188273953800,9.409953857421876,1.4569125175476074,-0.055741410702466965,-1.915595531463623
1725891188292802800,9.428802734375,1.981034517288208,0.4604393243789673,-2.7414848804473877
1725891188311652000,9.447652099609375,1.7037018537521362,0.4860956370830536,-2.597320795059204
1725891188330501400,9.46650146484375,1.3878847360610962,0.009010255336761475,-1.9504148960113525
1725891188349350700,9.4853505859375,4.549109935760498,-0.827874481678009,-0.49655669927597046
1725891188368200000,9.504199951171875,1.8619158267974854,0.957683265209198,-0.2638172209262848
1725891188387049000,9.523049072265625,1.8930699825286865,0.07620538026094437,-0.1043815165758133
1725891188405898200,9.541898193359375,0.7757982611656189,-0.7179188132286072,-0.2949713170528412
1725891188424747500,9.56074755859375,0.42271843552589417,-0.6916516423225403,-0.7573959827423096
1725891188443596800,9.5795966796875,1.0800089836120605,-0.07528908550739288,-1.1055889129638672
1725891188462445800,9.59844580078125,0.9798271059989929,-0.6097957491874695,-0.9052252173423767
1725891188481295000,9.617295166015625,0.43860089778900146,-1.6262747049331665,-0.13370302319526672
1725891188500144400,9.636144287109374,0.26389357447624207,-2.1113014221191406,0.2199876755475998
1725891188518993400,9.654993408203126,0.18142683804035187,-2.7307183742523193,0.4307360351085663
1725891188537842700,9.6738427734375,0.14538581669330597,-2.4106252193450928,0.312228262424469
1725891188556692000,9.69269189453125,-0.14721840620040894,-1.4527891874313354,-0.035964664071798325
1725891188575541200,9.711541259765625,-0.7727439403533936,-1.9188790321350098,0.34521496295928955
1725891188594390300,9.730390380859374,-1.196073293685913,-1.9885175228118896,0.49976375699043274
1725891188613239600,9.749239501953125,-1.9871431589126587,-1.844353437423706,0.3574322462081909
1725891188632088800,9.7680888671875,-4.428158760070801,-2.710559844970703,0.2700785994529724
1725891188650938000,9.786938232421875,-4.07446813583374,-2.9891140460968018,0.9444733262062073
1725891188669787100,9.805787109375,-1.3548980951309204,-1.2224931716918945,0.710512101650238
1725891188688636400,9.824636474609376,-0.13255766034126282,0.596662163734436,-0.4831176698207855
1725891188707485700,9.843485595703125,-0.35613417625427246,1.1220059394836426,-1.4580578804016113
1725891188726335000,9.8623349609375,0.2822195291519165,1.021213173866272,-1.4776055812835693
1725891188745184000,9.88118408203125,2.436128854751587,1.3804017305374146,-1.0872629880905151
1725891188764033300,9.900033203125,3.6303694248199463,2.4188718795776367,-0.7097485065460205
1725891188782882600,9.918882568359376,5.08544921875,3.4891068935394287,0.6488147377967834
1725891188801731800,9.93773193359375,4.035372734069824,3.1305291652679443,0.5205331444740295
1725891188820580900,9.956580810546875,2.157574415206909,0.4195113778114319,0.5632936954498291
1725891188839430100,9.97543017578125,1.5021164417266846,-0.9500474333763123,-0.005421424750238657
1725891188858279400,9.994279541015626,1.7513493299484253,-0.6470585465431213,-0.7213549613952637
1725891188877128700,10.013128662109375,1.8661918640136719,-0.7008146047592163,-1.1501820087432861
1725891188895977700,10.031977783203125,1.4471386671066284,-1.3434443473815918,-0.7738893032073975
1725891188914827000,10.050826904296875,1.2993093729019165,-1.297629475593567,0.23342670500278473
1725891188933676300,10.06967626953125,1.6969823837280273,-1.0667226314544678,0.6164389252662659
1725891188952525600,10.088525634765626,1.700036644935608,-1.5163191556930542,0.5510764122009277
1725891188971374600,10.10737451171875,0.7342594861984253,-3.833329200744629,0.09231694042682648
1725891188990224000,10.126223876953125,-1.1380411386489868,-3.4851362705230713,-0.2888626754283905
1725891189009073200,10.1450732421875,-1.5497639179229736,-2.687957763671875,-0.37988153100013733
1725891189027922400,10.16392236328125,-2.0079126358032227,-2.944520950317383,0.3898080885410309
1725891189046771700,10.182771728515625,-2.118479013442993,-2.8565564155578613,0.6591994762420654
1725891189065620700,10.201620849609375,-1.7091996669769287,-1.669646143913269,0.48327040672302246
1725891189084470000,10.220469970703125,-0.9260709881782532,-0.5975784659385681,0.5303069949150085
1725891189103319300,10.2393193359375,-0.5021308660507202,0.2643517255783081,0.43806639313697815
1725891189122168600,10.25816845703125,-0.27366742491722107,0.7292198538780212,0.03000873140990734
1725891189141017600,10.277017578125,-0.30054548382759094,1.0829105377197266,-0.2534325122833252
1725891189159867000,10.295866943359375,-0.05436696484684944,1.7377575635910034,-0.6743183732032776
1725891189178716200,10.314716064453124,0.5253437161445618,2.0554072856903076,-0.918664276599884
1725891189197565400,10.3335654296875,0.7922916412353516,1.9430081844329834,-0.704861581325531
1725891189216414700,10.352414794921875,0.6126973628997803,2.078620195388794,-0.8508582711219788
1725891189256483300,10.3924833984375,-0.009773836471140385,-0.735023021697998,0.11491893976926804
1725891189275332600,10.41133251953125,0.10842850059270859,-1.651320219039917,0.6097193956375122
1725891189294181600,10.430181640625,-1.6035200357437134,0.1971566081047058,-0.9711986184120178
1725891189313031000,10.449031005859375,-1.4633265733718872,-0.6864593029022217,-1.0414481163024902
1725891189331880200,10.467880126953125,-0.897665798664093,0.1156061589717865,-0.3902662396430969
1725891189350729500,10.4867294921875,-0.2306014597415924,0.2845102846622467,0.2548069655895233
1725891189369578800,10.505578857421876,0.06597339361906052,0.046883873641490936,0.7615193128585815
1725891189388427800,10.524427734375,0.1902843713760376,-0.20112723112106323,1.2141700983047485
1725891189407277000,10.543277099609375,-0.0015271619195118546,0.5801688432693481,0.5535198450088501
1725891189426126300,10.562126220703124,-0.23487751185894012,0.9824233055114746,-1.2989275455474854
1725891189444975600,10.5809755859375,0.03787361457943916,2.455523729324341,-1.3038145303726196
1725891189463825000,10.599824951171875,0.0616973415017128,0.9934188723564148,-0.5280162692070007
1725891189482674200,10.618674072265625,-0.024740023538470268,-0.47326749563217163,0.12560907006263733
1725891189501523200,10.637523193359375,-0.0412333719432354,-0.7548761367797852,0.22762349247932434
1725891189520372500,10.65637255859375,-0.34574946761131287,0.17333288490772247,0.14943279325962067
1725891189539221800,10.6752216796875,-0.0021380267571657896,0.047494735568761826,0.18577924370765686
1725891189558071000,10.694071044921875,0.6120865345001221,0.11621702462434769,0.0965929925441742
1725891189576920300,10.71292041015625,0.8903354406356812,-0.577725350856781,0.5318341255187988
1725891189595769600,10.73176953125,0.7538071274757385,-0.6953168511390686,0.9230930209159851
1725891189614619000,10.750618896484376,0.5809323787689209,-0.34345871210098267,0.7367792725563049
1725891189633468000,10.769468017578125,0.12431098520755768,0.019700389355421066,0.4496728479862213
1725891189652317200,10.788317138671875,-0.03145953640341759,0.2530507445335388,0.6323214173316956
1725891189671166500,10.80716650390625,0.05833758786320686,0.4387536346912384,0.8797216415405273
1725891189690015700,10.826015625,0.19272783398628235,0.37094762921333313,0.9072105288505554
1725891189708865000,10.844864990234376,0.1945604383945465,0.3272708058357239,0.3830885887145996
1725891189727714300,10.86371435546875,0.09498947113752365,-0.10583232343196869,0.12530364096164703
1725891189746563600,10.8825634765625,-0.008246674202382565,0.020311253145337105,0.02756527252495289
1725891189765412600,10.90141259765625,0.13591741025447845,0.10858121514320374,-0.03504836559295654
1725891189784262000,10.920261962890624,0.2461785078048706,0.20723587274551392,0.16073378920555115
1725891189803111200,10.939111083984375,0.4612029194831848,0.14217877388000488,0.13538290560245514
1725891189821960400,10.95796044921875,0.45875945687294006,-0.08750637620687485,-0.15355613827705383
1725891189840809700,10.976809814453125,0.272751122713089,0.010842849500477314,-0.4073704481124878
1725891189859658800,10.99565869140625,0.07910698652267456,0.19929464161396027,-0.7628937363624573
1725891189878508000,11.014508056640626,0.028099779039621353,0.36972591280937195,-0.9321032762527466
1725891189897357300,11.033357421875,0.10506874322891235,0.10644318908452988,-1.0866520404815674
1725891189916206600,11.05220654296875,0.19822561740875244,-0.10919208079576492,-1.064355492591858
1725891189935056000,11.071055908203125,0.30970844626426697,-0.2341139316558838,-0.9824996590614319
1725891189953905200,11.0899052734375,0.37201663851737976,-0.37369653582572937,-1.036561131477356
1725891189972754400,11.10875439453125,0.3503309488296509,-0.27748534083366394,-0.9934952259063721
1725891189991603700,11.127603759765625,0.2528980076313019,-0.2023489624261856,-0.7076104879379272
1725891190010453000,11.146452880859375,0.08124501258134842,-0.18280129134655,-0.47151124477386475
1725891190029302000,11.165302001953124,-0.22968515753746033,-0.3165806829929352,-0.1602756530046463
1725891190048151300,11.1841513671875,-0.6041452884674072,-0.38469210267066956,-0.11782054603099823
1725891190067000600,11.20300048828125,-0.471587598323822,-0.24785839021205902,-0.2992473840713501
1725891190085849900,11.221849853515625,-0.16615521907806396,-0.4085158109664917,-0.2164752036333084
1725891190104699100,11.24069921875,0.34727662801742554,-0.49861836433410645,0.0553596206009388
1725891190123548400,11.25954833984375,0.4975493550300598,-0.606436014175415,0.11461350321769714
1725891190142397700,11.278397705078126,0.7232639193534851,-0.3935496211051941,0.13141228258609772
1725891190161247000,11.2972470703125,0.9495893120765686,0.4815141558647156,0.15859577059745789
1725891190180096000,11.316095947265625,0.8796452879905701,0.2692386507987976,0.3571268320083618
1725891190198945300,11.3349453125,0.43860089778900146,-0.17577634751796722,0.8348230719566345
1725891190217794600,11.353794677734374,0.12431098520755768,-0.15897755324840546,0.8219949007034302
1725891190236643800,11.372643798828125,0.32192572951316833,0.15012001991271973,0.8476512432098389
1725891190255493000,11.3914931640625,0.3426951467990875,-0.07742711156606674,1.596571445465088
1725891190274342400,11.41034228515625,0.26419901847839355,-0.4179842174053192,0.7563269734382629
1725891190293191700,11.429191650390624,-0.016187917441129684,-0.5328267812728882,-0.05948295816779137
1725891190312041000,11.448041015625,-0.24006985127925873,-0.024281874299049377,-0.5310705900192261
1725891190330890200,11.46689013671875,-0.291687935590744,0.22036947309970856,-0.7476221323013306
1725891190349739500,11.485739501953125,-0.20708316564559937,0.41157013177871704,-0.7011964321136475
1725891190368588500,11.504588623046875,-0.038789913058280945,0.310166597366333,-0.815122663974762
1725891190387437800,11.523437744140624,0.01740964688360691,0.22769984602928162,-1.0176243782043457
1725891190406287000,11.542287109375,0.06811141967773438,0.06520981341600418,-1.3371065855026245
1725891190425136400,11.561136474609375,0.005803215317428112,0.0850629210472107,-1.5597668886184692
1725891190443985700,11.579985595703125,-0.33078327775001526,0.1516471803188324,-1.5884774923324585
1725891190462835000,11.5988349609375,-1.232419729232788,0.061850059777498245,-1.4623339176177979
1725891190481684200,11.617684326171876,-1.6578869819641113,-0.5364919900894165,-1.4201842546463013
1725891190500533500,11.636533447265625,-0.878728985786438,-0.8752164840698242,-1.574427604675293
1725891190519382800,11.6553828125,-0.7079922556877136,-0.7869465351104736,-1.5359431505203247
1725891190538232000,11.674232177734375,-0.6921098232269287,-1.105207085609436,-1.5777873992919922
1725891190557081300,11.693081298828124,-0.7263182401657104,-1.4057525396347046,-1.6284891366958618
1725891190575930600,11.7119306640625,-0.6869174242019653,-1.5874848365783691,-1.6449824571609497
1725891190594780000,11.73077978515625,-0.6374374032020569,-1.4494293928146362,-1.498985767364502
1725891190613629200,11.749629150390625,-0.5519163012504578,-1.5694643259048462,-1.4076615571975708
1725891190632478200,11.768478271484375,-0.45478883385658264,-1.806479811668396,-1.3765074014663696
1725891190651327500,11.787327392578124,-0.27030766010284424,-1.5960369110107422,-1.1660645008087158
1725891190670176800,11.8061767578125,-0.15821397304534912,-1.1992802619934082,-0.9455423355102539
1725891190689026000,11.825026123046875,-0.14172062277793884,-0.7377719283103943,-0.6880627870559692
1725891190707875300,11.843875244140625,-0.10445787757635117,-0.3061959743499756,-0.5109120011329651
1725891190726724600,11.862724609375,0.11239911615848541,0.04046979174017906,-0.2625955045223236
1725891190745574000,11.881573974609376,0.23182319104671478,0.3981311321258545,0.030314164236187935
1725891190764423200,11.900423095703125,0.2813032269477844,0.6904299259185791,0.21479532122612
1725891190783272400,11.9192724609375,0.40775224566459656,0.8880446553230286,0.4713585376739502
1725891190802121700,11.938121826171875,0.48655378818511963,1.1226167678833008,0.7627410292625427
1725891190820971000,11.956970947265624,0.5436696410179138,1.2017236948013306,0.8613957166671753
1725891190839820300,11.9758203125,0.5653553605079651,1.0444260835647583,0.747469425201416
1725891190858669600,11.994669677734375,0.5253437161445618,0.8764382600784302,0.49854201078414917
1725891190877518800,12.013518798828125,0.4584540128707886,0.4650208055973053,0.22334744036197662
1725891190896368000,12.0323681640625,0.37323838472366333,0.2994764447212219,0.1219438835978508
1725891190915217400,12.051217529296874,0.20341797173023224,0.34376415610313416,-0.10254892706871033
1725891190934066700,12.070066650390626,-0.06872228533029556,0.4143190383911133,-0.32612544298171997
1725891190952916000,12.088916015625,-0.19853104650974274,0.2386954128742218,-0.38415759801864624
1725891190971765200,12.10776513671875,-0.24404047429561615,-0.09239330142736435,-0.34231334924697876
1725891190990614500,12.126614501953124,-0.27030766010284424,-0.33307403326034546,-0.4061487317085266
1725891191009463600,12.145463623046876,-0.31001389026641846,-0.30314165353775024,-0.3807978332042694
1725891191028312800,12.164312744140625,-0.31093016266822815,-0.2701549530029297,-0.35880669951438904
1725891191047162000,12.183162109375,-0.29016077518463135,-0.11346813291311264,-0.08727730810642242
1725891191066011400,12.202011474609375,-0.08032871782779694,-0.023976443335413933,0.2822958827018738
1725891191084860700,12.220860595703124,0.15485422313213348,0.342542439699173,0.3723984360694885
1725891191103710000,12.2397099609375,0.19792018830776215,0.873994767665863,0.6405680775642395
1725891191122559200,12.258559326171875,0.23884813487529755,1.1864521503448486,0.996091365814209
1725891191141408500,12.277408447265625,0.4563159942626953,1.6748385429382324,1.1216241121292114
1725891191160257800,12.2962578125,0.6969966888427734,2.199265956878662,1.2465459108352661
1725891191179107000,12.315107177734374,0.8713986277580261,2.29150652885437,1.4856995344161987
1725891191197956400,12.333956298828125,1.0525200366973877,2.0862560272216797,1.634750485420227
1725891191216805600,12.3528056640625,1.1866048574447632,1.7029383182525635,1.6509383916854858
1725891191235655000,12.371655029296875,1.2034035921096802,1.3767365217208862,1.5831323862075806
1725891191254504200,12.390504150390624,1.1236857175827026,0.9173662066459656,1.535485029220581
1725891191273353500,12.409353515625,1.043357014656067,0.6962331533432007,1.4689006805419922
1725891191292202800,12.42820263671875,0.8955277800559998,0.6192641854286194,1.5162427425384521
1725891191311052000,12.447052001953125,0.7706059217453003,0.44211336970329285,1.6252820491790771
1725891191329901300,12.4659013671875,0.66645348072052,0.3721693754196167,1.8045709133148193
1725891191348750600,12.48475048828125,0.8301652073860168,0.16752967238426208,1.432248830795288
1725891191367599900,12.503599853515626,0.7476984858512878,0.2176205813884735,1.3112976551055908
1725891191386449200,12.52244921875,0.6169734001159668,0.18677189946174622,1.275562047958374
1725891191405298400,12.54129833984375,0.5076286196708679,0.24694208800792694,1.0806961059570312
1725891191424147700,12.560147705078125,0.3790415823459625,0.21548254787921906,0.9246202111244202
1725891191442997000,12.5789970703125,0.26878049969673157,0.12446369975805283,0.7832050323486328
1725891191461846300,12.59784619140625,0.16249002516269684,0.14278964698314667,0.5614610910415649
1725891191480695600,12.616695556640625,0.06597339361906052,0.10186170041561127,0.3128391206264496
1725891191499544800,12.635544921875,0.014966187067329884,0.10674861818552017,0.07918334752321243
1725891191518394000,12.65439404296875,-0.041844237595796585,-0.04810560122132301,-0.16241367161273956
1725891191537243400,12.673243408203126,-0.10109812021255493,-0.1669187992811203,-0.5261836647987366
1725891191556092700,12.6920927734375,-0.1026252806186676,-0.18371757864952087,-0.7674752473831177
1725891191574942000,12.71094189453125,-0.05039634555578232,-0.31291547417640686,-0.7912989854812622
1725891191593791200,12.729791259765625,0.04245510324835777,-0.28298309445381165,-0.852996289730072
1725891191612640500,12.748640625,0.034208428114652634,-0.22617268562316895,-0.9620356559753418
1725891191631489800,12.76748974609375,-0.012217295356094837,-0.24785839021205902,-1.0649664402008057
1725891191650339000,12.786339111328125,0.021991131827235222,-0.3318522870540619,-1.0609958171844482
1725891191669188400,12.805188232421875,0.04367683082818985,-0.3202458620071411,-1.0246492624282837
1725891191688037600,12.82403759765625,0.044898562133312225,-0.3217730224132538,-1.0203732252120972
1725891191706887000,12.842886962890624,0.043371398001909256,-0.3061959743499756,-1.1245256662368774
1725891191725736200,12.861736083984376,0.003970621153712273,-0.3355174660682678,-1.174921989440918
1725891191744585500,12.88058544921875,-0.05253437161445618,-0.45066550374031067,-1.1550689935684204
1725891191763434800,12.899434814453125,-0.08765909820795059,-0.6259836554527283,-1.1159735918045044
1725891191782284000,12.918283935546874,-0.08491020649671555,-0.8272636532783508,-1.1013128757476807
1725891191801133300,12.93713330078125,-0.12553271651268005,-0.9384410381317139,-1.0649664402008057
1725891191819982600,12.955982666015625,-0.19272783398628235,-0.9903645515441895,-1.1425461769104004
1725891191838831900,12.974831787109375,-0.18387030065059662,-1.0389282703399658,-1.2298998832702637
1725891191857681200,12.99368115234375,-0.16035200655460358,-1.1785109043121338,-1.2610539197921753
1725891191876530400,13.012530517578124,-0.27030766010284424,-1.2319614887237549,-1.25311279296875
1725891191895379700,13.031379638671876,-0.3903425931930542,-1.2454005479812622,-1.2118793725967407
1725891191914229000,13.05022900390625,-0.5088503360748291,-1.3535236120224,-1.1526254415512085
1725891191933078300,13.069078369140625,-0.5164861679077148,-1.2744166851043701,-1.122998595237732
1725891191951927800,13.087927734375,-0.5256491303443909,-1.2554798126220703,-1.1294126510620117
1725891191970776800,13.10677685546875,-0.5748237371444702,-1.0792453289031982,-1.0344231128692627
1725891191989626000,13.125626220703126,-0.6386591196060181,-0.828485369682312,-0.964784562587738
1725891192008475600,13.1444755859375,-0.6991347670555115,-0.5710058808326721,-0.9568433165550232
1725891192027325000,13.163324951171875,-0.7052434086799622,-0.22739441692829132,-0.974558413028717
1725891192046174200,13.18217431640625,-0.6869174242019653,0.09605848789215088,-1.0228166580200195
1725891192065023500,13.2010234375,-0.5192350745201111,0.42164942622184753,-0.8087086081504822
1725891192083872800,13.219872802734375,-0.4221075773239136,0.6485856771469116,-0.6162862181663513
1725891192102722000,13.23872216796875,-0.3292561173439026,0.7093667387962341,-0.43455392122268677
1725891192121571300,13.2575712890625,-0.20891575515270233,0.6913462281227112,-0.1657734364271164
1725891192140420600,13.276420654296874,-0.07024945318698883,0.8962913751602173,0.10331250727176666
1725891192159270000,13.295269775390626,0.15668681263923645,1.198364019393921,0.26763513684272766
1725891192178119200,13.314119140625,0.34055712819099426,1.5386157035827637,0.4548651874065399
1725891192196968400,13.332968505859375,0.4944950342178345,1.7038545608520508,0.7108175158500671
1725891192215817700,13.351817626953125,0.7388409376144409,1.6898046731948853,0.8965204358100891
1725891192234667000,13.3706669921875,0.9767727851867676,1.466839075088501,1.0577887296676636
1725891192253516300,13.389516357421876,1.0882556438446045,1.3422226905822754,1.2599849700927734
1725891192272365600,13.408365478515625,1.2232567071914673,1.272889494895935,1.413617491722107
1725891192291214800,13.42721484375,1.3457350730895996,1.1730130910873413,1.46004319190979
1725891192310064000,13.446064208984374,1.3194679021835327,0.9060651659965515,1.5553381443023682
1725891192328913700,13.46491357421875,1.276707410812378,0.7124210596084595,1.7330996990203857
1725891192347763000,13.483762939453126,1.2192860841751099,0.4442514181137085,1.819231629371643
1725891192366612200,13.5026123046875,1.0201442241668701,0.42042768001556396,1.838473916053772
1725891192385461500,13.52146142578125,0.8426879644393921,0.3578140437602997,1.8366413116455078
1725891192404310800,13.540310791015624,0.8255837559700012,0.3272708058357239,1.7673081159591675
1725891192423160000,13.55916015625,0.8530726432800293,0.10399972647428513,1.6219223737716675
1725891192442009300,13.57800927734375,0.6884446144104004,0.09666935354471207,1.5296818017959595
1725891192460858600,13.596858642578125,0.3738492429256439,0.2649625837802887,1.4511855840682983
1725891192479708000,13.6157080078125,0.24953825771808624,0.06643154472112656,1.206839680671692
1725891192498557200,13.63455712890625,0.1588248461484909,0.0013744457392022014,0.9069051146507263
1725891192517406500,13.653406494140626,0.023212861269712448,-0.11377356201410294,0.701349139213562
1725891192536256000,13.672256103515625,-0.15088360011577606,-0.10186170041561127,0.4768563210964203
1725891192555105300,13.691105224609375,-0.2886336147785187,-0.13942988216876984,0.36079201102256775
1725891192573954600,13.70995458984375,-0.4013381600379944,-0.14248420298099518,0.21754421293735504
1725891192592803800,13.728803955078124,-0.5164861679077148,-0.1052214577794075,0.0025198173243552446
1725891192611653000,13.747653076171876,-0.5998691916465759,-0.14706569910049438,-0.23846633732318878
1725891192630502400,13.76650244140625,-0.555276095867157,-0.18402300775051117,-0.45593419671058655
1725891192649351700,13.7853515625,-0.5015199780464172,-0.2582430839538574,-0.5939896106719971
1725891192668201000,13.804200927734374,-0.4508182108402252,-0.2707658112049103,-0.6526326537132263
1725891192687050500,13.823050537109374,-0.39736753702163696,-0.3422369956970215,-0.6260600686073303
1725891192705899800,13.841899658203126,-0.35796675086021423,-0.2692386507987976,-0.6752346754074097
1725891192724749000,13.8607490234375,-0.3182605504989624,-0.2551887631416321,-0.7806088328361511
1725891192743598300,13.879598388671875,-0.34574946761131287,-0.15317434072494507,-0.8343649506568909
1725891192762447600,13.898447509765624,-0.2919933497905731,-0.16081015765666962,-0.9818887710571289
1725891192781297000,13.917296875,-0.22876885533332825,-0.2683223485946655,-1.0716859102249146
1725891192800146200,13.936146240234375,-0.19333870708942413,-0.3770562708377838,-1.1040617227554321
1725891192818995500,13.954995361328125,-0.14569124579429626,-0.5374082922935486,-1.1715623140335083
1725891192837845000,13.973844970703125,-0.07299833744764328,-0.6742420196533203,-1.2412009239196777
1725891192856694000,13.992694091796874,-0.04306596517562866,-0.7185297012329102,-1.3649009466171265
1725891192875543600,14.01154345703125,-0.08338304609060287,-0.735023021697998,-1.352378249168396
1725891192894392800,14.030392822265625,-0.16340632736682892,-0.7838922142982483,-1.343826174736023
1725891192913242000,14.0492421875,-0.2779434621334076,-1.0264055728912354,-1.406745195388794
1725891192932091400,14.06809130859375,-0.36682429909706116,-1.4680607318878174,-1.4586687088012695
1725891192950940700,14.086940673828124,-0.39217519760131836,-1.7863212823867798,-1.4513384103775024
1725891192969790000,14.1057900390625,-0.2984074354171753,-1.6213878393173218,-1.2922080755233765
1725891192988639200,14.12463916015625,-0.2935205399990082,-1.5526655912399292,-1.2100467681884766
1725891193007488800,14.14348876953125,-0.2971857190132141,-1.3043490648269653,-1.1825578212738037
1725891193026338000,14.162338134765625,-0.31642794609069824,-0.8544471263885498,-1.0988693237304688
1725891193045187300,14.181187255859374,-0.3591884970664978,-0.5151117444038391,-1.1141409873962402
1725891193064036600,14.20003662109375,-0.47494736313819885,-0.18127411603927612,-1.1950806379318237
1725891193082886000,14.218885986328125,-0.5219839811325073,0.09819651395082474,-1.0915390253067017
1725891193101735200,14.237735107421875,-0.4557051360607147,0.4091266989707947,-0.6416370868682861
1725891193120584700,14.256584716796874,-0.33597561717033386,0.6345357894897461,-0.28611379861831665
1725891193139434000,14.27543408203125,-0.23243404924869537,0.5743656158447266,-0.11323905736207962
1725891193158283300,14.294283203125,-0.17287473380565643,0.6281217336654663,0.18058690428733826
1725891193177132500,14.313132568359375,-0.01954767294228077,0.8214604258537292,0.3742310404777527
1725891193195981800,14.33198193359375,0.10567960888147354,0.919198751449585,0.5092321634292603
1725891193214831000,14.3508310546875,0.16554436087608337,0.9683734178543091,0.8048906922340393
1725891193233680600,14.3696806640625,0.324063777923584,1.1879792213439941,0.978070855140686
1725891193252530000,14.388530029296875,0.5021308660507202,1.3791799545288086,1.0565669536590576
1725891193271379200,14.407379150390625,0.6734784245491028,1.4982986450195312,1.1793508529663086
1725891193290228500,14.426228515625,0.8539889454841614,1.530979871749878,1.2789217233657837
1725891193309078000,14.445078125,1.0045671463012695,1.4167481660842896,1.275562047958374
1725891193327927000,14.463927001953126,1.0680971145629883,1.114675521850586,1.4230858087539673
1725891193346776600,14.482776611328125,1.0989457368850708,1.032208800315857,1.635666847229004
1725891193365625900,14.5016259765625,1.1227694749832153,0.6626355648040771,1.683619737625122
1725891193384475100,14.52047509765625,0.989295482635498,0.6788234710693359,1.9065853357315063
1725891193403324400,14.539324462890624,0.8555161356925964,0.5163334608078003,1.9188026189804077
1725891193422174000,14.558174072265626,0.7418952584266663,0.4039343297481537,1.8775691986083984
1725891193441023200,14.577023193359375,0.6038398146629333,0.34865108132362366,1.7471495866775513
1725891193459872500,14.59587255859375,0.5320632457733154,0.3761399984359741,1.5211296081542969
1725891193478721800,14.6147216796875,0.5054906010627747,0.35873034596443176,1.2911391258239746
1725891193497571000,14.633571044921876,0.4364628791809082,0.3309359848499298,1.068784236907959
1725891193516420600,14.652420654296876,0.3961458206176758,0.2948949635028839,0.8739184141159058
1725891193535270000,14.671269775390625,0.31093016266822815,0.18829907476902008,0.6729438900947571
1725891193554119200,14.690119140625,0.17256930470466614,0.18096868693828583,0.44906195998191833
1725891193572968400,14.708968505859374,0.05833758786320686,0.09819651395082474,0.25236350297927856
1725891193591817700,14.727817626953126,0.012217295356094837,0.09269873052835464,0.06330086290836334
1725891193610667300,14.746667236328125,-0.049480047076940536,0.09789107739925385,-0.15935935080051422
1725891193629516500,14.7655166015625,-0.12736530601978302,0.10766492038965225,-0.4495201110839844
1725891193648365800,14.78436572265625,-0.13164135813713074,0.008399390615522861,-0.6156753301620483
1725891193667215000,14.803215087890624,-0.10506874322891235,-0.08078686892986298,-0.7415134906768799
1725891193686064600,14.822064697265626,-0.06200277432799339,-0.19562944769859314,-0.8826232552528381
1725891193704914000,14.840913818359375,-0.04062250629067421,-0.27198755741119385,-0.9006437659263611
1725891193723763200,14.85976318359375,-0.05955931544303894,-0.23258677124977112,-0.816038966178894
1725891193742612500,14.878612548828125,-0.08521563559770584,-0.19624030590057373,-0.8099303245544434
1725891193761461800,14.897461669921874,-0.15057817101478577,-0.25182899832725525,-0.862159252166748
1725891193780311300,14.916311279296876,-0.1899789422750473,-0.3578140437602997,-1.0454187393188477
1725891193799160600,14.93516064453125,-0.17134757339954376,-0.3248273432254791,-1.233565092086792
1725891193818009900,14.954009765625,-0.08277218043804169,-0.5392408967018127,-1.24058997631073
1725891193836859100,14.972859130859375,-0.023823726922273636,-0.7625119686126709,-1.204548954963684
1725891193855708700,14.991708740234374,0.010690134018659592,-0.8956804871559143,-1.1923316717147827
1725891193874558000,15.010557861328126,0.0665842592716217,-0.9219476580619812,-1.166369915008545
1725891193893407200,15.0294072265625,-0.06872228533029556,-0.9717331528663635,-1.2195152044296265
1725891193912256500,15.048256591796875,-0.23243404924869537,-1.2402082681655884,-1.4046071767807007
1725891193931106000,15.06710595703125,-0.33750277757644653,-1.384372353553772,-1.408577799797058
1725891193949955300,15.085955322265624,-0.36804601550102234,-1.475085735321045,-1.2922080755233765
1725891193968804600,15.1048046875,-0.4523453712463379,-1.6843068599700928,-1.3233622312545776
1725891193987654100,15.123654052734375,-0.49541133642196655,-1.7502802610397339,-1.2583050727844238
1725891194006503400,15.14250341796875,-0.49663305282592773,-1.5401427745819092,-1.123304009437561
1725891194025352700,15.161352783203125,-0.5094612240791321,-1.2524255514144897,-1.095509648323059
1725891194044202000,15.180201904296876,-0.5674933791160583,-0.9836450219154358,-1.0390046834945679
1725891194063051500,15.199051513671876,-0.6643154621124268,-0.6400335431098938,-0.955621600151062
1725891194081900800,15.21790087890625,-0.7565560340881348,-0.24755294620990753,-1.0096831321716309
1725891194100750000,15.23675,-0.7929024696350098,0.04199695214629173,-0.9391282200813293
1725891194119599400,15.255599365234374,-0.6334667801856995,0.5823068618774414,-0.6193405389785767
1725891194138449000,15.274448974609374,-0.5528326034545898,0.6159043908119202,-0.5280162692070007
1725891194157298200,15.293298095703125,-0.6765327453613281,0.6366738080978394,-0.2473238706588745
1725891194176147500,15.3121474609375,-0.4825831651687622,0.7588467597961426,0.10728313028812408
1725891194194996700,15.330996826171875,-0.1493564397096634,0.9256128668785095,0.2697731554508209
1725891194213846300,15.34984619140625,-0.04306596517562866,1.123533010482788,0.43684467673301697
1725891194232695600,15.368695556640626,-0.014966187067329884,1.111926555633545,0.728532612323761
1725891194251545000,15.387545166015625,0.0821613147854805,1.1861467361450195,0.9090431332588196
1725891194270394400,15.406394287109375,0.40836310386657715,1.5150973796844482,0.9759328365325928
1725891194289243600,15.42524365234375,0.5784889459609985,1.5636610984802246,1.0999383926391602
1725891194308093000,15.444093017578124,0.6979129910469055,1.5419753789901733,1.338481068611145
1725891194326942500,15.4629423828125,0.9388991594314575,1.3614648580551147,1.3012183904647827
1725891194345791700,15.481791748046875,1.0482439994812012,1.299156665802002,1.4734822511672974
1725891194364641000,15.50064111328125,1.0949751138687134,1.3064870834350586,1.6097050905227661
1725891194383490600,15.519490478515625,1.12765634059906,1.0093013048171997,1.800600290298462
1725891194402339800,15.53833984375,0.972496747970581,0.8077159523963928,2.0510549545288086
1725891194421189000,15.557189208984376,0.8310815095901489,0.541989803314209,1.9982150793075562
1725891194440038700,15.57603857421875,0.6878337264060974,0.5645917654037476,1.93376886844635
1725891194458888000,15.594887939453125,0.667064368724823,0.39599308371543884,1.784106969833374
1725891194477737200,15.6137373046875,0.7082977294921875,0.3400989770889282,1.559003233909607
1725891194496586800,15.632586669921874,0.6050615906715393,0.2390008419752121,1.4062870740890503
1725891194515436000,15.65143603515625,0.44470956921577454,0.22953243553638458,1.1436152458190918
1725891194534285300,15.670285400390625,0.33536475896835327,0.25671592354774475,0.8781944513320923
1725891194553134800,15.689134765625,0.2666424810886383,0.08872810751199722,0.662864625453949
1725891194571984100,15.707984130859375,0.21135921776294708,0.1513417512178421,0.4469239413738251
1725891194590833400,15.72683349609375,0.11392628401517868,0.05849030241370201,0.25786128640174866
1725891194609683000,15.745682861328126,-0.0616973415017128,-0.025503603741526604,0.06788235157728195
1725891194628532200,15.7645322265625,-0.19669845700263977,0.0847574844956398,-0.20425790548324585
1725891194647381800,15.7833818359375,-0.25870123505592346,0.1156061589717865,-0.4983893036842346
1725891194666231000,15.80223095703125,-0.24556763470172882,0.15073087811470032,-0.6517163515090942
1725891194685080300,15.821080322265624,-0.16249002516269684,0.16294817626476288,-0.7964913249015808
1725891194703929900,15.839929931640626,-0.048563748598098755,-0.11316270381212234,-0.7916043996810913
1725891194722779100,15.858779052734375,-0.0412333719432354,-0.18341214954853058,-0.7347939610481262
1725891194741628400,15.87762841796875,-0.048563748598098755,-0.16814053058624268,-0.7812197208404541
1725891194760478000,15.89647802734375,-0.06719512492418289,-0.09636391699314117,-0.8704059720039368
1725891194779327200,15.9153271484375,-0.0616973415017128,-0.05971203371882439,-0.8963677287101746
1725891194798176500,15.934176513671876,-0.0027488914784044027,-0.15470150113105774,-0.9586759209632874
1725891194817026000,15.953026123046875,0.011606430634856224,-0.3013090491294861,-1.0435861349105835
1725891194835875300,15.971875244140625,-0.001221729558892548,-0.6131555438041687,-1.2063815593719482
1725891194854724900,15.990724853515625,-0.05894844979047775,-0.7667880058288574,-1.3590977191925049
1725891194873574100,16.00957421875,-0.04520399495959282,-0.8446732759475708,-1.378645420074463
1725891194892423400,16.02842333984375,-0.04153880476951599,-1.0068578720092773,-1.352378249168396
1725891194911273000,16.04727294921875,-0.07116574794054031,-1.177594542503357,-1.3917790651321411
1725891194930122200,16.066122314453125,-0.1331685185432434,-1.3471095561981201,-1.44584059715271
1725891194948971500,16.084971435546876,-0.2467893660068512,-1.3773473501205444,-1.5328887701034546
1725891194967821000,16.103821044921876,-0.34574946761131287,-1.437822937965393,-1.4650827646255493
1725891194986670300,16.12267041015625,-0.3900371491909027,-1.5502220392227173,-1.4143810272216797
1725891195005520000,16.141519775390623,-0.39339691400527954,-1.4827215671539307,-1.3392447233200073
1725891195024369200,16.160369140625,-0.3738492429256439,-1.3736821413040161,-1.3135883808135986
1725891195043218700,16.17921875,-0.35582873225212097,-1.0746638774871826,-1.1941642761230469
1725891195062068000,16.19806787109375,-0.39675667881965637,-1.0050252676010132,-1.1437679529190063
1725891195080917200,16.216917236328126,-0.5296197533607483,-0.7191405892372131,-1.1627047061920166
1725891195099766800,16.235766845703125,-0.6655371785163879,-0.1314886510372162,-0.9986875653266907
1725891195118616000,16.254615966796877,-0.6010909676551819,0.25121814012527466,-0.8010727763175964
1725891195137465600,16.273465576171876,-0.43829548358917236,0.5337430834770203,-0.5173261165618896
1725891195156315000,16.29231494140625,-0.3066541254520416,0.7267763614654541,-0.3649153411388397
1725891195175164400,16.311164306640624,-0.29016077518463135,0.7655662894248962,-0.11690424382686615
1725891195194013700,16.330013671875,-0.14477495849132538,0.8071050643920898,0.23159411549568176
1725891195212863000,16.348863037109375,-0.01802051067352295,0.9054543375968933,0.4255436658859253
1725891195231712500,16.36771240234375,0.04886918142437935,0.9515746235847473,0.664391815662384
1725891195250561800,16.386561767578126,0.11423171311616898,0.939357340335846,0.9420298337936401
1725891195269411300,16.405411376953126,0.22235478460788727,1.0722204446792603,1.1084904670715332
1725891195288260600,16.424260498046873,0.4211912751197815,1.2227985858917236,1.2031745910644531
1725891195307110100,16.443110107421877,0.6084213256835938,1.3342814445495605,1.3152682781219482
1725891195325959400,16.46195947265625,0.813060998916626,1.2573124170303345,1.3690242767333984
1725891195344808700,16.48080859375,0.9245438575744629,1.1867575645446777,1.5351794958114624
1725891195363658200,16.499658203125,1.0033453702926636,1.0285435914993286,1.7535637617111206
1725891195382507800,16.5185078125,0.9083559513092041,0.9747874736785889,1.9383503198623657
1725891195401357000,16.537357177734375,0.8720094561576843,0.7939714789390564,1.9921064376831055
1725891195420206300,16.556206298828126,0.8115338683128357,0.6937896609306335,2.001574754714966
1725891195439056000,16.575055908203126,0.7040216326713562,0.5474875569343567,1.9444589614868164
1725891195457905400,16.593905517578126,0.6609556674957275,0.4454731345176697,1.7807471752166748
1725891195476754700,16.612754638671873,0.555276095867157,0.32849252223968506,1.6213114261627197
1725891195495604000,16.63160400390625,0.347582072019577,0.3220784664154053,1.4643192291259766
1725891195514453500,16.65045361328125,0.18356487154960632,0.28787001967430115,1.1824051141738892
1725891195533302800,16.669302734375,0.13500112295150757,0.2838993966579437,0.8870519995689392
1725891195552152300,16.68815234375,0.1185077652335167,0.1776089370250702,0.6457604169845581
1725891195571001600,16.707001708984375,0.06811141967773438,0.09850194305181503,0.4707476794719696
1725891195589851100,16.72585107421875,0.02107483521103859,0.0591011680662632,0.5049561262130737
1725891195608700400,16.744700439453126,-0.1389717310667038,0.12202023714780807,0.2856556475162506
1725891195662878500,16.79887841796875,-0.3066541254520416,0.07742711156606674,-0.5881864428520203
1725891195681728000,16.81772802734375,-0.3640754222869873,-0.1461493968963623,-0.5332086086273193
1725891195700577300,16.836577392578125,-0.2718348205089569,-0.012370011769235134,-0.4214203357696533
1725891195719426800,16.8554267578125,-0.3488037884235382,-0.5090031027793884,-0.7091376781463623
1725891195738276000,16.874276123046876,-0.4404335021972656,-0.7234166264533997,-0.46906778216362
1725891195757125600,16.893125732421876,-0.38728827238082886,-0.7832813858985901,-0.43547022342681885
1725891195775975000,16.911974853515623,-0.13133592903614044,-0.8064942359924316,-0.8966731429100037
1725891195794824400,16.930824462890627,0.08552107214927673,-0.4289797842502594,-1.2583050727844238
1725891195813673700,16.949673828125,0.25900667905807495,-0.337350070476532,-1.1801143884658813
1725891195832523300,16.968523193359374,0.23457208275794983,-0.3214675784111023,-1.09520423412323
1725891195851372500,16.98737255859375,-0.015271619893610477,-0.32879796624183655,-1.2943460941314697
1725891195870222000,17.00622216796875,-0.25473061203956604,-0.35017824172973633,-1.4898228645324707
1725891195889071400,17.0250712890625,-0.29016077518463135,-0.35384342074394226,-1.5289181470870972
1725891195907921000,17.0439208984375,-0.3225366175174713,-0.29153522849082947,-1.582674264907837
1725891195926770400,17.0627705078125,-0.45326167345046997,-0.36972591280937195,-1.582674264907837
1725891195945619700,17.08161962890625,-0.5094612240791321,-0.7496837973594666,-1.5802308320999146
1725891195964469200,17.10046923828125,-0.5888736248016357,-1.1552979946136475,-1.547855019569397
1725891195983318500,17.119318603515627,-0.7116574645042419,-1.428965449333191,-1.5692352056503296
1725891196002168000,17.13816796875,-0.943175196647644,-1.8529056310653687,-1.5276964902877808
1725891196021017300,17.157017333984374,-1.0372483730316162,-1.9616395235061646,-1.2479203939437866
1725891196039867000,17.175866943359374,-1.0818414688110352,-2.60121488571167,-1.500207543373108
1725891196058716200,17.194716064453125,-0.6114756464958191,-2.5211915969848633,-1.7146210670471191
1725891196077565700,17.213565673828125,-0.3549124300479889,-0.7582359313964844,-1.2607485055923462
1725891196096415000,17.2324150390625,-0.18753549456596375,-0.5615374445915222,-1.1623992919921875
1725891196115264500,17.251264404296876,-0.10934479534626007,-0.33368489146232605,-0.9992983937263489
1725891196134114000,17.270114013671876,-0.01893680728971958,0.12935061752796173,-0.666987955570221
1725891196152963300,17.28896337890625,0.0616973415017128,0.3248273432254791,-0.3096320927143097
1725891196171812900,17.307812744140627,0.034208428114652634,0.40973755717277527,0.0025198173243552446
1725891196190662100,17.326662109375,0.14477495849132538,0.494647741317749,0.29940009117126465
1725891196209511700,17.34551171875,0.3090975880622864,0.6345357894897461,0.4606684148311615
1725891196228361000,17.36436083984375,0.389120876789093,0.7176133990287781,0.700738251209259
1725891196247210500,17.38321044921875,0.5406153202056885,1.197142243385315,0.9279799461364746
1725891196266060000,17.40206005859375,0.7324268817901611,1.2875502109527588,1.078863501548767
1725891196284909300,17.420909423828125,0.7428115606307983,1.4384338855743408,1.4081196784973145
1725891196303758800,17.4397587890625,0.9480621218681335,1.5777109861373901,1.5333470106124878
1725891196322608000,17.458608154296876,0.9505056142807007,1.5135701894760132,1.6243658065795898
1725891196341457700,17.477457763671875,0.8008437156677246,1.4433207511901855,1.8363358974456787
1725891196360307000,17.496306884765627,0.8979712128639221,1.1995856761932373,1.81067955493927
1725891196379156500,17.515156494140626,0.9364557266235352,1.1556034088134766,1.92124605178833
1725891196398006000,17.534006103515626,0.8594867587089539,1.032208800315857,2.1209988594055176
1725891196416855300,17.552855224609374,0.8271108865737915,0.7029526233673096,2.2150721549987793
1725891196435704800,17.571704833984374,0.6743947267532349,0.5404626131057739,2.3103668689727783
1725891196454554400,17.590554443359373,0.5955931544303894,0.041386090219020844,2.0458624362945557
1725891196473403600,17.609403564453125,0.5021308660507202,0.24297146499156952,2.004934549331665
1725891196492253200,17.628253173828124,0.41905322670936584,0.2637408673763275,1.6958370208740234
1725891196511102500,17.6471025390625,0.3029889166355133,0.1879936307668686,1.3525309562683105
1725891196529952000,17.665951904296875,0.17653992772102356,0.3565923273563385,1.1008546352386475
1725891196548801500,17.684801513671875,0.12583814561367035,-0.014202605932950974,0.8595631122589111
1725891196567650800,17.70365087890625,-0.04886918142437935,-0.06490438431501389,0.5718457698822021
1725891196586500400,17.722500244140626,-0.28038692474365234,0.03405570983886719,0.35071274638175964
1725891196605349600,17.741349609375,-0.38301220536231995,0.06154462695121765,0.106366828083992
1725891196624199200,17.76019921875,-0.4147771894931793,0.1256854236125946,-0.09766200929880142
1725891196643048700,17.779048583984373,-0.40255987644195557,0.15867212414741516,-0.2687041461467743
1725891196661898000,17.79789794921875,-0.36774060130119324,0.06643154472112656,-0.43485936522483826
1725891196680747500,17.81674755859375,-0.2981020212173462,0.02306014485657215,-0.5277107954025269
1725891196699597000,17.83559716796875,-0.18692462146282196,0.047494735568761826,-0.6547706723213196
1725891196718446300,17.8544462890625,-0.1539379209280014,0.04199695214629173,-0.7134137153625488
1725891196737296000,17.8732958984375,-0.18570289015769958,0.09330959618091583,-0.7176897525787354
1725891196756145200,17.892145263671875,-0.1698204129934311,0.2087630331516266,-0.8636864423751831
1725891196774994700,17.91099462890625,-0.12217295914888382,0.027336198836565018,-0.973642110824585
1725891196793844200,17.92984423828125,-0.16859868168830872,-0.13454297184944153,-1.1196388006210327
1725891196812693500,17.948693603515625,-0.19364413619041443,-0.16997312009334564,-1.3505456447601318
1725891196831543000,17.96754296875,-0.11911863088607788,-0.3104720115661621,-1.419573426246643
1725891196850392600,17.986392578125,-0.07330377399921417,-0.5083922147750854,-1.3664281368255615
1725891196869241900,18.005241943359376,-0.024434590712189674,-0.7869465351104736,-1.400025725364685
1725891196888091400,18.02409130859375,-0.04276053607463837,-0.9317215085029602,-1.4940989017486572
1725891196906941000,18.04294091796875,-0.17348559200763702,-0.9414953589439392,-1.538081169128418
1725891196925790200,18.061790283203123,-0.2522871494293213,-1.1003202199935913,-1.5173118114471436
1725891196944639700,18.0806396484375,-0.31093016266822815,-1.789986491203308,-1.7115668058395386
1725891196963489000,18.099489013671874,-0.3640754222869873,-1.8095341920852661,-1.6058871746063232
1725891196982338600,18.118338623046874,-0.3897317349910736,-2.0722060203552246,-1.52158784866333
1725891197001188000,18.13718798828125,-0.38179048895835876,-2.084423303604126,-1.547855019569397
1725891197020037400,18.156037353515625,-0.36835145950317383,-1.9103268384933472,-1.453170895576477
1725891197038887000,18.174886962890625,-0.3585776388645172,-1.6824743747711182,-1.4140756130218506
1725891197057736400,18.193736328125,-0.37751442193984985,-1.2469277381896973,-1.326111078262329
1725891197076586000,18.2125859375,-0.37751442193984985,-0.8547525405883789,-1.2650245428085327
1725891197095435300,18.231435302734376,-0.48502662777900696,-0.48212501406669617,-1.1795035600662231
1725891197114284800,18.250284912109375,-0.5180133581161499,-0.0795651376247406,-0.9974658489227295
1725891197133134000,18.269134033203127,-0.5021308660507202,0.2643517255783081,-0.5454258918762207
1725891197151983600,18.287983642578126,-0.4361574649810791,0.47265663743019104,-0.14347685873508453
1725891197170833200,18.306833251953126,-0.21868959069252014,0.6412553191184998,0.06482802331447601
1725891197189682400,18.325682373046874,-0.12217295914888382,0.7982475757598877,0.2755763828754425
1725891197208532000,18.344531982421874,-0.002443459117785096,1.022434949874878,0.5840631127357483
1725891197227381500,18.363381591796873,0.1337793916463852,1.3657408952713013,0.822300374507904
1725891197246230800,18.382230712890625,0.3023780584335327,1.4952442646026611,1.0794744491577148
1725891197265080300,18.401080322265624,0.4728093445301056,1.5728241205215454,1.301829218864441
1725891197283929900,18.419929931640624,0.6175842881202698,1.6058107614517212,1.374522089958191
1725891197302779100,18.438779052734375,0.6823359727859497,1.5929826498031616,1.513188362121582
1725891197321628700,18.457628662109375,0.7574723362922668,1.5832087993621826,1.6341396570205688
1725891197340478200,18.476478271484375,0.9046907424926758,1.3626866340637207,1.7019456624984741
1725891197359327700,18.49532763671875,1.0219768285751343,1.1220059394836426,1.8088469505310059
1725891197378177000,18.514177001953126,0.9999856352806091,0.8697187304496765,1.9988259077072144
1725891197397026600,18.533026611328125,0.9798271059989929,0.6363683938980103,2.03486704826355
1725891197415875800,18.551875732421873,0.8833104968070984,0.5807796716690063,2.094731569290161
1725891197434725400,18.570725341796877,0.8258891701698303,0.49342602491378784,2.0812926292419434
1725891197453575000,18.589574951171876,0.7452550530433655,0.38652467727661133,2.018373489379883
1725891197472424400,18.608424560546876,0.5839866995811462,0.3119991719722748,1.84855318069458
1725891197491273700,18.627273681640624,0.39339691400527954,0.24663665890693665,1.5461751222610474
1725891197510123300,18.646123291015623,0.3170388340950012,0.19593487679958344,1.2883901596069336
1725891197528972800,18.664972900390627,0.21319180727005005,0.07559451460838318,0.9817360639572144
1725891197547822000,18.683822021484374,0.020158538594841957,0.0951421856880188,0.7123447060585022
1725891197566671600,18.702671630859374,-0.1539379209280014,0.05543597787618637,0.5394699573516846
1725891197585521200,18.721521240234374,-0.2669478952884674,0.19837833940982819,0.27374377846717834
1725891197604370400,18.740370361328125,-0.32620179653167725,0.10674861818552017,0.08009964227676392
1725891197623220000,18.759219970703125,-0.3597993552684784,0.17394374310970306,-0.1343138962984085
1725891197642069500,18.778069580078125,-0.3445277214050293,0.25274530053138733,-0.3108538091182709
1725891197660919000,18.7969189453125,-0.31459537148475647,0.19532401859760284,-0.478841632604599
1725891197679768300,18.815768310546876,-0.27550002932548523,0.12385283410549164,-0.6083449721336365
1725891197698617900,18.834617919921875,-0.20891575515270233,0.12751802802085876,-0.7641154527664185
1725891197717467400,18.85346728515625,-0.16615521907806396,0.11774418503046036,-0.88995361328125
1725891197736316700,18.872316650390626,-0.17348559200763702,0.08353576064109802,-0.8465822339057922
1725891197755166200,18.891166259765626,-0.20463970303535461,0.1513417512178421,-0.8795689344406128
1725891197774015700,18.910015625,-0.17837251722812653,0.06215549260377884,-0.9944115281105042
1725891197792865000,18.928864990234374,-0.08979712426662445,-0.19135339558124542,-1.1165844202041626
1725891197811714600,18.947714599609377,-0.010384701192378998,-0.490677148103714,-1.2888482809066772
1725891197830564000,18.966564208984376,-0.006108647678047419,-0.6733257174491882,-1.3529890775680542
1725891197849413600,18.98541357421875,-0.07391463965177536,-0.7649554014205933,-1.3731476068496704
1725891197868263000,19.004262939453124,-0.11972949653863907,-0.9433279633522034,-1.4495058059692383
1725891197887112400,19.023112548828124,-0.10995566099882126,-1.134528636932373,-1.4843250513076782
1725891197905962000,19.0419619140625,-0.14538581669330597,-1.2927426099777222,-1.5331941843032837
1725891197924811300,19.060811279296875,-0.2370155304670334,-1.486386775970459,-1.5069270133972168
1725891197943660800,19.079660888671874,-0.33108872175216675,-1.676365613937378,-1.444618821144104
1725891197962510300,19.09851025390625,-0.3958403766155243,-1.957363486289978,-1.4342341423034668
1725891197981359900,19.11735986328125,-0.38728827238082886,-2.216370105743408,-1.5038727521896362
1725891198000209200,19.136209228515625,-0.3329212963581085,-2.1161882877349854,-1.4617230892181396
1725891198019058700,19.15505859375,-0.29077163338661194,-1.9891284704208374,-1.4855468273162842
1725891198037908200,19.173908203125,-0.3066541254520416,-1.5627448558807373,-1.3517674207687378
1725891198056757500,19.192757568359376,-0.28466299176216125,-1.0630574226379395,-1.2454769611358643
1725891198075607000,19.21160693359375,-0.36224281787872314,-0.5560396909713745,-1.1587340831756592
1725891198094456600,19.23045654296875,-0.4563159942626953,-0.17791436612606049,-1.1459059715270996
1725891198113306000,19.24930615234375,-0.5106829404830933,0.2386954128742218,-0.982194185256958
1725891198132155400,19.2681552734375,-0.5271763205528259,0.41034841537475586,-0.6187296509742737
1725891198151005000,19.2870048828125,-0.5015199780464172,0.6046034097671509,-0.18379394710063934
1725891198169854500,19.3058544921875,-0.37201663851737976,0.5936078429222107,0.13324488699436188
1725891198188704000,19.3247041015625,-0.2626718580722809,0.6858484148979187,0.42340564727783203
1725891198207553300,19.34355322265625,-0.07452550530433655,0.8978185057640076,0.7422770857810974
1725891198226402800,19.36240283203125,0.05436696484684944,1.0450369119644165,0.9395864009857178
1725891198245252400,19.38125244140625,0.17531819641590118,1.235015869140625,1.173547625541687
1725891198264101600,19.4001015625,0.37812530994415283,1.4714205265045166,1.4068979024887085
1725891198282951200,19.418951171875,0.6511818766593933,1.5679371356964111,1.4918081760406494
1725891198301800700,19.43780078125,0.7898481488227844,1.531285285949707,1.5565598011016846
1725891198320650200,19.456650146484375,0.8075632452964783,1.662621259689331,1.7263802289962769
1725891198339499500,19.47549951171875,0.8649845123291016,1.5801544189453125,1.7709733247756958
1725891198358349000,19.49434912109375,0.9089667797088623,1.504407286643982,1.8125121593475342
1725891198377198600,19.513198486328125,0.8900299668312073,1.1653772592544556,1.9426263570785522
1725891198396048000,19.5320478515625,0.8344413042068481,0.8965967893600464,2.0819034576416016
1725891198414897400,19.5508974609375,0.7122683525085449,0.7689260244369507,2.1155011653900146
1725891198433747000,19.569746826171876,0.6780598759651184,0.6046034097671509,2.0702970027923584
1725891198452596500,19.588596435546876,0.6261364221572876,0.45677414536476135,1.9249112606048584
1725891198471445800,19.60744580078125,0.5345066785812378,0.42012226581573486,1.6946152448654175
1725891198490295300,19.62629541015625,0.471587598323822,0.47693267464637756,1.4453824758529663
1725891198509144800,19.645144775390627,0.43432486057281494,0.3681987524032593,1.1814888715744019
1725891198527994400,19.663994384765626,0.3646862804889679,0.41218101978302,0.9304234385490417
1725891198546843600,19.68284375,0.2981020212173462,0.15012001991271973,0.6842449307441711
1725891198565693200,19.701693115234374,0.15760311484336853,0.0383317656815052,0.39164069294929504
1725891198584542700,19.720542724609373,0.06108647957444191,-0.05513054504990578,0.19249875843524933
1725891198603392300,19.739392333984377,-0.09834922850131989,-0.09850194305181503,-0.07200568914413452
1725891198622241500,19.758241455078124,-0.23762640357017517,-0.0154243353754282,-0.33773186802864075
1725891198641091000,19.777091064453124,-0.2632827162742615,0.01695149764418602,-0.5692496299743652
1725891198659940600,19.795940673828124,-0.21991132199764252,-0.09850194305181503,-0.7176897525787354
1725891198678790100,19.8147900390625,-0.18325942754745483,-0.24266603589057922,-0.7311288118362427
1725891198697639400,19.833639404296875,-0.1802051067352295,-0.2292270064353943,-0.7891609072685242
1725891198716489000,19.852489013671875,-0.1802051067352295,-0.19440771639347076,-0.871627688407898
1725891198735338500,19.87133837890625,-0.18753549456596375,-0.011759147047996521,-0.8972840309143066
1725891198754188000,19.89018798828125,-0.1178968995809555,-0.18463388085365295,-0.9394336938858032
1725891198773037300,19.909037353515625,-0.08857539296150208,-0.39477136731147766,-1.1239148378372192
1725891198791886800,19.927886962890625,-0.1747073233127594,-0.3868301212787628,-1.3169480562210083
1725891198810736400,19.946736328125,-0.22296564280986786,-0.4448622763156891,-1.3493239879608154
1725891198829586000,19.9655859375,-0.24984370172023773,-0.6177369952201843,-1.3578760623931885
1725891198848435200,19.984435302734376,-0.2889390289783478,-0.7985529899597168,-1.3890300989151
1725891198867284700,20.00328466796875,-0.2987128794193268,-0.9237802624702454,-1.4409536123275757
1725891198886134300,20.02213427734375,-0.287106454372406,-1.2457059621810913,-1.5509092807769775
1725891198904983600,20.040983642578126,-0.29504770040512085,-1.4362958669662476,-1.5936698913574219
1725891198923833000,20.0598330078125,-0.3384190797805786,-1.7050763368606567,-1.5307507514953613
1725891198942682600,20.0786826171875,-0.42821621894836426,-1.9830198287963867,-1.5521310567855835
1725891198961532200,20.0975322265625,-0.4923570156097412,-2.19682240486145,-1.5973349809646606
1725891198980381700,20.116381591796873,-0.4789179861545563,-2.1394011974334717,-1.529529094696045
1725891198999231000,20.13523095703125,-0.4581485986709595,-1.9225441217422485,-1.4763838052749634
1725891199018080500,20.15408056640625,-0.4068359434604645,-1.4931062459945679,-1.3590977191925049
1725891199036930000,20.172929931640624,-0.3970620930194855,-0.8535308241844177,-1.2509746551513672
1725891199055779300,20.191779296875,-0.5143481492996216,-0.4961749315261841,-1.2277618646621704
1725891199074628900,20.21062890625,-0.6493492722511292,-0.2811505198478699,-1.104978084564209
1725891199093478400,20.229478515625,-0.7318159937858582,0.19410228729248047,-0.8203150629997253
1725891199112328000,20.248327880859375,-0.7037162184715271,0.49220430850982666,-0.47700902819633484
1725891199131177500,20.267177490234374,-0.5247328281402588,0.5734493136405945,-0.15325069427490234
1725891199150026800,20.28602685546875,-0.39400777220726013,0.6998983025550842,0.1424078494310379
1725891199168876300,20.304876220703125,-0.26389357447624207,0.8385646343231201,0.3977493345737457
1725891199187725800,20.323725830078125,-0.046425722539424896,1.0474803447723389,0.628045380115509
1725891199206575400,20.342575439453125,0.16554436087608337,1.2227985858917236,0.8528435826301575
1725891199225424600,20.361424560546876,0.2987128794193268,1.39445161819458,1.0599267482757568
1725891199244274200,20.380274169921876,0.3958403766155243,1.4396555423736572,1.2780054807662964
1725891199263123700,20.399123779296875,0.574212908744812,1.5074615478515625,1.3641374111175537
1725891199281973000,20.417972900390627,0.842382550239563,1.4524837732315063,1.3561961650848389
1725891199300822500,20.436822509765626,0.9486730098724365,1.549611210823059,1.568777084350586
1725891199319672000,20.455672119140626,0.9975422024726868,1.5746567249298096,1.7996840476989746
1725891199338521600,20.474521484375,1.0128138065338135,1.3742930889129639,1.9340742826461792
1725891199357371100,20.49337109375,0.9999856352806091,1.170875072479248,2.072129726409912
1725891199376220400,20.512220458984373,1.0372483730316162,0.8373429179191589,2.0513603687286377
1725891199395070000,20.531070068359377,1.0103703737258911,0.6540834903717041,2.116111993789673
1725891199413919500,20.54991943359375,0.9382883310317993,0.4897608458995819,2.088623046875
1725891199432768800,20.568768798828124,0.8637627959251404,0.3529271185398102,2.018373489379883
1725891199451618300,20.587618408203124,0.6621774435043335,0.26190826296806335,1.894368052482605
1725891199470467800,20.6064677734375,0.45875945687294006,0.33887723088264465,1.7312670946121216
1725891199489317400,20.6253173828125,0.4050033390522003,0.23136503994464874,1.4716496467590332
1725891199508166700,20.644166748046874,0.42455101013183594,0.23136503994464874,1.119180679321289
1725891199527016200,20.66301611328125,0.41416633129119873,0.11652245372533798,0.8100830316543579
1725891199545865700,20.68186572265625,0.2706131041049957,0.04566214233636856,0.5125918984413147
1725891199564715300,20.70071533203125,0.01893680728971958,-0.09728021919727325,0.2407570779323578
1725891199583564500,20.719564453125,-0.1899789422750473,0.08170316368341446,0.04650207981467247
1725891199602414000,20.7384140625,-0.3066541254520416,0.07315105944871902,-0.25587597489356995
1725891199621263600,20.757263671875,-0.3451386094093323,0.13240493834018707,-0.5222130417823792
1725891199640113200,20.776113037109376,-0.3182605504989624,0.07498364895582199,-0.7195223569869995
1725891199658962400,20.79496240234375,-0.24801109731197357,0.001679878099821508,-0.8624647259712219
1725891199677812000,20.81381201171875,-0.16676609218120575,-0.15409064292907715,-0.9076687097549438
1725891199696661500,20.83266162109375,-0.14049890637397766,-0.25671592354774475,-0.8942296504974365
1725891199715511000,20.851510986328126,-0.17531819641590118,-0.13759729266166687,-0.9498183727264404
1725891199734360300,20.8703603515625,-0.19669845700263977,-0.09789107739925385,-1.0243438482284546
1725891199753209900,20.8892099609375,-0.18203771114349365,-0.11499529331922531,-1.1141409873962402
1725891199772059400,20.908059326171873,-0.13622283935546875,-0.23167046904563904,-1.2198206186294556
1725891199790909000,20.926908935546876,-0.16859868168830872,-0.3507890999317169,-1.345658779144287
1725891199809759000,20.945759033203124,-0.15027274191379547,-0.5309942364692688,-1.345658779144287
1725891199828608300,20.964608154296876,-0.09957095980644226,-0.9628756046295166,-1.3071743249893188
1725891199847457800,20.983457763671876,-0.1288924664258957,-1.2029454708099365,-1.332830548286438
1725891199866307300,21.002307373046875,-0.21319180727005005,-1.30923593044281,-1.388419270515442
1725891199885156600,21.021156494140627,-0.33658650517463684,-1.4845541715621948,-1.5979459285736084
1725891199904006100,21.040006103515626,-0.3952295184135437,-1.4100285768508911,-1.547855019569397
1725891199922855700,21.058855712890626,-0.4929678738117218,-1.880394458770752,-1.5454115867614746
1725891199941705200,21.077705322265626,-0.5858193039894104,-2.255465507507324,-1.5710678100585938
1725891199960554800,21.0965546875,-0.5754346251487732,-2.179107427597046,-1.4818816184997559
1725891199979404000,21.115404052734377,-0.481361448764801,-2.003178358078003,-1.4043017625808716
1725891199998253600,21.134253662109376,-0.4043924808502197,-1.661094069480896,-1.31633722782135
1725891200017103000,21.15310302734375,-0.32681265473365784,-1.1546871662139893,-1.2955678701400757
1725891200035952400,21.171952392578124,-0.3964512348175049,-0.81810063123703,-1.3346631526947021
1725891200054802000,21.190802001953124,-0.5681042671203613,-0.5120574235916138,-1.315726399421692
1725891200073651500,21.2096513671875,-0.6609556674957275,-0.15775582194328308,-1.0909281969070435
1725891200092501000,21.2285009765625,-0.6310232877731323,0.20387612283229828,-0.7103593945503235
1725891200111350300,21.247350341796874,-0.5503891706466675,0.5319104790687561,-0.43485936522483826
1725891200130199800,21.26619970703125,-0.4465421438217163,0.6626355648040771,-0.16730059683322906
1725891200149049300,21.28504931640625,-0.3591884970664978,0.8019127249717712,0.21571162343025208
1725891200167898600,21.303898681640625,-0.23762640357017517,0.9692896604537964,0.5675697326660156
1725891200186748200,21.322748046875,-0.04581485688686371,1.1898118257522583,0.8449023365974426
1725891200205597700,21.34159765625,0.06536252796649933,1.3431389331817627,1.0538181066513062
1725891200224447200,21.360447265625,0.143553227186203,1.494633436203003,1.2468513250350952
1725891200243296500,21.379296630859375,0.33536475896835327,1.6913318634033203,1.3885719776153564
1725891200262146000,21.39814599609375,0.5894845128059387,1.7316489219665527,1.4496585130691528
1725891200280995600,21.41699560546875,0.7415898442268372,1.6864449977874756,1.6292526721954346
1725891200299845000,21.43584521484375,0.7935133576393127,1.528230905532837,1.8479423522949219
1725891200318694400,21.4546943359375,0.8216131329536438,1.3742930889129639,1.9676718711853027
1725891200337544000,21.4735439453125,0.8429933786392212,1.2221877574920654,2.01898455619812
1725891200356393500,21.4923935546875,0.8784235715866089,0.9497420191764832,2.036088705062866
1725891200375243000,21.511242919921877,0.8564324378967285,0.8000801205635071,2.128329277038574
1725891200394092300,21.53009228515625,0.6982184648513794,0.7261655330657959,2.1857504844665527
1725891200412941800,21.54894189453125,0.5943714380264282,0.6076577305793762,2.1295509338378906
1725891200431791400,21.567791259765624,0.5424479246139526,0.44577857851982117,1.938961148262024
1725891200450641000,21.586640869140624,0.48991355299949646,0.40118545293807983,1.7276020050048828
1725891200469490200,21.605490234375,0.4783071279525757,0.3107774555683136,1.4747039079666138
1725891200488339700,21.624339599609375,0.41355544328689575,0.28206682205200195,1.1546107530593872
1725891200507189200,21.643189208984374,0.30543237924575806,0.21059563755989075,0.8589522242546082
1725891200526038500,21.66203857421875,0.23396120965480804,0.1000291109085083,0.5755109786987305
1725891200544888000,21.68088818359375,0.0873536616563797,0.009010255336761475,0.26213735342025757
1725891200563737600,21.699737548828125,-0.08918625861406326,0.04810560122132301,-0.015195261687040329
1725891200582587100,21.718587158203125,-0.18387030065059662,0.05543597787618637,-0.23021966218948364
1725891200601436400,21.7374365234375,-0.21868959069252014,0.145843967795372,-0.469678670167923
1725891200620286000,21.756285888671876,-0.18692462146282196,0.07376192510128021,-0.6052906513214111
1725891200639135500,21.775135498046875,-0.13561198115348816,-0.0691804364323616,-0.6785944104194641
1725891200657985000,21.793985107421875,-0.11178825795650482,-0.17913609743118286,-0.7531198859214783
1725891200676834300,21.812834228515626,-0.08002328872680664,-0.2084576040506363,-0.8093194961547852
1725891200695683800,21.831683837890626,-0.01954767294228077,-0.33979353308677673,-0.806876003742218
1725891200714533400,21.850533447265626,0.013439024798572063,-0.43203410506248474,-0.8203150629997253
1725891200733382700,21.869382568359374,-0.004886918235570192,-0.29336780309677124,-0.9351575970649719
1725891200752232200,21.888232177734373,-0.05192350596189499,-0.1821904182434082,-1.1184170246124268
1725891200771081700,21.907081787109377,-0.14660754799842834,-0.21639885008335114,-1.3334414958953857
1725891200789931300,21.92593115234375,-0.22479823231697083,-0.24022257328033447,-1.4562252759933472
1725891200808780500,21.944780517578124,-0.18203771114349365,-0.44180795550346375,-1.4782164096832275
1725891200827630000,21.963630126953124,-0.17592905461788177,-0.6751583218574524,-1.4714969396591187
1725891200846479600,21.982479736328123,-0.22968515753746033,-1.1296416521072388,-1.5948915481567383
1725891200865329000,22.001328857421875,-0.277332603931427,-1.3568834066390991,-1.722562313079834
1725891200884178400,22.020178466796875,-0.3237583339214325,-1.4680607318878174,-1.6431498527526855
1725891200903028000,22.039028076171874,-0.38667741417884827,-1.778380036354065,-1.6266565322875977
1725891200921877200,22.057877197265626,-0.4465421438217163,-1.90299654006958,-1.633376121520996
1725891200940726800,22.076726806640625,-0.4563159942626953,-1.9628612995147705,-1.5722895860671997
1725891200959576300,22.095576416015625,-0.5241219997406006,-1.9946261644363403,-1.5264747142791748
1725891200978425900,22.11442578125,-0.5375609993934631,-1.7246240377426147,-1.418351650238037
1725891200997275100,22.133275146484376,-0.4923570156097412,-1.4662281274795532,-1.3548216819763184
1725891201016124700,22.152124755859376,-0.5870410799980164,-1.1045962572097778,-1.2760201692581177
1725891201034974200,22.17097412109375,-0.6676751971244812,-0.6782126426696777,-1.1410191059112549
1725891201053823500,22.189823486328127,-0.7330377101898193,-0.07284562289714813,-1.0542762279510498
1725891201072673000,22.208673095703126,-0.7269290685653687,0.14889828860759735,-0.9437097311019897
1725891201091522600,22.2275224609375,-0.7531962990760803,0.4341721534729004,-0.5038870573043823
1725891201110371800,22.246371826171874,-0.657290518283844,0.6375901103019714,-0.129426971077919
1725891201129221400,22.265221435546874,-0.5131264328956604,0.6601921319961548,0.0703258067369461
1725891201148071000,22.28407080078125,-0.33108872175216675,0.8281798958778381,0.45761406421661377
1725891201166920200,22.302920166015625,-0.20647229254245758,1.0432043075561523,0.7245619893074036
1725891201185769700,22.321769775390624,-0.0769689604640007,1.1727076768875122,0.9945642352104187
1725891201204619300,22.340619384765624,0.027488915249705315,1.2954914569854736,1.246240496635437
1725891201223468800,22.35946875,0.15088360011577606,1.532507061958313,1.4747039079666138
1725891201242318000,22.378318115234375,0.38179048895835876,1.6265802383422852,1.580383539199829
1725891201261167600,22.397167724609375,0.500298261642456,1.732259750366211,1.7398192882537842
1725891201280017200,22.41601708984375,0.6603448390960693,1.7664681673049927,1.8436663150787354
1725891201298866400,22.434866455078126,0.711046576499939,1.5819870233535767,1.9462915658950806
1725891201317716000,22.453716064453126,0.7263182401657104,1.392619013786316,2.074573040008545
1725891201336565500,22.4725654296875,0.7965676784515381,1.1452187299728394,2.1014511585235596
1725891201355414800,22.491414794921877,0.8106175661087036,0.7176133990287781,2.0171518325805664
1725891201374264300,22.510264404296876,0.7690787315368652,0.7597630620002747,2.0794601440429688
1725891201393113900,22.52911376953125,0.8026763200759888,0.5459604263305664,2.0825142860412598
1725891201411963100,22.547963134765624,0.8619301915168762,0.4702131748199463,1.8699334859848022
1725891201430812700,22.566812744140623,0.6609556674957275,0.36880961060523987,1.7679190635681152
1725891201449662200,22.585662109375,0.45937031507492065,0.1977674663066864,1.5101341009140015
1725891201468511500,22.604511474609374,0.4355465769767761,0.360868364572525,1.191873550415039
1725891201487361000,22.623361083984374,0.44348782300949097,0.056657709181308746,0.9194278717041016
1725891201506210600,22.64221044921875,0.3170388340950012,0.09330959618091583,0.6390409469604492
1725891201525059800,22.661059814453125,0.18570289015769958,0.01695149764418602,0.446007639169693
1725891201543909400,22.679909423828125,0.01649334840476513,0.0694858655333519,0.13813179731369019
1725891201562759000,22.698759033203125,-0.08124501258134842,-0.007483093533664942,-0.057955797761678696
1725891201581608200,22.717608154296876,-0.17653992772102356,0.060933761298656464,-0.2375500351190567
1725891201600457700,22.736457763671876,-0.19303326308727264,0.18493930995464325,-0.39881834387779236
1725891201619307300,22.755307373046875,-0.15027274191379547,0.10430516302585602,-0.5448150038719177
1725891201638156500,22.774156494140627,-0.1178968995809555,0.015729768201708794,-0.640720784664154
1725891201657006000,22.793006103515626,-0.16126830875873566,-0.09728021919727325,-0.7231875658035278
1725891201675855600,22.811855712890626,-0.258395791053772,0.10247256606817245,-0.8294780254364014
1725891201694705000,22.830704833984374,-0.19914191961288452,0.08659008145332336,-0.9021708965301514
1725891201713554400,22.849554443359374,-0.17837251722812653,-0.02458730712532997,-0.9033926725387573
1725891201732404000,22.868404052734373,-0.22479823231697083,-0.11316270381212234,-0.9852485060691833
1725891201751253200,22.887253173828125,-0.2009745091199875,-0.2805396616458893,-1.1746165752410889
1725891201770102800,22.906102783203124,-0.10934479534626007,-0.5309942364692688,-1.2961786985397339
1725891201788952300,22.924952392578124,-0.02871064469218254,-0.7527381181716919,-1.3994148969650269
1725891201807801600,22.943801513671875,-0.06963858753442764,-0.9628756046295166,-1.4537818431854248
1725891201826651100,22.962651123046875,-0.19364413619041443,-1.225547432899475,-1.5704569816589355
1725891201845500700,22.981500732421875,-0.26878049969673157,-1.3361139297485352,-1.5386919975280762
1725891201864350000,23.000349853515626,-0.22663083672523499,-1.2750275135040283,-1.4226276874542236
1725891201883199500,23.019199462890626,-0.31642794609069824,-1.3923135995864868,-1.6156610250473022
1725891201902049000,23.038049072265625,-0.4764745235443115,-1.7246240377426147,-1.7360013723373413
1725891201920898300,23.056898193359373,-0.5442805290222168,-1.852294683456421,-1.7353904247283936
1725891201939747800,23.075747802734377,-0.5412262082099915,-1.8608468770980835,-1.6431498527526855
1725891201958597000,23.09459716796875,-0.6017017960548401,-1.7887648344039917,-1.6187152862548828
1725891201977446700,23.11344677734375,-0.5900954008102417,-1.4448479413986206,-1.4678317308425903
1725891201996296200,23.132296142578124,-0.5204567909240723,-1.1797325611114502,-1.307785153388977
1725891202015145500,23.1511455078125,-0.5827649831771851,-0.7191405892372131,-1.1837795972824097
1725891202033995000,23.1699951171875,-0.7037162184715271,-0.4912880063056946,-1.204548954963684
1725891202052844500,23.188844482421874,-0.7984002828598022,-0.04046979174017906,-0.9241620302200317
1725891202071693800,23.20769384765625,-0.6811142563819885,0.2735147178173065,-0.4635699987411499
1725891202090543400,23.22654345703125,-0.500298261642456,0.6076577305793762,-0.1251509189605713
1725891202109392600,23.245392578125,-0.36835145950317383,0.651639997959137,0.1014799103140831
1725891202128242200,23.2642421875,-0.2009745091199875,0.9039271473884583,0.3568213880062103
1725891202147091700,23.283091796875,-0.053145237267017365,1.0328196287155151,0.609108567237854
1725891202165941000,23.30194091796875,0.09162971377372742,1.159879446029663,0.877278208732605
1725891202184790500,23.32079052734375,0.19608759880065918,1.1617120504379272,1.0648136138916016
1725891202203640000,23.33964013671875,0.24862197041511536,1.343749761581421,1.2382992506027222
1725891202222489300,23.3584892578125,0.536339282989502,1.5923718214035034,1.3354268074035645
1725891202241339000,23.3773388671875,0.7623592615127563,1.6699515581130981,1.3977349996566772
1725891202260188200,23.396188232421874,0.813060998916626,1.7121012210845947,1.7129411697387695
1725891202279037700,23.41503759765625,0.9950987100601196,1.630245327949524,1.8907028436660767
1725891202297887200,23.43388720703125,1.08978271484375,1.3602432012557983,1.9188026189804077
1725891202316736500,23.452736572265625,1.1410953998565674,1.060308575630188,1.959730625152588
1725891202335586000,23.4715859375,1.2034035921096802,0.6821832656860352,1.9908846616744995
1725891202354435600,23.490435546875,1.204014539718628,0.5282453298568726,2.033034324645996
