time,seconds_elapsed,z,y,x
1725892088938993400,0.066993408203125,-0.6765327453613281,-0.2087630331516266,-0.7250201106071472
1725892088957841400,0.08584130859375,-0.41325002908706665,0.09361502528190613,-0.7066941857337952
1725892088976690000,0.10468994140625,-0.1380554437637329,0.8776599764823914,-0.797713041305542
1725892088995538200,0.1235380859375,-0.21135921776294708,2.3825254440307617,-0.6837867498397827
1725892089014386400,0.142386474609375,-0.35277441143989563,2.1928517818450928,-0.432721346616745
1725892089033234700,0.161234619140625,-0.2049451321363449,0.8770490884780884,0.10178534686565399
1725892089052083000,0.1800830078125,0.272751122713089,-0.22769984602928162,0.48327040672302246
1725892089070931200,0.19893115234375,0.45875945687294006,-0.8660535216331482,0.6497310400009155
1725892089089779500,0.217779541015625,0.4880809485912323,-1.2145519256591797,0.5690969228744507
1725892089108627700,0.236627685546875,0.6075050234794617,-0.6714931130409241,0.08132137358188629
1725892089127476200,0.255476318359375,0.6591231226921082,-0.06887500733137131,-0.40431612730026245
1725892089146324200,0.27432421875,0.6261364221572876,-0.37858346104621887,-0.6981421113014221
1725892089165172700,0.2931728515625,0.5021308660507202,-0.2176205813884735,-0.7955750226974487
1725892089184021000,0.31202099609375,-0.1441640853881836,1.366351842880249,-0.3514763116836548
1725892089202869200,0.330869140625,-1.173471212387085,1.8208352327346802,0.007101302966475487
1725892089221717500,0.349717529296875,-0.7901535630226135,1.1766782999038696,0.1323285847902298
1725892089240565800,0.368565673828125,0.17165300250053406,1.2081378698349,0.20624321699142456
1725892089259414000,0.3874140625,1.1459823846817017,1.3822343349456787,0.41241008043289185
1725892089278262500,0.406262451171875,1.8142683506011963,1.343749761581421,0.9624938368797302
1725892089297110800,0.42511083984375,1.7531819343566895,1.0254892110824585,1.8073197603225708
1725892089315959000,0.443958984375,1.361006736755371,0.48304131627082825,2.5562400817871094
1725892089334807300,0.462807373046875,1.4767656326293945,-2.649473190307617,2.4224605560302734
1725892089353655600,0.481655517578125,1.627649188041687,-4.22794771194458,2.89099383354187
1725892089372503800,0.50050390625,1.4957023859024048,-3.476278781890869,4.6408162117004395
1725892089391352000,0.51935205078125,1.0958913564682007,-1.4604250192642212,6.376588344573975
1725892089410200600,0.53820068359375,0.6716458201408386,-1.9225441217422485,6.999364852905273
1725892089429048800,0.557048828125,0.9929606914520264,-2.568228244781494,7.2925801277160645
1725892089447897000,0.57589697265625,2.092822790145874,-1.077412724494934,7.778217792510986
1725892089466745300,0.594745361328125,3.859138250350952,0.5774199366569519,7.3319807052612305
1725892089485593600,0.613593505859375,5.0756754875183105,0.7814487814903259,5.653629779815674
1725892089504441900,0.63244189453125,4.9944305419921875,0.21029019355773926,3.978027820587158
1725892089523290400,0.651290283203125,4.564687252044678,0.5917752385139465,3.102353096008301
1725892089542138600,0.670138671875,4.293157577514648,1.141248106956482,2.6744422912597656
1725892089560987000,0.68898681640625,3.8411176204681396,1.1647664308547974,2.417879104614258
1725892089579835100,0.707835205078125,3.3179121017456055,0.8321505188941956,2.013181209564209
1725892089598683400,0.726683349609375,3.1132724285125732,0.6265945434570312,1.2496002912521362
1725892089617531600,0.74553173828125,3.0246970653533936,0.22128576040267944,0.48510298132896423
1725892089636380200,0.764380126953125,2.754694700241089,0.42745262384414673,0.3836994469165802
1725892089655228400,0.783228515625,2.522871494293213,0.8859066367149353,0.4912116527557373
1725892089674076700,0.80207666015625,2.042120933532715,0.6751583218574524,0.4041634202003479
1725892089692925000,0.820925048828125,1.211039423942566,-1.6278018951416016,1.5480077266693115
1725892089711773200,0.839773193359375,0.4156934916973114,0.07773254066705704,0.7810669541358948
1725892089730621400,0.858621337890625,-1.0625993013381958,0.9008728265762329,-0.9201914072036743
1725892089749470000,0.877469970703125,-1.0943642854690552,-0.03802633285522461,-0.519769549369812
1725892089768318200,0.896318115234375,-0.942258894443512,-0.7747292518615723,1.0901645421981812
1725892089787166500,0.91516650390625,-0.6206386089324951,-1.1128429174423218,1.8907028436660767
1725892089806014700,0.9340146484375,0.1957821547985077,-1.1910336017608643,1.6762893199920654
1725892089824863000,0.952863037109375,-0.3952295184135437,-0.6717985272407532,1.4652355909347534
1725892089843711500,0.97171142578125,-0.9691369533538818,-0.4381427764892578,0.7248674035072327
1725892089862559700,0.990559814453125,-0.7785471677780151,-0.18127411603927612,0.5119810700416565
1725892089881408000,1.009407958984375,-0.49571678042411804,-0.1055268943309784,0.9902881383895874
1725892089900256300,1.02825634765625,-0.2977965772151947,-0.145843967795372,1.6378048658370972
1725892089919104800,1.047104736328125,-0.30054548382759094,-1.4479022026062012,2.254167318344116
1725892089937952800,1.065952880859375,-0.471587598323822,-1.808007001876831,2.926424026489258
1725892089956801300,1.08480126953125,-0.3857611119747162,-2.0215041637420654,2.1900265216827393
1725892089975649500,1.1036494140625,-0.7516691088676453,0.38957902789115906,0.016569707542657852
1725892089994497800,1.122497802734375,-1.9147557020187378,2.188270330429077,-1.1746165752410889
1725892090013346300,1.14134619140625,-1.6157373189926147,-0.2338084876537323,-2.2805871963500977
1725892090032194600,1.160194580078125,-0.43371400237083435,-1.3642138242721558,0.4811323583126068
1725892090051042800,1.179042724609375,1.1572833061218262,-3.322035312652588,4.426402568817139
1725892090069891000,1.19789111328125,0.03481929376721382,-1.3034327030181885,0.6986002326011658
1725892090088739300,1.2167392578125,-1.1829396486282349,0.44119709730148315,-2.5139377117156982
1725892090107587800,1.235587890625,-1.0943642854690552,1.9478950500488281,-2.1315362453460693
1725892090126436000,1.25443603515625,-0.5024362802505493,0.10980294644832611,-0.982805073261261
1725892090145284400,1.273284423828125,0.5821541547775269,-0.5795579552650452,0.6937133073806763
1725892090164132600,1.292132568359375,0.34147340059280396,-0.540768027305603,0.8778890371322632
1725892090182981000,1.310981201171875,0.28924447298049927,-0.020922118797898293,-1.008766770362854
1725892090201829400,1.329829345703125,-0.2516762912273407,0.6568323373794556,-0.8762091398239136
1725892090220677600,1.348677734375,-0.9682206511497498,1.4170535802841187,-0.6636282205581665
1725892090239526000,1.36752587890625,-1.2424989938735962,1.7542508840560913,-2.3691627979278564
1725892090258374400,1.38637451171875,0.7538071274757385,-0.12812888622283936,-0.4079813063144684
1725892090277222700,1.40522265625,0.44379326701164246,0.2280052751302719,1.2260819673538208
1725892090296071000,1.42407080078125,-0.27855435013771057,-0.045967575162649155,-0.23510658740997314
1725892090314919400,1.44291943359375,-0.3228420317173004,1.446069598197937,-0.9983821511268616
1725892090333767700,1.461767578125,-0.3399462401866913,0.9781472086906433,-0.9238566160202026
1725892090352616000,1.480615966796875,0.10720676928758621,0.8309288024902344,-0.4128682315349579
1725892090371464400,1.49946435546875,0.40317076444625854,-0.7872520089149475,0.588949978351593
1725892090390312400,1.5183125,0.43401941657066345,-0.7857248187065125,1.0440442562103271
1725892090409161000,1.537160888671875,-0.7538071274757385,0.6140718460083008,-0.2842811942100525
1725892090428009200,1.55600927734375,-0.8252783417701721,-0.39141160249710083,0.38186684250831604
1725892090446857500,1.574857421875,-0.22968515753746033,-0.21456626057624817,1.1204023361206055
1725892090465706000,1.5937060546875,-0.21655155718326569,-0.18890993297100067,-0.3288743197917938
1725892090484554200,1.61255419921875,0.07513637095689774,-0.5554288029670715,-1.084208607673645
1725892090503402500,1.631402587890625,-0.3329212963581085,0.29214608669281006,0.019929463043808937
1725892090522251000,1.6502509765625,-1.2718204259872437,0.4225656986236572,-0.011224640533328056
1725892090541099300,1.669099365234375,-0.7363975048065186,-2.1421501636505127,-0.7732784748077393
1725892090559947500,1.687947509765625,0.4401280879974365,-0.4589121639728546,-0.3554469347000122
1725892090578796000,1.706796142578125,0.5943714380264282,2.0810635089874268,-1.6517020463943481
1725892090597644300,1.725644287109375,0.7134900689125061,-0.3663661479949951,-2.7808854579925537
1725892090616492500,1.744492431640625,0.6194168925285339,-1.2148573398590088,-0.6608793139457703
1725892090635341000,1.763341064453125,0.3338375985622406,0.37064221501350403,-0.06223184987902641
1725892090654189300,1.782189208984375,0.2831358313560486,0.17547090351581573,-0.17218750715255737
1725892090673037600,1.80103759765625,-0.42424559593200684,1.0936006307601929,-0.5884918570518494
1725892090691886600,1.819886474609375,-0.5036579966545105,0.7759509682655334,-1.472413182258606
1725892090710734300,1.838734375,0.41294458508491516,-0.3605629503726959,-0.15416699647903442
1725892090729582600,1.85758251953125,0.6453786492347717,-0.43020153045654297,1.2599849700927734
1725892090748431000,1.87643115234375,-0.347582072019577,-0.6085740327835083,0.8131373524665833
1725892090767279400,1.895279296875,0.1585194170475006,0.0798705667257309,-0.7482330203056335
1725892090786128000,1.9141279296875,0.5097666382789612,0.3452913165092468,-1.2014946937561035
1725892090804976000,1.93297607421875,0.22418737411499023,0.5633700489997864,-0.6853139400482178
1725892090823824400,1.951824462890625,-0.2202167510986328,0.1971566081047058,-0.8459713459014893
1725892090842673000,1.9706728515625,-0.02412915788590908,0.9259182810783386,-1.6367357969284058
1725892090861521200,1.989521240234375,0.054672397673130035,1.800676703453064,-2.2998294830322266
1725892090880369400,2.008369384765625,1.2092068195343018,-0.7072287201881409,-0.6566032767295837
1725892090899218000,2.027218017578125,1.4208714962005615,-0.6391173005104065,0.3687332570552826
1725892090918066200,2.046066162109375,-0.3643808364868164,0.7133373618125916,-0.4324159026145935
1725892090936914400,2.06491455078125,-0.1847866028547287,0.8281798958778381,-1.908570647239685
1725892090955763000,2.083762939453125,-0.6429351568222046,0.38469210267066956,-2.1633012294769287
1725892090974611200,2.102611083984375,0.7571669220924377,0.22708898782730103,-0.6724857687950134
1725892090993459700,2.121459716796875,1.1197150945663452,-1.0548107624053955,1.7666972875595093
1725892091012308000,2.140307861328125,-0.21288637816905975,0.5936078429222107,0.18669554591178894
1725892091031156200,2.15915625,-0.9221003651618958,0.1925751268863678,-1.4974586963653564
1725892091050004700,2.178004638671875,0.33658650517463684,-0.14431680738925934,-1.406745195388794
1725892091068853000,2.19685302734375,0.9196569323539734,-0.3052796721458435,1.1485021114349365
1725892091087701500,2.215701416015625,-0.3488037884235382,-0.18493930995464325,0.9209550023078918
1725892091106549800,2.2345498046875,-1.368031620979309,-0.14217877388000488,-1.1196388006210327
1725892091125398000,2.25339794921875,-0.05711585655808449,-0.21059563755989075,-0.8203150629997253
1725892091144246500,2.27224658203125,1.5201369524002075,-0.3379609286785126,1.5852704048156738
1725892091163094800,2.2910947265625,0.0030543238390237093,0.25579962134361267,1.551061987876892
1725892091181943300,2.309943359375,-0.9966259002685547,-0.12018764764070511,-1.3251948356628418
1725892091200791600,2.32879150390625,-0.14508038759231567,-1.0905463695526123,-0.9721149206161499
1725892091219640000,2.34764013671875,1.1499528884887695,1.4833323955535889,0.4857138693332672
1725892091238488300,2.36648828125,-0.6536253094673157,1.1103994846343994,-0.3569740951061249
1725892091257336600,2.385336669921875,-0.8943060636520386,-0.48212501406669617,-0.5719985365867615
1725892091276185000,2.40418505859375,1.580001711845398,-0.2997818887233734,1.837252140045166
1725892091295033300,2.423033447265625,0.05833758786320686,-0.4198168218135834,0.5089266896247864
1725892091313881900,2.4418818359375,-0.48655378818511963,-0.5432115197181702,-0.7928261160850525
1725892091332730000,2.460730224609375,0.03145953640341759,-0.3871355652809143,-0.49136435985565186
1725892091351578600,2.47957861328125,-0.012522728182375431,-0.5068650245666504,-0.9785290360450745
1725892091370427000,2.498427001953125,-0.5693259835243225,0.06979130208492279,-3.198106288909912
1725892091389275400,2.517275390625,-0.4923570156097412,0.4247037470340729,-2.7359869480133057
1725892091408123600,2.53612353515625,-0.721431314945221,-1.5383102893829346,-0.6773726940155029
1725892091426972200,2.55497216796875,-1.3225222826004028,0.2493855506181717,-0.8123738169670105
1725892091445820400,2.5738203125,0.1026252806186676,-0.5801688432693481,-2.0814454555511475
1725892091464669000,2.5926689453125,1.5121957063674927,-0.8468112945556641,-2.1116831302642822
1725892091483517200,2.61151708984375,1.4269801378250122,0.9793689846992493,-2.5252387523651123
1725892091502365400,2.630365478515625,0.2974911332130432,1.1965314149856567,-2.4537675380706787
1725892091521214000,2.6492138671875,0.3084867000579834,-0.8938478827476501,-0.8279508352279663
1725892091540062200,2.668062255859375,0.6527090072631836,-1.0713040828704834,-0.1816559135913849
1725892091558910700,2.68691064453125,0.05497783049941063,0.12690715491771698,-0.4382191300392151
1725892091577759000,2.705759033203125,-0.25992295145988464,0.23716825246810913,-0.5057196617126465
1725892091596607500,2.724607421875,-0.22510367631912231,0.6785180568695068,0.106366828083992
1725892091615455700,2.743455810546875,0.7388409376144409,-0.08017600327730179,1.3687188625335693
1725892091634304300,2.76230419921875,0.12736530601978302,-2.665966510772705,1.2037854194641113
1725892091653152500,2.781152587890625,-0.8723149299621582,0.8248201608657837,-0.38446301221847534
1725892091672001000,2.8000009765625,-0.6575959324836731,1.2722786664962769,-0.8013782501220703
1725892091690849300,2.818849365234375,-0.4718930423259735,-1.1669044494628906,0.7276163101196289
1725892091709697800,2.83769775390625,-0.032070402055978775,1.0315978527069092,0.4450913369655609
1725892091728546000,2.856546142578125,0.5998691916465759,0.8697187304496765,0.37697991728782654
1725892091747394600,2.87539453125,0.8823941946029663,-1.1742348670959473,0.8271872401237488
1725892091766242800,2.894242919921875,0.48930269479751587,-1.0752747058868408,1.5006656646728516
1725892091785091300,2.91309130859375,0.7046325206756592,0.8804088830947876,0.5513818264007568
1725892091803939600,2.931939697265625,1.174692988395691,1.4268274307250977,-1.1828632354736328
1725892091822788000,2.9507880859375,0.4276053309440613,0.9350812435150146,-2.0704498291015625
1725892091841636400,2.96963623046875,0.48105600476264954,0.9918916821479797,-0.7784708142280579
1725892091860484900,2.98848486328125,0.9957095980644226,0.41462448239326477,0.13385574519634247
1725892091879333400,3.00733349609375,0.6973021626472473,0.14706569910049438,0.3882809281349182
1725892091898181600,3.026181640625,0.430659681558609,0.449138343334198,-0.13217586278915405
1725892091917030100,3.045030029296875,0.23793183267116547,-0.4384481906890869,-0.9489020705223083
1725892091935878400,3.06387841796875,0.10079269111156464,-0.3480401933193207,-0.4583776593208313
1725892091954727000,3.082726806640625,0.4725039005279541,0.7414371371269226,-0.03535379841923714
1725892091973575200,3.1015751953125,1.0836740732192993,0.44119709730148315,-0.9314924478530884
1725892091992423700,3.120423583984375,0.2458730787038803,0.02153298258781433,-2.1348960399627686
1725892092011272000,3.13927197265625,-0.42791077494621277,0.004123337101191282,-0.8514691591262817
1725892092030120400,3.158120361328125,0.03451386094093323,0.7637336850166321,-0.7460949420928955
1725892092048968700,3.17696875,0.20616686344146729,0.8214604258537292,-1.655367136001587
1725892092067817200,3.195817138671875,0.09285144507884979,0.2023489624261856,-0.2693150043487549
1725892092086665500,3.21466552734375,-0.013133592903614044,0.16447533667087555,0.4970148503780365
1725892092105514000,3.233513916015625,0.2214384824037552,-0.2283107042312622,0.22395829856395721
1725892092124362500,3.252362548828125,0.07544180005788803,-0.0743727833032608,0.06727148592472076
1725892092143210800,3.271210693359375,0.016187917441129684,1.3666572570800781,-0.6813433170318604
1725892092162059300,3.290059326171875,0.6346884965896606,1.9601123332977295,-0.011530072428286076
1725892092180907800,3.30890771484375,0.24709481000900269,0.4033234715461731,-0.8025999665260315
1725892092199756000,3.327756103515625,0.3454440236091614,1.0093013048171997,-0.38873907923698425
1725892092218604500,3.3466044921875,0.4453204274177551,2.38619065284729,0.6894372701644897
1725892092237452800,3.365452880859375,0.21227550506591797,3.098764419555664,0.7425824999809265
1725892092256301300,3.38430126953125,-0.953559935092926,-0.8727730512619019,0.812526524066925
1725892092275149600,3.403149658203125,-2.322507858276367,-1.1919498443603516,1.257236123085022
1725892092293998000,3.421998046875,-3.665494203567505,0.8016073107719421,1.89589524269104
1725892092312846600,3.4408466796875,-4.221381187438965,-0.4222602844238281,2.3729805946350098
1725892092331694800,3.45969482421875,-3.870133876800537,1.5233440399169922,3.983220100402832
1725892092350543400,3.47854345703125,-3.654193162918091,2.780809164047241,3.8836491107940674
1725892092369391600,3.4973916015625,-3.043022871017456,3.6259405612945557,2.6121342182159424
1725892092388240100,3.516240234375,-2.3646576404571533,4.792692184448242,0.7218130826950073
1725892092407088600,3.535088623046875,-2.1083998680114746,5.271305084228516,-1.7082070112228394
1725892092425937000,3.55393701171875,-2.174067735671997,5.626522541046143,-3.9619925022125244
1725892092444785400,3.572785400390625,-2.3927574157714844,5.7908453941345215,-5.59636116027832
1725892092463634000,3.591634033203125,-2.5161521434783936,5.094459533691406,-6.740816593170166
1725892092482482200,3.610482177734375,-2.450484037399292,3.598451614379883,-7.21668004989624
1725892092501330700,3.62933056640625,-2.053727388381958,1.944535255432129,-6.756699085235596
1725892092520179000,3.648178955078125,-1.9730932712554932,1.3519964218139648,-5.366981506347656
1725892092539027500,3.66702734375,-2.2452335357666016,1.1220059394836426,-3.522170066833496
1725892092557876000,3.6858759765625,-2.5295910835266113,0.6727148294448853,-1.6422336101531982
1725892092576724200,3.70472412109375,-2.2724170684814453,-0.2900080680847168,-0.042073313146829605
1725892092595572700,3.72357275390625,-1.4498875141143799,-1.1210895776748657,1.2789217233657837
1725892092614421000,3.7424208984375,-0.5598575472831726,-1.7194316387176514,2.374202251434326
1725892092633269500,3.76126953125,0.05222893878817558,-1.253341794013977,2.622213363647461
1725892092652118000,3.780117919921875,0.9767727851867676,-1.0352630615234375,2.055025577545166
1725892092670966500,3.798966552734375,1.6099340915679932,-1.0181589126586914,1.5055526494979858
1725892092689814800,3.817814697265625,1.6591087579727173,-0.7096721529960632,1.2880847454071045
1725892092708663300,3.836663330078125,1.3891065120697021,-0.4454731345176697,1.1029927730560303
1725892092727511600,3.855511474609375,1.138346552848816,-0.4390590488910675,0.720285952091217
1725892092746360000,3.874360107421875,1.1820234060287476,-0.4653262495994568,0.23403756320476532
1725892092765208600,3.89320849609375,1.285259485244751,-0.1055268943309784,0.044669486582279205
1725892092784056800,3.912056884765625,1.2073742151260376,0.3361283540725708,-0.05001455545425415
1725892092802905300,3.9309052734375,1.1508692502975464,0.6409498453140259,-0.2680932879447937
1725892092821753900,3.94975390625,1.2336413860321045,0.930499792098999,-0.5026653409004211
1725892092840602400,3.968602294921875,1.229365348815918,0.9118683934211731,-0.5035816431045532
1725892092859450600,3.98745068359375,0.998763918876648,0.6287325620651245,-0.2680932879447937
1725892092878299100,4.006299072265625,0.5497782826423645,0.41095927357673645,-0.2885572612285614
1725892092897147400,4.0251474609375,0.2205221801996231,0.44761115312576294,-0.6370556354522705
1725892092915996000,4.043995849609375,-0.006414080038666725,0.1776089370250702,-1.2754093408584595
1725892092934844400,4.062844482421875,-0.017715077847242355,-0.15409064292907715,-1.8297691345214844
1725892092953692700,4.081692626953125,0.4740310609340668,-0.5856665968894958,-1.9039891958236694
1725892092972541200,4.100541259765625,0.6814196705818176,-0.6201804876327515,-1.5420517921447754
1725892092991389700,4.1193896484375,0.5390881896018982,-1.0166317224502563,-1.1364375352859497
1725892093010238200,4.13823828125,0.6860011219978333,-1.6073379516601562,-1.0093777179718018
1725892093029086500,4.15708642578125,1.590997338294983,-2.5074472427368164,-1.2412009239196777
1725892093047935000,4.17593505859375,2.2788310050964355,-2.461326837539673,-1.5066215991973877
1725892093066783500,4.194783447265625,2.28035831451416,-2.0068435668945312,-1.6300163269042969
1725892093085631700,4.2136318359375,1.8747440576553345,-1.6375757455825806,-1.5063161849975586
1725892093104480300,4.232480224609375,1.3891065120697021,-1.3626866340637207,-1.2729657888412476
1725892093123328800,4.251328857421875,0.8842267394065857,-0.809548556804657,-0.9052252173423767
1725892093142177000,4.270177001953125,0.44868019223213196,-0.12018764764070511,-0.2583194375038147
1725892093161025500,4.289025634765625,0.09834922850131989,0.27626359462738037,0.36048656702041626
1725892093179873800,4.307873779296875,-0.31184646487236023,0.26771149039268494,0.7880918979644775
1725892093198722300,4.326722412109375,-0.5641336441040039,-0.29397866129875183,0.9511927962303162
1725892093217570800,4.34557080078125,-0.6533198952674866,-0.781143307685852,0.8323796391487122
1725892093236419300,4.36441943359375,-0.5033525824546814,-0.892015278339386,0.5077049732208252
1725892093255267600,4.383267578125,-0.04978547990322113,-0.8211549520492554,0.17020219564437866
1725892093274116000,4.4021162109375,0.21838416159152985,-0.5984947681427002,-0.05520690605044365
1725892093292964600,4.420964599609375,0.11606431007385254,-0.2646571695804596,-0.09980003535747528
1725892093311812900,4.439812744140625,-0.06383536756038666,-0.16019928455352783,0.07521272450685501
1725892093330661400,4.458661376953125,-0.10140355676412582,-0.27809619903564453,0.3522399067878723
1725892093349510000,4.477510009765625,0.02779434807598591,-0.3321577310562134,0.6307942271232605
1725892093368358400,4.4963583984375,0.12583814561367035,-0.2735147178173065,0.9182060956954956
1725892093387206700,4.51520654296875,0.20311254262924194,-0.36942046880722046,1.1307870149612427
1725892093406055200,4.53405517578125,0.1594357043504715,-1.0813833475112915,1.2471568584442139
1725892093424903700,4.552903564453125,-0.024434590712189674,-1.8000657558441162,1.265788197517395
1725892093443752000,4.571751953125,-0.15485422313213348,-2.2362232208251953,1.2514328956604004
1725892093462600400,4.590600341796875,-0.1081230640411377,-2.276845693588257,1.2398264408111572
1725892093481449000,4.609448974609375,0.08888082206249237,-2.1186318397521973,1.3332887887954712
1725892093500297500,4.62829736328125,0.3738492429256439,-2.0389139652252197,1.8308380842208862
1725892093519146000,4.64714599609375,0.9669989347457886,-2.3764166831970215,2.809138059616089
1725892093537994200,4.665994140625,1.7470732927322388,-2.911534309387207,3.9456520080566406
1725892093556842800,4.6848427734375,1.5207479000091553,-3.3843436241149902,4.430984020233154
1725892093575691300,4.703691162109375,0.972496747970581,-4.218784809112549,3.960618257522583
1725892093594539500,4.72253955078125,1.0845904350280762,-4.7459611892700195,3.228191375732422
1725892093613388000,4.741387939453125,1.581223487854004,-4.598742961883545,2.6096906661987305
1725892093632236500,4.760236572265625,1.8445061445236206,-3.939619779586792,2.019289970397949
1725892093651085000,4.7790849609375,1.8518365621566772,-3.2627816200256348,1.2382992506027222
1725892093669933300,4.797933349609375,1.777005672454834,-2.475682258605957,0.42615455389022827
1725892093688781800,4.81678173828125,1.8985676765441895,-1.7289000749588013,-0.2723693251609802
1725892093707630300,4.83563037109375,2.078772783279419,-0.5471821427345276,-1.1517091989517212
1725892093726478600,4.854478515625,2.1117594242095947,0.35537058115005493,-1.8493167161941528
1725892093745327000,4.8733271484375,2.3787074089050293,0.4787652790546417,-2.2851688861846924
1725892093764175600,4.892175537109375,2.417191982269287,0.33276858925819397,-2.253403902053833
1725892093783024000,4.911024169921875,2.3842053413391113,-0.09300415962934494,-1.8203006982803345
1725892093801872600,4.92987255859375,2.073580503463745,-0.6378955245018005,-1.0903172492980957
1725892093820721000,4.948720947265625,1.5079196691513062,-1.0554215908050537,-0.01824958436191082
1725892093839569400,4.9675693359375,1.0775654315948486,-0.9112575054168701,1.0926079750061035
1725892093858418000,4.98641796875,0.8161153197288513,-0.8712459206581116,1.775554895401001
1725892093877266400,5.005266357421875,0.5778780579566956,-1.0728312730789185,2.1005349159240723
1725892093896114700,5.02411474609375,1.4004075527191162,-0.7188351154327393,2.396498918533325
1725892093914963200,5.042963134765625,2.0213515758514404,0.26618432998657227,2.7300310134887695
1725892093933811700,5.061811767578125,1.8732168674468994,0.15836669504642487,2.6484806537628174
1725892093952660000,5.080659912109375,1.4190388917922974,-0.42684176564216614,2.180558204650879
1725892093971508500,5.099508544921875,0.7082977294921875,-0.7866411209106445,1.784106969833374
1725892093990357000,5.11835693359375,0.14813470840454102,-2.9078691005706787,-1.077183723449707
1725892094009205500,5.13720556640625,0.3039052188396454,0.2842048406600952,-2.516381025314331
1725892094028054000,5.156053955078125,0.8796452879905701,1.1898118257522583,-2.122067928314209
1725892094046902300,5.17490234375,0.11667517572641373,0.2955058515071869,-1.0710750818252563
1725892094065750800,5.193750732421875,-0.766940712928772,-0.6097957491874695,0.5828413367271423
1725892094084599300,5.212599365234375,-1.2229512929916382,-1.4622576236724854,1.707137942314148
1725892094103447600,5.231447509765625,-1.3652827739715576,-1.7456988096237183,1.8436663150787354
1725892094122296300,5.25029638671875,-0.9428697824478149,-0.9048434495925903,1.4566833972930908
1725892094141144600,5.26914453125,-0.12034036219120026,0.12751802802085876,0.9072105288505554
1725892094159993000,5.2879931640625,0.1692095398902893,0.8840740323066711,0.455781489610672
1725892094178841600,5.306841552734375,0.12217295914888382,0.2790125012397766,0.15920662879943848
1725892094197689900,5.32568994140625,-0.08643736690282822,-2.7282748222351074,-0.9809724688529968
1725892094216538400,5.344538330078125,-0.3854556679725647,-3.078605890274048,-1.197524070739746
1725892094235387000,5.363386962890625,-0.43860089778900146,-3.2395687103271484,-0.8120683431625366
1725892094254235400,5.3822353515625,-0.7360920310020447,-2.6894848346710205,-0.45104727149009705
1725892094273084000,5.401083984375,-0.833219587802887,-1.58717942237854,0.1842520833015442
1725892094291932200,5.41993212890625,-0.3433060050010681,-0.8852958083152771,0.8351284861564636
1725892094310780700,5.43878076171875,0.2507599890232086,-0.28267768025398254,0.8983530402183533
1725892094329629200,5.457629150390625,0.5232056975364685,0.050549060106277466,0.8323796391487122
1725892094348477400,5.4764775390625,0.4520399272441864,0.17944152653217316,0.9478330612182617
1725892094367326200,5.495326171875,0.31184646487236023,0.08811724185943604,1.0446550846099854
1725892094386174500,5.514174560546875,0.3436114490032196,0.02611446939408779,1.10940682888031
1725892094405023000,5.53302294921875,0.6530144214630127,0.10369429737329483,1.252959966659546
1725892094423871500,5.55187158203125,1.0125083923339844,0.11285726726055145,1.3455060720443726
1725892094442719700,5.5707197265625,1.1563670635223389,0.014508038759231567,1.162551999092102
1725892094461568300,5.589568359375,1.4847068786621094,1.7484476566314697,0.36048656702041626
1725892094480416800,5.608416748046875,1.9117013216018677,1.2707514762878418,0.39194610714912415
1725892094499265300,5.627265380859375,1.599854826927185,0.5041161775588989,0.617355227470398
1725892094518113800,5.64611376953125,0.943786084651947,0.3006981909275055,1.3522255420684814
1725892094536962000,5.664962158203125,0.9666935205459595,0.17821979522705078,1.5003602504730225
1725892094555810600,5.683810546875,1.1148282289505005,0.6769908666610718,1.2386046648025513
1725892094574659000,5.7026591796875,1.349400281906128,1.2664754390716553,1.0083086490631104
1725892094593507600,5.721507568359375,1.2623521089553833,1.1568251848220825,0.8351284861564636
1725892094612356000,5.740356201171875,0.9477567076683044,1.070387840270996,0.49854201078414917
1725892094631204400,5.759204345703125,0.5293143391609192,1.2460113763809204,0.5461894869804382
1725892094650052900,5.778052978515625,0.4459312856197357,0.8254310488700867,0.7890082001686096
1725892094668901400,5.7969013671875,0.5568032264709473,0.10797034949064255,0.8748347163200378
1725892094687750000,5.81575,0.528092622756958,0.12690715491771698,0.7584649920463562
1725892094706598400,5.834598388671875,0.4773908257484436,0.19654574990272522,0.3788125216960907
1725892094725446700,5.85344677734375,0.2205221801996231,0.17394374310970306,0.28504478931427
1725892094744295200,5.872295166015625,-0.11423171311616898,0.4381427764892578,0.17508912086486816
1725892094763143700,5.891143798828125,-0.14233149588108063,0.01206457894295454,0.0009926552884280682
1725892094781992200,5.9099921875,-0.1951712965965271,0.07315105944871902,0.10483966767787933
1725892094800840700,5.9288408203125,-0.2559523284435272,0.6186532974243164,0.1729510873556137
1725892094819689000,5.94768896484375,-0.13530655205249786,0.18952079117298126,-0.08239039033651352
1725892094838537500,5.966537353515625,-0.3998109996318817,-0.3526217043399811,-0.014889828860759735
1725892094857386000,5.985385986328125,-0.3228420317173004,-0.47143489122390747,-0.03535379841923714
1725892094876247600,6.00424755859375,0.024434590712189674,-0.7930551767349243,-0.1251509189605713
1725892094895095000,6.023094970703125,0.03023780696094036,-0.9793689846992493,-0.07719803601503372
1725892094913931500,6.041931640625,-0.2813032269477844,-0.191964253783226,-0.1352301836013794
1725892094932779800,6.06077978515625,-0.0720820426940918,-0.33429574966430664,-0.44432777166366577
1725892094951628300,6.079628173828125,-0.3121519088745117,-0.27687445282936096,-0.36216646432876587
1725892094970476800,6.098476806640625,-0.14660754799842834,-0.24205516278743744,-0.18287764489650726
1725892094989325300,6.1173251953125,0.11331541836261749,-0.14462223649024963,-0.19478951394557953
1725892095008173800,6.136173828125,-0.041844237595796585,0.13362666964530945,-0.2213621288537979
1725892095027022000,6.15502197265625,-0.1536324918270111,0.11316270381212234,-0.150196373462677
1725892095045870600,6.17387060546875,-0.3399462401866913,-0.47723811864852905,0.23770275712013245
1725892095064719000,6.192718994140625,-0.38728827238082886,-0.06246092543005943,0.5590176582336426
1725892095083567600,6.211567626953125,-0.3069595396518707,-0.06276635825634003,1.0022000074386597
1725892095102416100,6.230416015625,-0.6322450637817383,-0.07131846249103546,1.4194207191467285
1725892095121264600,6.2492646484375,-0.4929678738117218,-0.19929464161396027,1.5290708541870117
1725892095140113000,6.26811279296875,-0.5436696410179138,-1.3248130083084106,1.7190498113632202
1725892095158961400,6.28696142578125,-0.7144063711166382,-1.2490657567977905,1.3363430500030518
1725892095177810000,6.305809814453125,-0.481361448764801,-0.5426006317138672,0.48296496272087097
1725892095196658400,6.324658447265625,-0.05955931544303894,-0.3929387629032135,-0.2735910713672638
1725892095215507000,6.3435068359375,0.035735588520765305,-0.1876882016658783,-0.5781071782112122
1725892095234355200,6.362355224609375,-0.11667517572641373,0.09453132748603821,-0.38873907923698425
1725892095253203700,6.38120361328125,-0.10995566099882126,0.04108065739274025,0.35132360458374023
1725892095272052200,6.40005224609375,-0.12247838824987411,0.24174973368644714,0.5565741658210754
1725892095290900700,6.418900634765625,-0.20708316564559937,0.31413722038269043,0.5034289360046387
1725892095309749200,6.437749267578125,0.016798781231045723,-0.15561780333518982,0.5858956575393677
1725892095328597800,6.45659765625,0.07971785217523575,-0.7026472091674805,0.3678169548511505
1725892095347446000,6.475446044921875,-0.023212861269712448,-0.5471821427345276,0.06818778067827225
1725892095366294500,6.49429443359375,0.1386663019657135,-0.3315468728542328,-0.08452841639518738
1725892095385143000,6.51314306640625,-0.10567960888147354,-0.378888875246048,-0.5961276888847351
1725892095403991600,6.531991455078125,-0.3430005609989166,-0.7371610999107361,-0.8780417442321777
1725892095422840000,6.550840087890625,0.2513708472251892,-1.7927354574203491,-0.3154352903366089
1725892095441688300,6.569688232421875,0.4935787320137024,-1.4989094734191895,-0.6187296509742737
1725892095460536800,6.588536865234375,0.48930269479751587,-1.0740530490875244,-1.074129343032837
1725892095479385300,6.60738525390625,0.370184063911438,-0.5444332361221313,-1.251891016960144
1725892095498233900,6.62623388671875,0.022296564653515816,-0.23228132724761963,-0.9861648082733154
1725892095517082400,6.645082275390625,-0.0616973415017128,-0.504421591758728,-0.1346193253993988
1725892095535931000,6.663930908203125,0.11514800786972046,-0.7255546450614929,0.3210858106613159
1725892095554779100,6.682779052734375,0.4886918365955353,-0.29825472831726074,0.5284743905067444
1725892095573627600,6.701627685546875,0.7192932963371277,0.012980876490473747,0.581008791923523
1725892095592476200,6.72047607421875,0.5393936038017273,0.3474293351173401,0.43256860971450806
1725892095611324700,6.73932470703125,0.2458730787038803,0.25763222575187683,0.6793580055236816
1725892095630173200,6.758173095703125,0.32192572951316833,0.23961171507835388,0.9237039089202881
1725892095649021700,6.777021728515625,0.5980366468429565,-0.3358229100704193,0.8513164520263672
1725892095667870000,6.795869873046875,0.8106175661087036,-0.9738711714744568,0.5831468105316162
1725892095686718500,6.814718505859375,1.368947982788086,-0.6110175251960754,0.1476002037525177
1725892095705567000,6.83356689453125,1.9343032836914062,0.5242747068405151,-0.34872743487358093
1725892095724415500,6.85241552734375,2.3823726177215576,1.7692171335220337,-0.4217257797718048
1725892095743264000,6.871263916015625,2.4407103061676025,2.347095251083374,-0.8429170250892639
1725892095762112500,6.890112548828125,1.971260666847229,2.4778201580047607,-0.9104176163673401
1725892095780961000,6.9089609375,1.510363221168518,2.1916301250457764,-0.5747473835945129
1725892095799809300,6.927809326171875,0.9602794051170349,1.2325724363327026,-0.5640572905540466
1725892095818657800,6.94665771484375,1.4230095148086548,-0.1663079410791397,-0.5704713463783264
1725892095837506300,6.96550634765625,2.679558277130127,-0.27107125520706177,-0.1813504844903946
1725892095856354800,6.984354736328125,0.8491020202636719,1.0163263082504272,-0.9299652576446533
1725892095875203300,7.003203369140625,-0.3133736252784729,-0.01695149764418602,-1.028009057044983
1725892095894051800,7.0220517578125,-0.7229584455490112,-1.0593922138214111,-1.0918444395065308
1725892095912900000,7.040900146484375,-0.6343830823898315,-1.1394155025482178,-0.8508582711219788
1725892095931748600,7.05974853515625,-0.5745183229446411,-0.8287907838821411,-0.3108538091182709
1725892095950597000,7.07859716796875,-0.8637627959251404,-0.8016073107719421,0.48265954852104187
1725892095969445600,7.097445556640625,-1.3429862260818481,-1.3736821413040161,0.418824166059494
1725892095988294100,7.116294189453125,-1.8371758460998535,-1.8254166841506958,-0.0066431546583771706
1725892096007142700,7.135142578125,-2.019824504852295,-2.039219379425049,-0.16241367161273956
1725892096025991000,7.153990966796875,-1.8032728433609009,-1.384677767753601,-0.26962044835090637
1725892096044839400,7.17283935546875,-1.2089014053344727,-1.2460113763809204,-0.09735657274723053
1725892096063688000,7.19168798828125,-0.7327322959899902,-1.4976876974105835,0.2343430072069168
1725892096082536400,7.210536376953125,-0.3185659945011139,-1.5428917407989502,0.31497713923454285
1725892096101385000,7.229385009765625,0.29046618938446045,-0.9112575054168701,-0.020082179456949234
1725892096120233500,7.2482333984375,0.8176425099372864,-0.3669770061969757,-0.2836703360080719
1725892096139081700,7.267081787109375,1.0693187713623047,-0.13179408013820648,-0.602847158908844
1725892096157930500,7.285930419921875,0.9587522745132446,0.5621483325958252,-1.0249547958374023
1725892096176778800,7.30477880859375,1.1985167264938354,0.8761327862739563,-1.001741886138916
1725892096195627300,7.323627197265625,1.7473787069320679,0.5560396909713745,-0.5628355145454407
1725892096214475800,7.342475830078125,1.4107922315597534,0.4964803457260132,-0.33712100982666016
1725892096233324300,7.36132421875,1.0039563179016113,0.27259841561317444,-0.5509236454963684
1725892096252172500,7.380172607421875,1.0775654315948486,0.24602578580379486,-0.6727911829948425
1725892096271021300,7.399021240234375,1.0161736011505127,0.24541492760181427,-0.4076758921146393
1725892096289869600,7.41786962890625,0.6398808360099792,-0.25060728192329407,-0.07872519642114639
1725892096308733200,7.436733154296875,1.0060943365097046,-0.42195484042167664,0.26335906982421875
1725892096327566600,7.455566650390625,1.4370594024658203,-0.45249807834625244,0.47899433970451355
1725892096346415000,7.4744150390625,1.1026109457015991,-0.5254964232444763,0.4365392327308655
1725892096365263600,7.493263671875,1.302058219909668,-0.9686788320541382,0.7181479334831238
1725892096384112000,7.512112060546875,1.3041963577270508,-0.7423534393310547,0.6698895692825317
1725892096402960400,7.53096044921875,0.9795216917991638,-0.07498364895582199,0.12286017835140228
1725892096421809000,7.549808837890625,0.3998109996318817,-0.21090106666088104,-0.13309216499328613
1725892096440657400,7.568657470703125,-0.291687935590744,-0.22953243553638458,-0.2629009187221527
1725892096459506000,7.587505859375,-0.37843072414398193,-0.4754055142402649,-0.3908770978450775
1725892096478354400,7.6063544921875,-0.2868010103702545,-0.02214384824037552,-0.7011964321136475
1725892096497203000,7.625202880859375,-0.48013970255851746,0.4754055142402649,-0.9934952259063721
1725892096516051200,7.64405126953125,-0.4834994673728943,0.9720385670661926,-1.0784053802490234
1725892096534900000,7.66289990234375,-0.7254019379615784,1.1797325611114502,-1.0945932865142822
1725892096553748200,7.681748291015625,-0.8738420605659485,1.274111270904541,-1.0228166580200195
1725892096572596700,7.7005966796875,-0.5293143391609192,0.8022181987762451,-0.8032108545303345
1725892096591445200,7.7194453125,-0.49541133642196655,0.40607234835624695,-0.7137191295623779
1725892096610293800,7.738293701171875,-0.6933315396308899,0.16844595968723297,-0.5414552688598633
1725892096629142300,7.757142333984375,-0.5561923980712891,-0.17913609743118286,-0.48067423701286316
1725892096647990800,7.77599072265625,-0.6743947267532349,0.1769980639219284,-0.5451204776763916
1725892096666839000,7.794839111328125,-0.44318240880966187,-0.20998476445674896,-0.14744748175144196
1725892096685687600,7.8136875,-0.3704894781112671,-0.16569706797599792,-0.37804892659187317
1725892096704536000,7.8325361328125,-0.06444623321294785,0.014813470654189587,-0.3136027157306671
1725892096723384600,7.851384521484375,-0.03390299528837204,-0.3623955249786377,-0.2519053518772125
1725892096742233000,7.870233154296875,-0.11972949653863907,-0.6186532974243164,-0.33773186802864075
1725892096761081600,7.88908154296875,-0.45387253165245056,-0.12873975932598114,-0.5918515920639038
1725892096779929900,7.907929931640625,-0.6820304989814758,0.44700029492378235,-0.983415961265564
1725892096798778600,7.926778564453125,-0.4569268524646759,0.845894992351532,-1.2864048480987549
1725892096817627000,7.945626953125,-0.09651663154363632,0.15347976982593536,-1.1187224388122559
1725892096836475400,7.964475341796875,0.053145237267017365,0.0010690133785828948,-1.0860412120819092
1725892096855324000,7.983323974609375,0.02107483521103859,-0.3065013885498047,-0.8875101804733276
1725892096874172400,8.00217236328125,0.01802051067352295,-0.20631958544254303,-0.8713222742080688
1725892096893021000,8.02102099609375,-0.1182023361325264,0.08842267841100693,-1.001436471939087
1725892096911869400,8.039869384765625,-0.15149445831775665,0.5380191802978516,-1.0240384340286255
1725892096930717700,8.0587177734375,-0.27519458532333374,0.35323256254196167,-0.9904409050941467
1725892096949566200,8.077566162109376,-0.34086254239082336,0.3202458620071411,-0.649578332901001
1725892096968414700,8.096414794921875,-0.12522727251052856,0.38041603565216064,-0.28092142939567566
1725892096987263200,8.11526318359375,-0.25503605604171753,0.305585116147995,-0.37896522879600525
1725892097006111700,8.13411181640625,-0.3643808364868164,0.2787070572376251,-0.42600181698799133
1725892097024960300,8.152960205078125,-0.13988803327083588,0.36911505460739136,-0.2900844216346741
1725892097043808500,8.17180859375,-0.27855435013771057,0.2802342176437378,-0.28122687339782715
1725892097062657000,8.190656982421874,-0.3842339515686035,0.16752967238426208,0.012904518283903599
1725892097081505500,8.209505615234375,-0.018631376326084137,0.14431680738925934,0.3989710509777069
1725892097100354000,8.22835400390625,-0.2260199636220932,0.15592323243618011,0.07124210149049759
1725892097119202600,8.24720263671875,-0.28924447298049927,0.3678933084011078,0.31039565801620483
1725892097138051000,8.266051025390626,-0.015271619893610477,0.2441931962966919,0.43745553493499756
1725892097156899600,8.284899658203125,-0.17715078592300415,0.31902414560317993,0.3540725111961365
1725892097175748000,8.303748046875,0.2211330533027649,0.4851793646812439,0.7163153290748596
1725892097194596400,8.322596435546876,0.5442805290222168,0.4802924394607544,0.5684860348701477
1725892097213444900,8.34144482421875,0.40225446224212646,0.7930551767349243,0.4872410297393799
1725892097232293400,8.36029345703125,0.6731730103492737,0.5453495383262634,0.5397753715515137
1725892097251142000,8.379141845703124,1.0118975639343262,0.6168206930160522,0.33421939611434937
1725892097269990400,8.397990478515625,1.0516036748886108,0.7851139307022095,0.451200008392334
1725892097288839000,8.4168388671875,1.3023637533187866,0.4399753510951996,0.3577376902103424
1725892097307687200,8.435687255859374,1.4669917821884155,0.4143190383911133,0.15554144978523254
1725892097326535700,8.45453564453125,1.3213005065917969,0.3874409794807434,0.2816850244998932
1725892097345384200,8.47338427734375,1.4715732336044312,0.18616104125976562,0.17142392694950104
1725892097364232700,8.492232666015624,1.4007129669189453,0.2185368686914444,0.02542724646627903
1725892097383081200,8.511081298828126,1.102000117301941,0.16478078067302704,0.22120940685272217
1725892097401929700,8.5299296875,1.0552688837051392,-0.24816381931304932,0.28260132670402527
1725892097420778200,8.5487783203125,0.9275981783866882,-0.10644318908452988,0.4398989975452423
1725892097439626800,8.567626708984376,0.7061597108840942,-0.07773254066705704,0.5926151871681213
1725892097458475000,8.58647509765625,0.6597339510917664,-0.162031888961792,0.5996401309967041
1725892097477323500,8.605323486328125,0.6386591196060181,-0.0798705667257309,0.6029998660087585
1725892097496172000,8.624172119140624,0.6255255341529846,-0.1101083755493164,0.6402626633644104
1725892097515020500,8.6430205078125,0.609948456287384,-0.14340050518512726,0.5281689763069153
1725892097533869000,8.661869140625,0.5125155448913574,-0.14920371770858765,0.7068468928337097
1725892097552717600,8.680717529296874,0.4401280879974365,-0.5065596103668213,0.5538252592086792
1725892097571565800,8.69956591796875,0.0717766135931015,-0.30833399295806885,0.7297543287277222
1725892097590414300,8.718414306640625,-0.23487751185894012,-0.17455461621284485,0.9918153285980225
1725892097609262800,8.737262939453124,-0.24312418699264526,-0.425009161233902,0.7792344093322754
1725892097628111400,8.756111328125,-0.16707152128219604,-0.2646571695804596,1.106657862663269
1725892097646959900,8.7749599609375,0.07910698652267456,-0.39568766951560974,1.199814796447754
1725892097665808400,8.793808349609375,0.012522728182375431,-0.16905683279037476,0.6787471175193787
1725892097684656600,8.81265673828125,-0.23976442217826843,-0.5939132571220398,0.42187848687171936
1725892097703505200,8.831505126953125,-0.23243404924869537,-0.8568905591964722,-0.19509494304656982
1725892097722353700,8.850353759765625,-0.15821397304534912,-0.6934842467308044,-0.18837542831897736
1725892097741202200,8.8692021484375,-0.002443459117785096,-0.651029109954834,0.02176205813884735
1725892097760050700,8.88805078125,-0.13133592903614044,-0.5080868005752563,0.26885685324668884
1725892097778899200,8.906899169921875,-0.15790854394435883,-0.7774781584739685,0.08681915700435638
1725892097797747500,8.92574755859375,0.10629047453403473,-1.3235912322998047,-0.057039499282836914
1725892097816596200,8.94459619140625,0.3075704276561737,-1.501658320426941,0.04253146052360535
1725892097835444500,8.963444580078125,0.6362156867980957,-1.8202242851257324,0.2297615110874176
1725892097854293000,8.98229296875,0.6673697829246521,-1.6143629550933838,0.12072215229272842
1725892097873141500,9.0011416015625,0.9596685767173767,-1.049007534980774,0.14851650595664978
1725892097891990000,9.019989990234375,0.9407317638397217,-1.0523673295974731,0.3369682729244232
1725892097910838300,9.03883837890625,0.7596103549003601,-0.9094249606132507,0.22273656725883484
1725892097929687000,9.05768701171875,0.665842592716217,-0.8290961980819702,-0.17157664895057678
1725892097948535300,9.076535400390625,0.3585776388645172,-0.6210967898368835,-0.5270999670028687
1725892097967383800,9.0953837890625,0.04001164436340332,-0.26740604639053345,-0.742429792881012
1725892097986232300,9.114232421875,-0.04367683082818985,-0.2952004075050354,-0.9650899767875671
1725892098005080800,9.133080810546875,0.061391908675432205,-0.125074565410614,-1.1101703643798828
1725892098023929300,9.151929443359375,0.0412333719432354,0.09850194305181503,-1.1801143884658813
1725892098042777900,9.17077783203125,-0.011606430634856224,0.2945895493030548,-1.3117557764053345
1725892098061626000,9.189626220703126,-0.0308486707508564,0.24083344638347626,-1.5612939596176147
1725892098080474600,9.208474609375,-0.1585194170475006,0.0007635809597559273,-1.695989727973938
1725892098099323100,9.2273232421875,-0.18081597983837128,-0.12873975932598114,-1.3056471347808838
1725892098118171600,9.246171630859376,-0.10659590363502502,-0.310166597366333,-0.770529568195343
1725892098137020200,9.265020263671875,-0.11545344442129135,-0.2393062710762024,-0.6831759214401245
1725892098155868400,9.283868408203125,-0.17653992772102356,-0.4793761372566223,-0.9418771266937256
1725892098174717000,9.302717041015624,-0.1844811588525772,-0.4283689260482788,-0.8755983114242554
1725892098193565400,9.3215654296875,-0.20830489695072174,-0.38011062145233154,-0.8212313652038574
1725892098212414000,9.3404140625,-0.29138249158859253,-0.310166597366333,-0.8441387414932251
1725892098231262500,9.359262451171874,-0.42882707715034485,-0.3309359848499298,-0.8404735922813416
1725892098250111000,9.378111083984376,-0.5232056975364685,-0.3526217043399811,-0.963257372379303
1725892098268959200,9.396959228515625,-0.509155809879303,-0.8217658400535583,-1.008461356163025
1725892098287807700,9.415807861328124,-0.4572322964668274,-0.9711222648620605,-1.0151809453964233
1725892098306656300,9.43465625,-0.38270679116249084,-0.05024362727999687,-1.382005214691162
1725892098325504800,9.4535048828125,-0.5888736248016357,0.047494735568761826,-1.3322197198867798
1725892098344353300,9.472353271484375,-0.9181297421455383,-0.5929969549179077,-1.0270928144454956
1725892098363201800,9.491201904296876,-0.7657189965248108,-1.3611594438552856,-1.0451133251190186
1725892098382050000,9.510050048828125,-0.9373720288276672,-1.1537708044052124,-1.342298984527588
1725892098400898600,9.528898681640625,-0.43890634179115295,-0.45646870136260986,-1.0176243782043457
1725892098419747000,9.5477470703125,-0.13988803327083588,0.03252854943275452,-0.7738893032073975
1725892098438595600,9.566595703125,-0.4114174246788025,-0.29886558651924133,-0.7210494875907898
1725892098457444000,9.585444091796875,-0.5946768522262573,-0.2380845546722412,-0.7296016216278076
1725892098476292400,9.604292236328124,-0.6575959324836731,0.31291547417640686,-0.5298488140106201
1725892098495141000,9.62314111328125,-0.406530499458313,0.23105959594249725,-0.5753582715988159
1725892098513989400,9.6419892578125,-0.46975502371788025,0.5792525410652161,-0.42447465658187866
1725892098532838000,9.660837890625,-0.5061014890670776,0.3318522870540619,-0.35300347208976746
1725892098551686400,9.679686279296876,-0.47036588191986084,0.23655737936496735,-0.27633994817733765
1725892098570535000,9.698534912109375,-0.32039856910705566,0.26129740476608276,-0.11293362826108932
1725892098589383200,9.717383056640625,-0.1340848207473755,0.3196350038051605,-0.09735657274723053
1725892098608231700,9.736231689453126,0.03909534588456154,0.3987419903278351,0.18150319159030914
1725892098627080200,9.755080078125,0.09834922850131989,0.4442514181137085,0.28321218490600586
1725892098645928700,9.7739287109375,0.16126830875873566,0.43233954906463623,0.45364347100257874
1725892098664777200,9.792777099609374,0.27397283911705017,0.4192059636116028,0.5635991096496582
1725892098683625500,9.81162548828125,0.47097674012184143,0.9347758293151855,0.6417897939682007
1725892098702474000,9.830473876953125,0.5045742988586426,1.235321283340454,0.8800270557403564
1725892098721322500,9.849322509765624,0.48533207178115845,1.3556616306304932,1.2679262161254883
1725892098740171000,9.8681708984375,0.6368265151977539,1.0945169925689697,1.303356409072876
1725892098759019500,9.88701953125,0.6050615906715393,1.1204787492752075,1.430721640586853
1725892098777867800,9.90586767578125,0.7852666974067688,1.2148573398590088,1.3986512422561646
1725892098796716500,9.924716552734376,0.8286380767822266,0.9216422438621521,1.478063702583313
1725892098815564800,9.943564697265625,0.8988875150680542,0.8257364630699158,1.5137993097305298
1725892098834413300,9.962413330078125,1.0134246349334717,0.19135339558124542,1.3091596364974976
1725892098853261800,9.98126171875,0.7959567904472351,0.5086976289749146,1.5571706295013428
1725892098872110300,10.0001103515625,0.9737184643745422,0.3065013885498047,1.3158791065216064
1725892098890958600,10.01895849609375,0.8323032855987549,0.17974695563316345,1.3729948997497559
1725892098909807000,10.03780712890625,0.6640099883079529,0.5456549525260925,1.5305980443954468
1725892098928655600,10.056655517578125,0.9764673709869385,0.2280052751302719,1.1387282609939575
1725892098947504000,10.075504150390625,0.8564324378967285,0.43233954906463623,1.4169771671295166
1725892098966352600,10.0943525390625,0.9969313144683838,0.08933897316455841,1.0849722623825073
1725892098985201000,10.113200927734376,0.9303470849990845,-0.14981459081172943,1.0492366552352905
1725892099004049400,10.13204931640625,0.5800161361694336,0.20173808932304382,1.3290126323699951
1725892099022898000,10.15089794921875,0.6487383842468262,0.002901607658714056,1.0941351652145386
1725892099041746400,10.169746337890626,0.7024945020675659,-0.0899498388171196,0.9282854199409485
1725892099060595000,10.188594970703125,0.6466003656387329,-0.11133010685443878,0.8332959413528442
1725892099079443200,10.207443115234375,0.49418962001800537,-0.05604684352874756,0.8528435826301575
1725892099098291700,10.226291748046876,0.3857611119747162,0.008093958720564842,0.7667116522789001
1725892099117140200,10.24514013671875,0.3326158821582794,-0.2032652497291565,0.6158280372619629
1725892099135988700,10.26398876953125,0.19181154668331146,-0.1510363221168518,0.46433359384536743
1725892099154837200,10.282837158203124,0.06933315098285675,-0.13698641955852509,0.307646781206131
1725892099173685500,10.301685546875,-0.0461202897131443,-0.23777911067008972,0.152487114071846
1725892099192534000,10.320533935546875,-0.15271618962287903,-0.162031888961792,-0.07261654734611511
1725892099211382500,10.339382568359374,-0.18723005056381226,-0.2393062710762024,-0.12087486684322357
1725892099230231000,10.35823095703125,-0.19303326308727264,0.11133010685443878,-0.279394268989563
1725892099249079600,10.37707958984375,-0.18631376326084137,0.014202605932950974,-0.5530617237091064
1725892099267927800,10.395927734375,-0.20463970303535461,0.19104796648025513,-0.6902008652687073
1725892099286776300,10.4147763671875,-0.08582650125026703,0.017867794260382652,-0.593684196472168
1725892099305624800,10.433624755859375,0.053756099194288254,0.07712167501449585,-0.6349175572395325
1725892099324473300,10.452473388671875,0.04734202101826668,0.05757400393486023,-0.8142064213752747
1725892099343321900,10.47132177734375,0.13561198115348816,-0.06337722390890121,-1.0051016807556152
1725892099362170000,10.490170166015625,0.16523891687393188,-0.007177661173045635,-1.1358267068862915
1725892099381018600,10.5090185546875,0.20189081132411957,-0.24602578580379486,-1.0982584953308105
1725892099399867100,10.5278671875,0.10842850059270859,-0.10980294644832611,-0.9479857683181763
1725892099418715600,10.546715576171875,0.08063415437936783,-0.15256348252296448,-0.8752928972244263
1725892099437564000,10.56556396484375,0.06597339361906052,-0.0334448479115963,-1.0286198854446411
1725892099456412400,10.584412353515624,0.10690133273601532,-0.26099199056625366,-1.1248310804367065
1725892099475261000,10.603260986328126,0.0412333719432354,-0.3119991719722748,-1.1504874229431152
1725892099494109400,10.622109375,0.03329212963581085,-0.25060728192329407,-1.1297180652618408
1725892099512958000,10.6409580078125,0.03695731982588768,-0.5090031027793884,-1.1981348991394043
1725892099531806200,10.65980615234375,-0.08765909820795059,-0.3828594982624054,-1.110475778579712
1725892099550654700,10.67865478515625,-0.16187916696071625,-0.7078395485877991,-1.0157917737960815
1725892099569503200,10.697503173828125,-0.2370155304670334,-0.5829176902770996,-0.9449314475059509
1725892099588351700,10.716351806640626,-0.34238970279693604,-0.567951500415802,-0.8691841959953308
1725892099607200300,10.7352001953125,-0.3497200906276703,-0.7689260244369507,-0.8887318968772888
1725892099626048500,10.754048583984375,-0.4511236250400543,-0.5667297840118408,-0.8728494048118591
1725892099644897000,10.77289697265625,-0.44837474822998047,-0.6036871075630188,-0.7781654000282288
1725892099663745500,10.79174560546875,-0.4822777509689331,-0.7686206102371216,-0.7088322043418884
1725892099682593800,10.81059375,-0.6420188546180725,-0.9821178317070007,-0.7577013969421387
1725892099701442600,10.829442626953124,-0.7629700899124146,-1.0221295356750488,-0.8493311405181885
1725892099720290800,10.848290771484375,-0.6826413869857788,-0.8416189551353455,-0.8420007228851318
1725892099739139300,10.867139404296875,-0.6777544617652893,-1.050840139389038,-0.9446260333061218
1725892099757987800,10.88598779296875,-0.6530144214630127,-0.8633046746253967,-1.0008255243301392
1725892099776836000,10.904836181640626,-0.5971203446388245,-0.7887791395187378,-1.1526254415512085
1725892099795684600,10.9236845703125,-0.7186824083328247,-0.6159043908119202,-0.9660062789916992
1725892099814533000,10.942533203125,-0.5378664135932922,-0.37400195002555847,-0.7158571481704712
1725892099833381600,10.961381591796876,-0.3949240744113922,0.22647811472415924,-0.8319214582443237
1725892099852230100,10.980230224609375,-0.5977311730384827,-0.40485063195228577,-1.1333832740783691
1725892099871078400,10.999078369140625,-0.7987056970596313,-0.11835505068302155,-1.0753511190414429
1725892099889927000,11.017927001953124,-0.8103121519088745,0.07162389904260635,-0.9263001084327698
1725892099908775400,11.036775390625,-0.5745183229446411,0.6528617143630981,-0.6532435417175293
1725892099927624000,11.0556240234375,-0.5006036758422852,0.4812087416648865,-0.6373610496520996
1725892099946472200,11.07447216796875,-0.6841685771942139,0.5074759125709534,-0.30230170488357544
1725892099965320700,11.09332080078125,-0.5064069032669067,0.47845983505249023,-0.009697478264570236
1725892099984169200,11.112169189453125,-0.16340632736682892,1.0761910676956177,0.1726456582546234
1725892100003017700,11.131017822265624,-0.05833758786320686,1.00594162940979,0.2560287117958069
1725892100021866000,11.149865966796876,-0.32009315490722656,0.6452259421348572,0.8076395988464355
1725892100040714500,11.168714599609375,-0.1288924664258957,0.5896372199058533,0.9762382507324219
1725892100059563000,11.18756298828125,0.26450446248054504,1.1992802619934082,1.014111876487732
1725892100078411500,11.20641162109375,0.42424559593200684,1.4796671867370605,1.3109921216964722
1725892100097259800,11.225259765625,0.287106454372406,1.2377647161483765,1.7303508520126343
1725892100116108300,11.2441083984375,0.40225446224212646,1.0593922138214111,1.7557017803192139
1725892100134956800,11.262956787109376,0.6682860851287842,0.9790635108947754,1.5504511594772339
1725892100153805300,11.281805419921875,0.8451313972473145,1.1311688423156738,1.443244457244873
1725892100172653800,11.30065380859375,1.2400555610656738,1.4491239786148071,1.3424516916275024
1725892100191502000,11.319502197265624,1.3997966051101685,0.8901826739311218,1.3290126323699951
1725892100210350600,11.3383505859375,1.3005311489105225,0.7866411209106445,1.5116612911224365
1725892100229199000,11.35719921875,1.5033382177352905,0.6714931130409241,1.0440442562103271
1725892100248047400,11.37604736328125,1.4324779510498047,0.5508472919464111,1.088637351989746
1725892100266896000,11.394895751953126,1.2632683515548706,0.5911644101142883,1.0431280136108398
1725892100285744400,11.413744384765625,1.2993093729019165,0.45646870136260986,1.0165553092956543
1725892100304593000,11.432593017578125,1.1545344591140747,0.3825540542602539,1.0394628047943115
1725892100323441400,11.45144140625,0.7837395071983337,0.45310893654823303,1.143920660018921
1725892100342289700,11.47028955078125,0.7156280875205994,0.20143266022205353,1.1689660549163818
1725892100361138200,11.48913818359375,0.6230821013450623,0.27626359462738037,1.098105788230896
1725892100379986700,11.507986572265626,0.5962040424346924,0.005650499369949102,1.1020764112472534
1725892100398835000,11.5268349609375,0.49480047821998596,-0.04230238497257233,0.9151517748832703
1725892100417683500,11.545683349609375,0.5674933791160583,-0.019394956529140472,0.8412371873855591
1725892100436532000,11.564531982421874,0.5018253922462463,-0.17913609743118286,0.7062360644340515
1725892100455380500,11.58338037109375,0.4419606626033783,-0.1000291109085083,0.5816196203231812
1725892100474228700,11.602228759765625,0.2467893660068512,-0.35934120416641235,0.4298197329044342
1725892100493077200,11.6210771484375,-0.007330377586185932,-0.16050471365451813,0.23709189891815186
1725892100511925800,11.63992578125,-0.09285144507884979,-0.23167046904563904,0.08926261961460114
1725892100530774300,11.658774169921875,-0.21716243028640747,0.006872228812426329,-0.20609050989151
1725892100549622800,11.677622802734374,-0.23365578055381775,-0.29825472831726074,-0.31238096952438354
1725892100568471000,11.696470947265626,-0.2788597643375397,-0.1455385386943817,-0.4012618064880371
1725892100587319600,11.715319580078125,-0.20158538222312927,-0.2124282270669937,-0.4883100390434265
1725892100606168000,11.73416796875,-0.08582650125026703,-0.2838993966579437,-0.6834813356399536
1725892100625016300,11.753016357421876,0.019853105768561363,-0.38652467727661133,-0.6987529397010803
1725892100643864800,11.77186474609375,0.10079269111156464,-0.3462076187133789,-0.6773726940155029
1725892100662713300,11.79071337890625,0.05864302068948746,-0.3208567202091217,-0.7665589451789856
1725892100681561900,11.809561767578124,0.04764745384454727,-0.3770562708377838,-0.9156099557876587
1725892100700410000,11.82841015625,0.034208428114652634,-0.25641047954559326,-1.019762396812439
1725892100719258600,11.847258544921875,0.02107483521103859,-0.13820815086364746,-1.0887900590896606
1725892100738107100,11.866107177734374,0.044898562133312225,-0.19074252247810364,-1.0270928144454956
1725892100756955400,11.884955322265625,0.031154103577136993,-0.4543306827545166,-0.8572723865509033
1725892100775804000,11.903803955078125,0.02779434807598591,-0.434783011674881,-0.9030871987342834
1725892100794652400,11.92265234375,0.12553271651268005,-0.5074759125709534,-1.0964258909225464
1725892100813500700,11.941500732421876,0.16798780858516693,-0.5609265565872192,-1.1278854608535767
1725892100832349200,11.96034912109375,0.09376774728298187,-0.5282453298568726,-1.0994802713394165
1725892100851197700,11.97919775390625,0.003665188793092966,-0.449138343334198,-1.0823760032653809
1725892100870046200,11.998046142578126,0.004581485874950886,-0.4995346665382385,-1.0637446641921997
1725892100888894500,12.01689453125,-0.06047561392188072,-0.6220130324363708,-0.9409608244895935
1725892100907743000,12.035742919921875,-0.16096286475658417,-0.9644027948379517,-0.9660062789916992
1725892100926591500,12.054591552734376,-0.2984074354171753,-1.098182201385498,-0.9986875653266907
1725892100945440000,12.07343994140625,-0.4098902642726898,-0.8526145219802856,-0.8649081587791443
1725892100964288500,12.09228857421875,-0.49999281764030457,-1.2426517009735107,-0.8478039503097534
1725892100983136800,12.11113671875,-0.6679806113243103,-1.2646428346633911,-0.8951459527015686
1725892101001985300,12.1299853515625,-0.7171552777290344,-1.2017236948013306,-0.7415134906768799
1725892101020833800,12.148833740234375,-0.6142245531082153,-1.04076087474823,-0.8123738169670105
1725892101039682000,12.16768212890625,-0.6826413869857788,-0.9610430002212524,-0.8389464020729065
1725892101058530600,12.186530517578126,-0.6542361974716187,-0.9644027948379517,-0.9388228058815002
1725892101077379000,12.205379150390625,-0.6053670048713684,-0.6834049820899963,-0.9980766773223877
1725892101096227600,12.2242275390625,-0.536339282989502,-0.5297724604606628,-1.067104458808899
1725892101115075800,12.243075927734376,-0.7312051653862,0.08689551800489426,-1.0872629880905151
1725892101133924400,12.26192431640625,-0.7385355234146118,0.22006404399871826,-1.1871393918991089
1725892101152772900,12.28077294921875,-1.0094540119171143,0.4237874448299408,-1.2436443567276
1725892101171621000,12.29962109375,-1.1487312316894531,0.4839576184749603,-1.0264818668365479
1725892101190469600,12.3184697265625,-1.2275327444076538,0.6809614896774292,-0.6358338594436646
1725892101209318100,12.337318115234375,-1.1145228147506714,0.5206094980239868,-0.44432777166366577
1725892101228166400,12.35616650390625,-0.6969966888427734,0.6779071688652039,-0.16638429462909698
1725892101247015000,12.375014892578125,-0.5705476999282837,0.809548556804657,-0.07719803601503372
1725892101265863400,12.393863525390625,-0.43982264399528503,0.8168789148330688,0.19982914626598358
1725892101284712000,12.4127119140625,-0.41783151030540466,0.4839576184749603,0.3742310404777527
1725892101303560200,12.431560302734376,-0.36193737387657166,0.3400989770889282,0.6307942271232605
1725892101322408700,12.45040869140625,-0.33139413595199585,0.4085158109664917,0.876667320728302
1725892101341257000,12.469257080078124,-0.14599667489528656,0.8605557680130005,0.9652426838874817
1725892101360105500,12.48810546875,-0.02412915788590908,1.4335469007492065,1.0608429908752441
1725892101378954000,12.5069541015625,0.09040798991918564,1.7392847537994385,1.41270112991333
1725892101397802200,12.52580224609375,0.3136790692806244,1.947589635848999,1.6054290533065796
1725892101416650800,12.544650634765626,0.6563742160797119,1.9155192375183105,1.6341396570205688
1725892101435499300,12.563499267578125,0.915075421333313,1.77043879032135,1.53273606300354
1725892101454347800,12.58234765625,0.9031635522842407,1.2472331523895264,1.6396374702453613
1725892101473196000,12.601196044921876,1.0177006721496582,0.9604321718215942,1.6213114261627197
1725892101492044500,12.62004443359375,1.043357014656067,0.680350661277771,1.5293763875961304
1725892101510893000,12.63889306640625,0.9795216917991638,0.578336238861084,1.5379284620285034
1725892101529741300,12.6577412109375,1.0018181800842285,0.43631017208099365,1.5021928548812866
1725892101548589800,12.67658984375,1.147204041481018,0.47723811864852905,1.3137410879135132
1725892101567438300,12.695438232421875,1.2382229566574097,0.29672756791114807,1.3082432746887207
1725892101586286800,12.714286865234374,1.1050543785095215,0.21609342098236084,1.3326778411865234
1725892101605135000,12.733135009765626,0.8051197528839111,0.3773617148399353,1.5110503435134888
1725892101623983600,12.751983642578125,0.8698714375495911,0.3361283540725708,1.1515564918518066
1725892101642832100,12.77083203125,1.0091485977172852,0.3993528485298157,1.0574833154678345
1725892101661680400,12.789680419921876,0.7437278628349304,0.05085449293255806,0.9007964730262756
1725892101680529000,12.80852880859375,0.389120876789093,0.5248855352401733,0.8620065450668335
1725892101699377200,12.827377197265625,0.3912588953971863,0.17974695563316345,0.5880337357521057
1725892101718225700,12.8462255859375,0.3640754222869873,0.13393209874629974,0.34490951895713806
1725892101737074200,12.86507421875,0.19211697578430176,-0.047494735568761826,0.2819904685020447
1725892101755922700,12.883922607421875,0.008246674202382565,0.18890993297100067,0.05933023989200592
1725892101774771000,12.90277099609375,-0.011606430634856224,-0.28206682205200195,-0.06956222653388977
1725892101793619500,12.921619384765625,-0.12095122784376144,-0.08323032408952713,-0.20364704728126526
1725892101812468000,12.940468017578125,-0.185092031955719,0.20509785413742065,-0.4675406217575073
1725892101831316200,12.959316162109374,-0.19394956529140472,0.11102467030286789,-0.7854957580566406
1725892101850164700,12.978164794921875,-0.14813470840454102,0.10277800261974335,-0.8459713459014893
1725892101869013200,12.99701318359375,-0.08093958348035812,0.08720094710588455,-0.881706953048706
1725892101887861500,13.015861572265624,-0.11239911615848541,0.04780016839504242,-1.1935534477233887
1725892101906710000,13.0347099609375,-0.0204639695584774,-0.04046979174017906,-1.279685378074646
1725892101925558300,13.053558349609375,0.06047561392188072,-0.09269873052835464,-1.1480439901351929
1725892101944406800,13.07240673828125,0.06719512492418289,-0.07742711156606674,-1.0554980039596558
1725892101963255300,13.09125537109375,-0.030543239787220955,-0.0691804364323616,-1.0423643589019775
1725892101982103800,13.110103759765625,-0.04062250629067421,-0.14737112820148468,-1.1068105697631836
1725892102000952000,13.1289521484375,0.025350889191031456,-0.2393062710762024,-1.2476149797439575
1725892102019800600,13.147800537109376,0.05222893878817558,-0.13179408013820648,-1.2546398639678955
1725892102038649000,13.166649169921875,0.024740023538470268,-0.46838057041168213,-1.1856122016906738
1725892102057497300,13.185497314453125,-0.09315688163042068,-0.5212203860282898,-1.1831687688827515
1725892102076345900,13.204345947265624,-0.13622283935546875,-0.4653262495994568,-1.233870506286621
1725892102095194000,13.223194091796875,-0.10598503798246384,-0.7389936447143555,-1.1822524070739746
1725892102114042600,13.242042724609375,-0.11667517572641373,-0.8938478827476501,-1.1523200273513794
1725892102132891100,13.26089111328125,-0.1337793916463852,-0.976620078086853,-1.0866520404815674
1725892102151739600,13.27973974609375,-0.10018182545900345,-1.014188289642334,-0.9879974126815796
1725892102170588000,13.298587890625,-0.23457208275794983,-1.1742348670959473,-0.9119447469711304
1725892102189436400,13.3174365234375,-0.40836310386657715,-1.3321434259414673,-0.9614248275756836
1725892102208285000,13.336284912109376,-0.62857985496521,-1.5755729675292969,-1.065882682800293
1725892102227133200,13.35513330078125,-0.7076868414878845,-1.5193734169006348,-1.2207368612289429
1725892102245981700,13.373981689453124,-0.48563748598098755,-1.5245658159255981,-1.0096831321716309
1725892102264830000,13.392829833984376,-0.30115634202957153,-1.1436915397644043,-0.9125556349754333
1725892102283678500,13.411678466796875,-0.22479823231697083,-1.1470513343811035,-1.2271510362625122
1725892102302527000,13.43052685546875,-0.3585776388645172,-1.1580469608306885,-1.4119375944137573
1725892102321375500,13.44937548828125,-0.45387253165245056,-0.8358157277107239,-1.1639264822006226
1725892102340223700,13.4682236328125,-0.4886918365955353,0.11896591633558273,-1.001436471939087
1725892102359072300,13.487072265625,-0.5244274139404297,0.08536835014820099,-1.0808488130569458
1725892102377920500,13.50592041015625,-0.7715222239494324,0.19379685819149017,-0.9553161859512329
1725892102396769000,13.52476904296875,-1.0873392820358276,0.3040579557418823,-0.7943533062934875
1725892102415617500,13.543617431640625,-1.0030399560928345,0.6113229393959045,-0.0939968153834343
1725892102434465800,13.5624658203125,-0.5488619804382324,0.40698865056037903,-0.013057234697043896
1725892102453314300,13.581314208984375,-0.5790998339653015,0.3462076187133789,0.2697731554508209
1725892102472162600,13.60016259765625,-0.5314523577690125,0.3364337682723999,0.4359283745288849
1725892102491011000,13.619010986328124,-0.5271763205528259,-0.052687086164951324,0.606970489025116
1725892102509859600,13.637859619140626,-0.2614501118659973,0.09605848789215088,0.7150935530662537
1725892102528708000,13.6567080078125,-0.17073670029640198,0.4751000702381134,0.6863829493522644
1725892102547556400,13.675556396484374,-0.05589412897825241,0.7591522336006165,0.7645736336708069
1725892102566404900,13.69440478515625,-0.06261363625526428,0.7588467597961426,1.0290781259536743
1725892102585253000,13.713253173828125,0.0766635313630104,0.801301896572113,1.146975040435791
1725892102604101600,13.7321015625,0.2260199636220932,0.8397863507270813,1.26426100730896
1725892102622950100,13.7509501953125,0.43982264399528503,0.957683265209198,1.3833796977996826
1725892102641798400,13.76979833984375,0.37843072414398193,0.753654420375824,1.6203951835632324
1725892102660647000,13.78864697265625,0.4224129915237427,0.8764382600784302,1.7456225156784058
1725892102679495200,13.8074951171875,0.6496546864509583,1.0135773420333862,1.6106213331222534
1725892102698343700,13.82634375,0.6490437984466553,1.1760674715042114,1.7770819664001465
1725892102717192200,13.845192138671875,0.7476984858512878,0.8407026529312134,1.8424445390701294
1725892102736040700,13.864040771484374,0.8271108865737915,0.7707586288452148,1.7190498113632202
1725892102754889000,13.882888916015625,0.7687733173370361,0.7139481902122498,1.7410409450531006
1725892102773737500,13.901737548828125,0.9477567076683044,0.5148062705993652,1.5263220071792603
1725892102792585700,13.920585693359374,0.8060360550880432,0.291229784488678,1.5559489727020264
1725892102811434200,13.939434326171876,0.6423243284225464,0.6491965651512146,1.4185043573379517
1725892102830282800,13.95828271484375,0.7171552777290344,0.34468045830726624,1.533652424812317
1725892102849131000,13.977131103515624,0.5326740741729736,0.23014330863952637,1.3833796977996826
1725892102867979500,13.9959794921875,0.425467312335968,0.25091269612312317,1.3335942029953003
1725892102886827800,14.014827880859375,0.37140578031539917,0.14340050518512726,1.0574833154678345
1725892102905676300,14.03367626953125,0.24220788478851318,0.14828743040561676,0.8103885054588318
1725892102924524800,14.05252490234375,0.0769689604640007,0.02672533318400383,0.6796634197235107
1725892102943373000,14.071373046875,-0.030543239787220955,-0.12721258401870728,0.4814378023147583
1725892102962221600,14.0902216796875,-0.10231985151767731,-0.10063996911048889,0.13385574519634247
1725892102981070000,14.109070068359374,-0.10965022444725037,-0.23075416684150696,0.116751529276371
1725892102999918300,14.12791845703125,-0.1792888194322586,0.01206457894295454,0.024510949850082397
1725892103018766800,14.146766845703125,-0.2412915825843811,-0.058795735239982605,-0.2515999376773834
1725892103037615000,14.165614990234374,-0.2889390289783478,0.016035201027989388,-0.5057196617126465
1725892103056463600,14.184463623046875,-0.22235478460788727,0.019394956529140472,-0.6190351247787476
1725892103075312000,14.20331201171875,-0.12064579129219055,0.22739441692829132,-0.8001564741134644
1725892103094160400,14.222160400390624,-0.0824667438864708,0.05787943676114082,-0.8707113862037659
1725892103113009000,14.2410087890625,-0.06872228533029556,0.006566796451807022,-0.8172607421875
1725892103131857200,14.259857177734375,0.047952886670827866,0.024281874299049377,-0.797102153301239
1725892103150705700,14.27870556640625,0.06505709886550903,-0.04260781779885292,-0.9146936535835266
1725892103169554000,14.297553955078126,0.011911863461136818,-0.09178243577480316,-0.9278272390365601
1725892103188402400,14.31640234375,-0.11911863088607788,-0.05146535858511925,-0.9696714878082275
1725892103207251000,14.3352509765625,-0.21716243028640747,-0.03558287397027016,-1.0680207014083862
1725892103226099500,14.354099365234376,-0.1389717310667038,-0.01206457894295454,-1.102534532546997
1725892103244947700,14.37294775390625,-0.11362084746360779,-0.14340050518512726,-0.9852485060691833
1725892103263796200,14.391796142578125,-0.14782927930355072,-0.2493855506181717,-0.7928261160850525
1725892103282644500,14.41064453125,-0.0922405794262886,-0.4243983030319214,-0.9046143889427185
1725892103301493000,14.429492919921875,-0.1279761642217636,-0.4644099473953247,-1.0667989253997803
1725892103320341200,14.44834130859375,-0.27030766010284424,-0.7139481902122498,-1.0762673616409302
1725892103339189800,14.467189697265624,-0.43829548358917236,-0.7432697415351868,-1.2836560010910034
1725892103358038300,14.486038330078125,-0.37232208251953125,-0.8126028776168823,-1.3459641933441162
1725892103376886500,14.504886474609375,-0.25534147024154663,-0.6247619390487671,-1.1504874229431152
1725892103395735000,14.523735107421874,-0.2965748608112335,-1.1113157272338867,-0.9510400891304016
1725892103414583300,14.542583251953126,-0.6246092319488525,-1.3825397491455078,-1.0942878723144531
1725892103433431800,14.561431884765625,-0.7748819589614868,-1.3489421606063843,-1.4235440492630005
1725892103452280000,14.580280029296874,-0.5656607747077942,-1.504407286643982,-1.4672207832336426
1725892103471128600,14.599128662109376,-0.39889469742774963,-1.8388557434082031,-1.3795617818832397
1725892103489976800,14.617976806640625,-0.5348120927810669,-1.733481526374817,-1.3484076261520386
1725892103508825300,14.636825439453125,-0.467006117105484,-0.9069814682006836,-1.1556798219680786
1725892103527673900,14.655673828125,-0.43860089778900146,-0.04535670951008797,-1.296789526939392
1725892103546522000,14.674522216796875,-0.406530499458313,0.013897174037992954,-1.4965423345565796
1725892103565370600,14.69337060546875,-0.5283980369567871,0.31230461597442627,-1.1382701396942139
1725892103584219100,14.71221923828125,-0.648127555847168,0.7496837973594666,-0.9479857683181763
1725892103603067400,14.7310673828125,-0.8918625712394714,0.10674861818552017,-0.9143882393836975
1725892103621916000,14.749916015625,-0.9755510687828064,0.31413722038269043,-0.2925278842449188
1725892103640764200,14.76876416015625,-0.5803215503692627,0.6678279042243958,0.053832460194826126
1725892103659612700,14.78761279296875,-0.3787361681461334,0.58749920129776,-0.03871355578303337
1725892103678461000,14.8064609375,-0.41844236850738525,0.660802960395813,0.4136318266391754
1725892103697309400,14.825309326171874,-0.27427828311920166,0.6904299259185791,0.49396052956581116
1725892103716158000,14.844157958984376,-0.2669478952884674,0.47204574942588806,0.45394888520240784
1725892103735006200,14.863006103515625,-0.17715078592300415,0.42684176564216614,0.7816778421401978
1725892103753854700,14.881854736328124,0.023518294095993042,0.7738129496574402,0.7874810695648193
1725892103772703000,14.900702880859376,0.24740023910999298,1.0905463695526123,0.7832050323486328
1725892103791551500,14.919551513671875,0.3656025826931,1.0364848375320435,1.116431713104248
1725892103810399700,14.938399658203124,0.40805765986442566,1.089935541152954,1.3806307315826416
1725892103829248300,14.957248291015626,0.6386591196060181,1.1507165431976318,1.4325542449951172
1725892103848096500,14.976096435546875,0.7476984858512878,1.0276272296905518,1.728212833404541
1725892103866945000,14.994945068359375,0.9749401807785034,1.31870436668396,1.579772710800171
1725892103885793300,15.013793212890626,1.3625339269638062,1.598480463027954,1.3925426006317139
1725892103904641800,15.032641845703125,1.3585633039474487,1.51448655128479,1.5351794958114624
1725892103923490300,15.051490234375,1.313359260559082,0.9827287197113037,1.6570470333099365
1725892103942338600,15.070338623046876,1.0949751138687134,0.31352636218070984,1.5318198204040527
1725892103961187000,15.08918701171875,0.767857015132904,0.44211336970329285,1.4921135902404785
1725892103980035600,15.10803564453125,0.9599739909172058,0.42562004923820496,1.4325542449951172
1725892103998883800,15.1268837890625,1.193324327468872,-0.10063996911048889,1.3039672374725342
1725892104017732400,15.145732421875,0.8393282294273376,0.15256348252296448,1.616119146347046
1725892104036580600,15.16458056640625,0.6960803866386414,-0.018173227086663246,1.5290708541870117
1725892104055429000,15.18342919921875,0.5482511520385742,0.13240493834018707,1.512882947921753
1725892104074277400,15.20227734375,0.5769617557525635,-0.23777911067008972,1.4478259086608887
1725892104093126000,15.2211259765625,0.5067123174667358,-0.04657844081521034,1.2737294435501099
1725892104111974100,15.23997412109375,0.34788748621940613,0.07040216773748398,1.3485603332519531
1725892104130822700,15.25882275390625,0.26511532068252563,-0.29214608669281006,1.1576651334762573
1725892104149671000,15.2776708984375,0.27947062253952026,-0.045967575162649155,0.8168025612831116
1725892104168519400,15.29651953125,0.2559523284435272,-0.2997818887233734,0.32566729187965393
1725892104187367700,15.31536767578125,0.28405213356018066,-0.3813323378562927,0.13874267041683197
1725892104206216200,15.33421630859375,0.10476330667734146,-0.1204930767416954,0.10881029069423676
1725892104225064700,15.353064697265625,-0.12003492563962936,-0.3370446562767029,0.0058795735239982605
1725892104243913000,15.371912841796876,-0.5503891706466675,0.15317434072494507,-0.7292962074279785
1725892104262761500,15.390761474609375,-0.5473348498344421,0.20173808932304382,-0.9489020705223083
1725892104281609700,15.409609619140625,-0.47555822134017944,0.33429574966430664,-0.9711986184120178
1725892104300458200,15.428458251953124,-0.3906480371952057,0.1879936307668686,-0.9311869740486145
1725892104319306800,15.447306640625,-0.2208276242017746,-0.2441931962966919,-0.7149408459663391
1725892104338155000,15.466155029296875,-0.022907428443431854,-0.45158177614212036,-0.3862956166267395
1725892104357003500,15.48500341796875,0.04886918142437935,-0.36453354358673096,-0.34231334924697876
1725892104375851800,15.503851806640625,0.050090912729501724,-0.20540328323841095,-0.5478693246841431
1725892104394700300,15.5227001953125,-0.10079269111156464,-0.07284562289714813,-0.7998510599136353
1725892104413548500,15.541548583984374,-0.0308486707508564,0.1259908676147461,-1.0258710384368896
1725892104432397000,15.56039697265625,0.14538581669330597,-0.1253799945116043,-1.1440733671188354
1725892104451245300,15.579245361328125,-0.005803215317428112,-0.3202458620071411,-1.1254420280456543
1725892104470093800,15.59809375,-0.28435754776000977,-0.18005239963531494,-1.156596064567566
1725892104488942000,15.616942138671876,-0.27855435013771057,-0.07131846249103546,-1.426292896270752
1725892104507790600,15.63579052734375,-0.07422006875276566,-0.5325213670730591,-1.462944746017456
1725892104526638800,15.654638916015625,-0.14202606678009033,-0.6629409790039062,-1.2115739583969116
1725892104545487400,15.6734873046875,-0.250149130821228,-0.7267763614654541,-1.1892774105072021
1725892104564335600,15.692335693359375,-0.21746785938739777,-0.6776017546653748,-1.1773655414581299
1725892104583184100,15.71118408203125,-0.22815799713134766,-0.8358157277107239,-1.0551925897598267
1725892104602032400,15.730032470703126,-0.2977965772151947,-1.1559088230133057,-0.9974658489227295
1725892104620881000,15.748880859375,-0.3759872615337372,-1.2881611585617065,-1.0588576793670654
1725892104639729200,15.767729248046875,-0.40836310386657715,-1.1088722944259644,-1.0753511190414429
1725892104658577700,15.78657763671875,-0.46425724029541016,-1.2621994018554688,-1.0432807207107544
1725892104677426000,15.805426025390625,-0.4862483739852905,-1.5719077587127686,-1.2430334091186523
1725892104696274400,15.8242744140625,-0.5012145638465881,-1.3471095561981201,-1.2005783319473267
1725892104715122700,15.843122802734374,-0.34727662801742554,-1.0218240022659302,-1.0777945518493652
1725892104733971200,15.86197119140625,-0.4315759539604187,-1.0551161766052246,-1.1480439901351929
1725892104752819700,15.88081982421875,-0.4871646761894226,-1.0050252676010132,-1.1321614980697632
1725892104771668000,15.89966796875,-0.5723803043365479,-0.388662725687027,-1.0454187393188477
1725892104790516500,15.9185166015625,-0.7205150127410889,-0.47693267464637756,-1.2900700569152832
1725892104809364700,15.93736474609375,-0.8387173414230347,-0.2863428592681885,-1.1798089742660522
1725892104828213200,15.956213134765624,-0.9086613655090332,0.2338084876537323,-0.9308815598487854
1725892104847061500,15.9750615234375,-0.78648841381073,0.46288278698921204,-0.7824414372444153
1725892104865910000,15.993909912109375,-0.7415898442268372,0.46776971220970154,-0.5442041754722595
1725892104884758300,16.01275830078125,-0.6603448390960693,0.5471821427345276,-0.3142135739326477
1725892104903606800,16.031606689453124,-0.5925388336181641,0.3712530732154846,-0.15386156737804413
1725892104922455000,16.050455078125,-0.471587598323822,0.28817546367645264,0.2557232677936554
1725892104941303600,16.069303466796875,-0.2984074354171753,0.5300779342651367,0.27435463666915894
1725892104960151800,16.08815185546875,-0.4529562294483185,0.397825688123703,0.5599339008331299
1725892104979000300,16.107000244140625,-0.4043924808502197,0.45066550374031067,0.9261473417282104
1725892104997848600,16.1258486328125,-0.1496618688106537,0.8962913751602173,0.9704350829124451
1725892105016697000,16.144697021484376,-0.027488915249705315,0.9640973210334778,1.2502111196517944
1725892105035545300,16.16354541015625,0.0204639695584774,0.8758273720741272,1.6558253765106201
1725892105054393900,16.182393798828127,0.3277289569377899,1.0642791986465454,1.513188362121582
1725892105073242000,16.2012421875,0.537255585193634,1.2188279628753662,1.6772055625915527
1725892105092090600,16.220090576171874,0.5513054728507996,1.6155846118927002,1.7999894618988037
1725892105110939000,16.23893896484375,0.5958985686302185,1.2881611585617065,2.016541004180908
1725892105129787400,16.257787353515624,0.6075050234794617,1.060613989830017,2.062966823577881
1725892105148635600,16.2766357421875,0.6661480665206909,0.9827287197113037,1.8577162027359009
1725892105167484200,16.295484130859375,0.712573766708374,0.8223767280578613,1.7947970628738403
1725892105186332400,16.31433251953125,0.7819069027900696,0.7970257997512817,1.5504511594772339
1725892105205181000,16.333180908203126,0.8023709058761597,0.6776017546653748,1.449047565460205
1725892105224029200,16.352029296875,0.9401208758354187,0.5389354228973389,1.442022681236267
1725892105242877700,16.370877685546876,0.8567378520965576,0.268627792596817,1.3534473180770874
1725892105261726000,16.389725830078124,0.5977311730384827,0.494647741317749,1.4997494220733643
1725892105280574500,16.408574462890623,0.7330377101898193,0.22556181252002716,1.4065924882888794
1725892105299422700,16.427422607421875,0.618806004524231,0.2292270064353943,1.384601354598999
1725892105318271200,16.446271240234374,0.2214384824037552,0.20021092891693115,1.5052471160888672
1725892105337119500,16.465119384765625,0.1847866028547287,0.13881902396678925,1.1472804546356201
1725892105355968000,16.483968017578125,0.3543015718460083,0.021838415414094925,0.7893136739730835
1725892105374816300,16.502816162109376,0.42791077494621277,-0.0206166859716177,0.6292670965194702
1725892105393664800,16.521664794921875,0.3136790692806244,-0.07834340631961823,0.6161335110664368
1725892105412513000,16.540512939453127,0.15668681263923645,0.07376192510128021,0.3800342381000519
1725892105431361500,16.559361572265626,0.03451386094093323,-0.04169152304530144,0.11827868968248367
1725892105450209800,16.578209716796874,-0.02932151034474373,0.19471314549446106,-0.04604393243789673
1725892105469058300,16.597058349609377,-0.0772743970155716,-0.04046979174017906,-0.2277761995792389
1725892105487906600,16.615906494140624,-0.29993459582328796,-0.15958842635154724,-0.2589302957057953
1725892105506755000,16.634755126953124,-0.3271180987358093,0.2487746775150299,-0.34322965145111084
1725892105525603300,16.653603271484375,-0.18845178186893463,0.14217877388000488,-0.49075350165367126
1725892105544451800,16.672451904296874,-0.09957095980644226,0.3211621642112732,-0.5640572905540466
1725892105563300000,16.691300048828126,0.1545487940311432,0.15409064292907715,-0.6550761461257935
1725892105582148600,16.710148681640625,0.29565855860710144,-0.023365577682852745,-0.5863538384437561
1725892105600996900,16.728996826171876,0.44898560643196106,0.12018764764070511,-0.5200750231742859
1725892105619845400,16.747845458984376,0.45539969205856323,0.3156643807888031,-0.7115811109542847
1725892105638693600,16.766693603515623,0.24312418699264526,0.3764454126358032,-0.9140827655792236
1725892105657542100,16.785542236328126,0.09529490768909454,0.2655734717845917,-1.0173189640045166
1725892105676390400,16.804390380859374,0.08063415437936783,0.16355904936790466,-1.2943460941314697
1725892105695239000,16.823239013671873,-0.011911863461136818,0.2838993966579437,-1.4290417432785034
1725892105714087200,16.842087158203125,-0.03756818547844887,0.15470150113105774,-1.4064397811889648
1725892105732935400,16.860935302734376,-0.04825831577181816,-0.20112723112106323,-1.2381465435028076
1725892105751784000,16.879783935546875,-0.143553227186203,-0.3767508566379547,-1.0921498537063599
1725892105770632200,16.898632080078126,-0.18325942754745483,-0.5926915407180786,-1.0133483409881592
1725892105789480700,16.917480712890626,-0.18173226714134216,-0.6412553191184998,-1.1065051555633545
1725892105808329000,16.936328857421874,-0.18875721096992493,-0.3966039717197418,-1.0145699977874756
1725892105827177500,16.955177490234377,-0.12583814561367035,-0.5761982202529907,-0.8569669127464294
1725892105846025700,16.974025634765624,-0.11392628401517868,-0.9274454712867737,-0.9950223565101624
1725892105864874200,16.992874267578124,-0.35796675086021423,-0.967457115650177,-1.1523200273513794
1725892105883722500,17.011722412109375,-0.5238165259361267,-1.3119847774505615,-1.3117557764053345
1725892105902571000,17.030571044921874,-0.47097674012184143,-1.049007534980774,-1.6321543455123901
1725892105921419300,17.049419189453126,-0.3652971386909485,-0.8122974634170532,-1.3835324048995972
1725892105940267800,17.068267822265625,-0.250149130821228,-0.9137009978294373,-1.296484112739563
1725892105959116000,17.087115966796876,-0.45875945687294006,-1.365130066871643,-1.5460224151611328
1725892105977964500,17.105964599609376,-0.6459894776344299,-1.4427099227905273,-1.5060107707977295
1725892105996812800,17.124812744140623,-0.6924152374267578,-0.5138899683952332,-1.1309397220611572
1725892106015661000,17.1436611328125,-0.5198459029197693,-0.3474293351173401,-1.0350340604782104
1725892106034509600,17.162509521484374,-0.38209593296051025,-0.3578140437602997,-0.919275164604187
1725892106053357800,17.18135791015625,-0.4975493550300598,-0.5227475166320801,-0.7726675868034363
1725892106072206300,17.200206298828125,-0.7150171995162964,-0.141262486577034,-0.6138427257537842
1725892106091054600,17.2190546875,-0.48563748598098755,0.41218101978302,-0.6746237874031067
1725892106109903000,17.237903076171875,-0.36132651567459106,0.6107120513916016,-0.8239802122116089
1725892106128751400,17.25675146484375,-0.4407389461994171,0.41218101978302,-0.5066359639167786
1725892106147600000,17.275599853515626,-0.23823726177215576,0.33826637268066406,-0.20028728246688843
1725892106166448000,17.2944482421875,-0.15302163362503052,0.30222535133361816,-0.10224349051713943
1725892106185296600,17.313296630859377,0.06352993845939636,0.31291547417640686,0.13049599528312683
1725892106204145000,17.332144775390624,0.011606430634856224,0.18677189946174622,0.32047492265701294
1725892106222993200,17.3509931640625,0.25534147024154663,0.35017824172973633,0.48937904834747314
1725892106241841700,17.369841552734375,0.4315759539604187,0.6742420196533203,0.5287798047065735
1725892106260690000,17.38868994140625,0.39339691400527954,0.7334958910942078,0.9001855850219727
1725892106279538400,17.407538330078125,0.42882707715034485,0.8028290271759033,1.1332305669784546
1725892106298386700,17.42638671875,0.6038398146629333,1.0358740091323853,1.2022582292556763
1725892106317235000,17.44523486328125,0.7412844300270081,1.2930480241775513,1.170493245124817
1725892106336083500,17.46408349609375,0.7431169748306274,1.2664754390716553,1.3268746137619019
1725892106354931700,17.482931640625,0.6774490475654602,1.0083850622177124,1.655519962310791
1725892106373780200,17.5017802734375,0.7409789562225342,1.0337358713150024,1.6326124668121338
1725892106392628500,17.52062841796875,0.7791580557823181,1.162322998046875,1.5287654399871826
1725892106411477000,17.53947705078125,0.7562506198883057,0.9772309064865112,1.8048763275146484
1725892106430325200,17.5583251953125,0.785877525806427,0.5905535221099854,1.8934516906738281
1725892106449173800,17.577173828125,0.5946768522262573,0.6122392416000366,2.0867905616760254
1725892106468022000,17.59602197265625,0.6117810606956482,0.5077813267707825,1.8473314046859741
1725892106486870300,17.614870361328126,0.8081740736961365,0.6385064125061035,1.7627266645431519
1725892106505718800,17.63371875,0.9657772183418274,0.29214608669281006,1.562057614326477
1725892106524567000,17.652567138671873,0.7171552777290344,0.27687445282936096,1.6237549781799316
1725892106543415600,17.67141552734375,0.43310311436653137,0.03436114266514778,1.5302926301956177
1725892106562263800,17.690263916015624,0.47494736313819885,0.16325360536575317,1.330234408378601
1725892106581112300,17.7091123046875,0.6832522749900818,-0.1366809904575348,1.1824051141738892
1725892106599960600,17.727960693359375,0.7583886384963989,-0.12996147572994232,1.0901645421981812
1725892106618809000,17.74680908203125,0.5604684352874756,-0.11255183815956116,1.0196096897125244
1725892106637657300,17.7656572265625,0.24465134739875793,0.01206457894295454,0.7334195375442505
1725892106656505600,17.784505615234377,-0.008246674202382565,0.03649916872382164,0.3326922357082367
1725892106675354000,17.80335400390625,-0.06597339361906052,0.1513417512178421,0.13935352861881256
1725892106694202400,17.822202392578124,-0.07422006875276566,-0.11407899856567383,-0.022220205515623093
1725892106713051000,17.84105078125,-0.12950333952903748,-0.0206166859716177,-0.10957387089729309
1725892106731899100,17.859899169921874,-0.11911863088607788,-0.16019928455352783,-0.1407279670238495
1725892106750747600,17.87874755859375,-0.12522727251052856,-0.0102319847792387,-0.29649847745895386
1725892106769596000,17.897595947265625,-0.05345066636800766,0.05024362727999687,-0.330706924200058
1725892106788444400,17.9164443359375,-0.023518294095993042,-0.04657844081521034,-0.376827210187912
1725892106807292700,17.935292724609376,-0.01893680728971958,0.16294817626476288,-0.40950846672058105
1725892106826141000,17.954140869140623,0.026572618633508682,0.1980729103088379,-0.7381537556648254
1725892106844989400,17.972989501953126,0.029626941308379173,0.23014330863952637,-1.036561131477356
1725892106863837700,17.991837646484374,0.11606431007385254,0.007483093533664942,-0.9892191290855408
1725892106882686200,18.010686279296873,0.12278381735086441,-0.054214250296354294,-0.8759037256240845
1725892106901534500,18.029534423828125,0.08002328872680664,-0.11407899856567383,-1.1465167999267578
1725892106920383000,18.048383056640624,-0.04581485688686371,-0.37369653582572937,-1.429347276687622
1725892106939231200,18.067231201171875,-0.12186752259731293,-0.32330018281936646,-1.4617230892181396
1725892106958079500,18.08607958984375,0.09896009415388107,-0.2750418782234192,-1.3041199445724487
1725892106976928000,18.104927978515626,0.22296564280986786,-0.46685341000556946,-1.092455267906189
1725892106995776300,18.1237763671875,0.1233946830034256,-0.7585413455963135,-1.1214714050292969
1725892107014624800,18.142624755859377,0.001221729558892548,-0.8868229389190674,-1.416824460029602
1725892107033473000,18.16147314453125,-0.13439024984836578,-0.9561560750007629,-1.444313406944275
1725892107052321500,18.180321533203124,-0.10995566099882126,-1.0465641021728516,-1.4849358797073364
1725892107071169800,18.199169677734375,-0.04367683082818985,-0.9329432249069214,-1.3740639686584473
1725892107090018000,18.21801806640625,-0.09071341902017593,-1.2145519256591797,-1.454087257385254
1725892107108866600,18.236866455078125,-0.3042106628417969,-1.1357502937316895,-1.6379575729370117
1725892107127714800,18.25571484375,-0.47006043791770935,-1.142775297164917,-1.5796200037002563
1725892107146563000,18.27456298828125,-0.48075059056282043,-1.2081378698349,-1.5499930381774902
1725892107165411600,18.29341162109375,-0.370184063911438,-0.9176716208457947,-1.3975822925567627
1725892107184259800,18.312259765625,-0.3854556679725647,-0.7506000995635986,-1.3664281368255615
1725892107203108400,18.3311083984375,-0.48075059056282043,-0.7478511929512024,-1.2298998832702637
1725892107221956600,18.34995654296875,-0.5757400393486023,-0.7267763614654541,-1.1737003326416016
1725892107240805000,18.36880517578125,-0.5442805290222168,-0.3416261374950409,-1.0860412120819092
1725892107259653400,18.3876533203125,-0.5302306413650513,0.0038179049734026194,-0.9559270143508911
1725892107278501600,18.406501708984376,-0.5613847374916077,0.11316270381212234,-0.6798161268234253
1725892107297350100,18.42535009765625,-0.6933315396308899,0.20570871233940125,-0.3920988440513611
1725892107316198400,18.444198486328126,-0.748920202255249,0.23503021895885468,-0.2903898358345032
1725892107335047000,18.463046875,-0.7412844300270081,0.23747368156909943,-0.15905392169952393
1725892107353895200,18.481895263671873,-0.42332929372787476,0.7499892115592957,-0.03260490670800209
1725892107372743400,18.500743408203125,-0.21746785938739777,0.7603739500045776,-0.20792309939861298
1725892107391592000,18.519592041015624,-0.3851502537727356,0.3480401933193207,0.10483966767787933
1725892107410440200,18.538440185546875,-0.4880809485912323,0.4845684766769409,0.6158280372619629
1725892107429288700,18.557288818359375,-0.3194822669029236,0.9182825088500977,0.6576722860336304
1725892107448137000,18.576136962890626,-0.07941242307424545,1.1375828981399536,0.45914125442504883
1725892107466985500,18.5949853515625,0.21135921776294708,1.3959786891937256,0.6136900186538696
1725892107485846800,18.6138466796875,0.30970844626426697,1.327561855316162,0.9676861763000488
1725892107504695800,18.63269580078125,0.36712974309921265,1.3779581785202026,1.2502111196517944
1725892107523530500,18.651530517578124,0.5006036758422852,1.0065524578094482,1.4047598838806152
1725892107542378800,18.670378662109375,0.4013381600379944,1.1968368291854858,1.719966173171997
1725892107561227300,18.689227294921874,0.7589994668960571,1.2289072275161743,1.5089123249053955
1725892107580075500,18.708075439453125,1.0012073516845703,1.3180934190750122,1.4032328128814697
1725892107598924000,18.726924072265625,0.9318742156028748,0.9637919068336487,1.7288236618041992
1725892107617772300,18.745772216796876,0.9746347665786743,0.7588467597961426,2.0483059883117676
1725892107636620500,18.76462060546875,0.7987056970596313,0.48365217447280884,1.9102505445480347
1725892107655468800,18.78346875,0.5717694163322449,0.5459604263305664,1.8305326700210571
1725892107674317300,18.8023173828125,0.592233419418335,0.4864010810852051,1.865046501159668
1725892107693165600,18.82116552734375,0.7788525819778442,0.2390008419752121,1.8186208009719849
1725892107712014000,18.84001416015625,0.8176425099372864,0.17058399319648743,1.7046945095062256
1725892107730862300,18.8588623046875,0.8335250020027161,0.13393209874629974,1.5782455205917358
1725892107749710800,18.8777109375,0.6163625717163086,0.2188423126935959,1.188819169998169
1725892107768559000,18.89655908203125,0.3439168632030487,0.2188423126935959,1.0681734085083008
1725892107787407400,18.915407470703126,0.323452889919281,-0.054214250296354294,0.885830283164978
1725892107806255900,18.934255859375,0.2822195291519165,0.03130681812763214,0.7059305906295776
1725892107825104100,18.953104248046873,0.27488914132118225,-0.043829549103975296,0.5858956575393677
1725892107843952600,18.97195263671875,0.07757982611656189,0.046883873641490936,0.22182027995586395
1725892107862801000,18.99080078125,-0.23915356397628784,0.17455461621284485,-0.05826122686266899
1725892107881649400,19.0096494140625,-0.3069595396518707,0.14462223649024963,-0.2070067971944809
1725892107900497700,19.02849755859375,-0.2684750556945801,0.2075413018465042,-0.2690095901489258
1725892107919346000,19.047345947265626,-0.1951712965965271,0.1510363221168518,-0.3032180070877075
1725892107938194400,19.0661943359375,-0.210442915558815,0.1455385386943817,-0.40523242950439453
1725892107957042700,19.085042724609377,-0.21258094906806946,-0.016646064817905426,-0.46173742413520813
1725892107975891200,19.10389111328125,-0.17073670029640198,-0.0102319847792387,-0.6220894455909729
1725892107994739500,19.122739501953124,-0.18875721096992493,0.008399390615522861,-0.8230639100074768
1725892108013588000,19.141587890625,-0.25350889563560486,0.1314886510372162,-0.8872047066688538
1725892108032436200,19.160436279296874,-0.337808221578598,0.20082180202007294,-0.9785290360450745
1725892108051284500,19.179284423828125,-0.25350889563560486,-0.036193739622831345,-1.0072396993637085
1725892108070133000,19.198133056640625,-0.27519458532333374,0.03252854943275452,-1.0710750818252563
1725892108088981200,19.216981201171876,-0.26511532068252563,-0.1464548259973526,-1.0038799047470093
1725892108107829800,19.235829833984376,-0.13591741025447845,-0.6864593029022217,-1.2131011486053467
1725892108126678000,19.254677978515623,-0.1902843713760376,-0.39599308371543884,-1.3053417205810547
1725892108145526500,19.273526611328126,-0.03298669680953026,-0.3217730224132538,-1.1801143884658813
1725892108164374800,19.292374755859374,0.13683371245861053,-0.337350070476532,-1.1657590866088867
1725892108183223000,19.31122314453125,0.16523891687393188,-0.6168206930160522,-1.370704174041748
1725892108202071300,19.3300712890625,0.019242240116000175,-0.7020363211631775,-1.4601958990097046
1725892108220919800,19.348919921875,-0.15027274191379547,-0.6742420196533203,-1.444924235343933
1725892108239768000,19.36776806640625,-0.2684750556945801,-0.9454659819602966,-1.6113849878311157
1725892108258616600,19.386616455078126,-0.37720900774002075,-1.1256710290908813,-1.640401005744934
1725892108277465000,19.405465087890626,-0.35185810923576355,-1.2658644914627075,-1.6171880960464478
1725892108296313300,19.424313232421873,-0.17715078592300415,-1.3391683101654053,-1.6055817604064941
1725892108315161600,19.44316162109375,-0.13652828335762024,-1.391702651977539,-1.4889065027236938
1725892108334009900,19.462009765625,-0.13103049993515015,-1.2292126417160034,-1.4583632946014404
1725892108352858400,19.4808583984375,-0.04520399495959282,-0.9497420191764832,-1.4861576557159424
1725892108371706600,19.49970654296875,-0.1233946830034256,-0.9436333775520325,-1.360930323600769
1725892108390555100,19.51855517578125,-0.22266021370887756,-0.615293562412262,-1.214322805404663
1725892108409403400,19.5374033203125,-0.14813470840454102,0.11102467030286789,-1.2824342250823975
1725892108463578400,19.591578369140624,-0.4221075773239136,0.0334448479115963,-0.7268527150154114
1725892108482426600,19.610426513671875,-0.3860665261745453,-0.08811724185943604,-0.4214203357696533
1725892108501275100,19.629275146484375,-0.24862197041511536,0.30283620953559875,0.16562071442604065
1725892108520123400,19.648123291015626,-0.08429934084415436,0.4812087416648865,0.3378845751285553
1725892108538972000,19.666971923828125,-0.09346231073141098,0.5929969549179077,0.5425242781639099
1725892108557820200,19.685820068359376,-0.02260199747979641,0.5917752385139465,0.9041562080383301
1725892108576668400,19.70466845703125,0.10384701192378998,0.8917098641395569,1.0391573905944824
1725892108595517000,19.723516845703124,0.24434591829776764,1.0193805694580078,0.9725731015205383
1725892108614365200,19.742365234375,0.020769402384757996,0.864220917224884,1.4478259086608887
1725892108633213700,19.761213623046874,0.16187916696071625,0.9405790567398071,1.6872848272323608
1725892108652062000,19.78006201171875,0.5919279456138611,1.4213296175003052,1.2413536310195923
1725892108670910200,19.79891015625,0.7092140316963196,1.2399027347564697,1.4148391485214233
1725892108689758700,19.8177587890625,0.4520399272441864,0.8336777091026306,2.1985785961151123
1725892108708606700,19.836606689453124,1.0158681869506836,1.001665472984314,1.8717660903930664
1725892108727455500,19.85545556640625,0.8448259830474854,0.4298960864543915,1.8070143461227417
1725892108746303700,19.8743037109375,0.35246896743774414,0.08109229803085327,2.1912484169006348
1725892108765152300,19.89315234375,0.16249002516269684,0.300392746925354,2.3354125022888184
1725892108784000500,19.91200048828125,0.544891357421875,0.37430739402770996,1.8772637844085693
1725892108802849000,19.93084912109375,0.7996219992637634,0.801301896572113,1.624976634979248
1725892108821697300,19.949697265625,0.7507528066635132,0.1818849891424179,1.7709733247756958
1725892108840545500,19.968545654296875,0.7141009569168091,0.383470356464386,1.7294344902038574
1725892108859394000,19.98739404296875,0.6927206516265869,0.17821979522705078,1.6207005977630615
1725892108878242300,20.0062421875,0.6059778332710266,-0.2811505198478699,1.2584577798843384
1725892108897090800,20.0250908203125,0.28405213356018066,-0.366060733795166,1.096578598022461
1725892108915939000,20.04393896484375,0.19425499439239502,-0.5578722357749939,1.0165553092956543
1725892108934787600,20.06278759765625,-0.13500112295150757,0.17638720571994781,0.47349655628204346
1725892108953635800,20.0816357421875,-0.14538581669330597,0.03711003437638283,0.6482039093971252
1725892108972484000,20.100484130859375,-0.1954767256975174,-0.1302669197320938,0.7001274228096008
1725892108991332600,20.11933251953125,-0.4062250852584839,-0.006872228812426329,0.404468834400177
1725892109010180900,20.138180908203125,-0.45509424805641174,0.24602578580379486,0.019013166427612305
1725892109029029400,20.157029296875,-0.3543015718460083,0.03222311660647392,0.014737112447619438
1725892109047877600,20.175877685546876,-0.17837251722812653,0.268627792596817,0.0703258067369461
1725892109066726000,20.194725830078124,0.07757982611656189,-0.19990549981594086,0.17967060208320618
1725892109085574400,20.213574462890627,0.007941242307424545,-0.20173808932304382,-0.10193806141614914
1725892109104422700,20.232422607421874,0.023823726922273636,-0.38438665866851807,-0.3401753306388855
1725892109123271200,20.251271240234374,0.08429934084415436,-0.33001968264579773,-0.7745001912117004
1725892109142119400,20.270119384765625,0.16249002516269684,-0.40637779235839844,-1.2436443567276
1725892109160968000,20.288968017578124,0.24740023910999298,-0.2848156988620758,-1.2112685441970825
1725892109179816200,20.307816162109376,0.17837251722812653,-0.20112723112106323,-1.1080323457717896
1725892109198664700,20.326664794921875,-0.004886918235570192,-0.17363831400871277,-1.289459228515625
1725892109217513000,20.345512939453126,-0.19120067358016968,-0.09605848789215088,-1.5539636611938477
1725892109236361200,20.364361328125,-0.19120067358016968,-0.4699077308177948,-1.7958661317825317
1725892109255209700,20.383209716796873,-0.029932374134659767,-0.38560840487480164,-1.6266565322875977
1725892109274058000,20.40205810546875,-0.029932374134659767,-0.5254964232444763,-1.2662463188171387
1725892109292906500,20.420906494140624,-0.20158538222312927,-0.8358157277107239,-1.370704174041748
1725892109311754800,20.439754638671875,-0.2559523284435272,-0.8663589954376221,-1.2558616399765015
1725892109330603300,20.458603271484375,-0.2315177470445633,-0.8614720702171326,-1.0047961473464966
1725892109349451500,20.477451416015626,-0.27000224590301514,-1.0545053482055664,-1.305952548980713
1725892109368300000,20.496300048828125,-0.3121519088745117,-1.0569487810134888,-1.1758383512496948
1725892109387148300,20.515148193359376,-0.20463970303535461,-0.7728966474533081,-1.0701587200164795
1725892109405996500,20.53399658203125,-0.23884813487529755,-0.8718567490577698,-1.4953206777572632
1725892109424845000,20.552844970703124,-0.3946186602115631,-0.8174898028373718,-1.3658173084259033
1725892109443693300,20.571693359375,-0.3121519088745117,-0.049632761627435684,-1.3829214572906494
1725892109462541800,20.590541748046874,-0.3280344009399414,-0.33001968264579773,-1.7292817831039429
1725892109481390000,20.60939013671875,-0.6976075768470764,-0.8449786901473999,-1.5991675853729248
1725892109500238300,20.62823828125,-0.7837395071983337,-0.4741837978363037,-1.2302052974700928
1725892109519086800,20.6470869140625,-0.8216131329536438,0.040775224566459656,-0.983415961265564
1725892109537935000,20.66593505859375,-0.5986474752426147,0.3633118271827698,-0.8209258913993835
1725892109556783600,20.68478369140625,-0.4202749729156494,0.22220206260681152,-0.7616720199584961
1725892109575632000,20.7036318359375,-0.526565432548523,0.10797034949064255,-0.2949713170528412
1725892109594480400,20.72248046875,-0.32192572951316833,0.7286089658737183,0.1833357959985733
1725892109613328600,20.74132861328125,-0.2364046722650528,0.7017309069633484,0.0910952091217041
1725892109632177200,20.76017724609375,-0.2779434621334076,0.30283620953559875,0.19616395235061646
1725892109651025400,20.779025390625,-0.043982263654470444,0.6528617143630981,0.6323214173316956
1725892109669874000,20.7978740234375,0.020769402384757996,0.8672752976417542,0.8320741653442383
1725892109688722200,20.81672216796875,0.07819069176912308,0.8501710295677185,0.969518780708313
1725892109707570400,20.8355703125,0.28038692474365234,1.0181589126586914,1.3146573305130005
1725892109726419000,20.8544189453125,0.37690356373786926,1.0053306818008423,1.440495491027832
1725892109745267200,20.87326708984375,0.3903425931930542,1.2557852268218994,1.3024400472640991
1725892109764115700,20.89211572265625,0.6395754218101501,1.476918339729309,1.5266274213790894
1725892109782964000,20.9109638671875,1.1441497802734375,1.4268274307250977,1.5418990850448608
1725892109801812500,20.9298125,1.2101231813430786,1.1311688423156738,1.5565598011016846
1725892109820660700,20.94866064453125,1.147204041481018,0.6815723776817322,1.9957716464996338
1725892109839509200,20.96750927734375,0.8814778923988342,0.3981311321258545,2.1326053142547607
1725892109858357500,20.986357421875,0.5900954008102417,0.11468986421823502,2.133826971054077
1725892109877206000,21.0052060546875,0.5497782826423645,0.2545779049396515,2.3024256229400635
1725892109896054300,21.02405419921875,0.6682860851287842,-0.10216713696718216,2.121609687805176
1725892109914902500,21.042902587890627,0.646905779838562,0.07315105944871902,1.7636430263519287
1725892109933751000,21.0617509765625,0.4520399272441864,0.1568395346403122,1.7343214750289917
1725892109952599300,21.080599365234374,0.47097674012184143,0.041386090219020844,1.5754966735839844
1725892109971447800,21.09944775390625,0.3787361681461334,0.2582430839538574,1.1362848281860352
1725892109990296000,21.118296142578124,0.23762640357017517,0.18005239963531494,0.978681743144989
1725892110009144600,21.13714453125,0.22174391150474548,0.3095557391643524,0.8400154113769531
1725892110027992800,21.155992919921875,0.2828303873538971,0.0902552679181099,0.6714167594909668
1725892110046841300,21.17484130859375,0.07024945318698883,0.13973531126976013,0.3623191714286804
1725892110065689600,21.193689697265626,-0.24434591829776764,0.2906189262866974,-0.0836121141910553
1725892110084537900,21.212537841796873,-0.347582072019577,0.34926193952560425,-0.386601060628891
1725892110103386400,21.231386474609376,-0.34574946761131287,0.3938550651073456,-0.6498837471008301
1725892110122235000,21.25023486328125,-0.38301220536231995,0.4598284661769867,-0.8056542873382568
1725892110141083100,21.269083251953123,-0.3243691921234131,0.1611155867576599,-0.9406554102897644
1725892110159931400,21.287931396484375,-0.3035998046398163,0.09453132748603821,-0.899727463722229
1725892110178780000,21.30677978515625,-0.21502439677715302,0.25274530053138733,-0.8679624795913696
1725892110197628200,21.325628173828125,-0.10323614627122879,-0.12110394239425659,-0.9058361053466797
1725892110216476700,21.3444765625,-0.16249002516269684,0.06582067906856537,-0.9027817845344543
1725892110235325000,21.363324951171876,-0.13255766034126282,0.05299251899123192,-1.0170135498046875
1725892110254173400,21.38217333984375,-0.16310089826583862,0.15806126594543457,-1.2741875648498535
1725892110273021700,21.401021728515627,-0.08674279600381851,-0.03375028073787689,-1.197218656539917
1725892110291870200,21.4198701171875,0.05864302068948746,-0.3605629503726959,-1.4733295440673828
1725892110310718500,21.438718505859374,0.02260199747979641,-0.15958842635154724,-1.539302945137024
1725892110329567000,21.45756689453125,-0.017715077847242355,-0.6965385675430298,-1.833128809928894
1725892110348415200,21.476415283203124,-0.06352993845939636,-0.6354520916938782,-1.595502495765686
1725892110367263500,21.495263427734375,-0.0030543238390237093,-0.9347758293151855,-1.6046653985977173
1725892110386112000,21.514112060546875,0.029932374134659767,-1.254258155822754,-2.038379430770874
1725892110404960300,21.532960205078126,-0.1954767256975174,-1.4527891874313354,-1.8276311159133911
1725892110423808800,21.551808837890626,-0.23273947834968567,-1.634826898574829,-1.806250810623169
1725892110442657000,21.570656982421873,-0.3646862804889679,-1.4338523149490356,-1.8648937940597534
1725892110461505500,21.589505615234376,-0.49052441120147705,-1.4729477167129517,-1.453170895576477
1725892110480353800,21.608353759765624,-0.2987128794193268,-1.325729250907898,-1.4519492387771606
1725892110499202300,21.627202392578123,-0.16126830875873566,-1.116202712059021,-1.5276964902877808
1725892110518050600,21.646050537109375,-0.3139844834804535,-1.4961605072021484,-1.6523128747940063
1725892110536899000,21.664899169921874,-0.27366742491722107,-0.5328267812728882,-1.342604398727417
1725892110555747300,21.683747314453125,-0.0256563201546669,0.0798705667257309,-1.1428515911102295
1725892110574595800,21.702595947265625,-0.027488915249705315,0.27717989683151245,-1.0512219667434692
1725892110593444000,21.721444091796876,-0.23884813487529755,-0.052076224237680435,-0.5997928380966187
1725892110612292600,21.740292724609375,-0.43493571877479553,0.10063996911048889,-0.2008981555700302
1725892110631140900,21.759140869140627,-0.09285144507884979,0.6149880886077881,-0.012140937149524689
1725892110649989400,21.7779892578125,0.03543015569448471,0.6876810193061829,0.17600540816783905
1725892110668837600,21.796837646484374,-0.023212861269712448,0.4402807950973511,0.7673225402832031
1725892110687686100,21.81568603515625,-0.006719512399286032,0.5056433081626892,1.2248601913452148
1725892110706534400,21.834534423828124,0.03909534588456154,0.781754195690155,1.1485021114349365
1725892110725383000,21.8533828125,0.16065743565559387,0.9063706398010254,1.0165553092956543
1725892110744231200,21.872231201171875,0.25534147024154663,0.8281798958778381,1.2621229887008667
1725892110763079700,21.89107958984375,0.41783151030540466,1.1287254095077515,1.58954656124115
1725892110781928000,21.909927978515626,0.37140578031539917,0.46715885400772095,1.6500221490859985
1725892110800776400,21.9287763671875,0.20891575515270233,0.7414371371269226,1.6469677686691284
1725892110819624700,21.947624755859376,0.37262752652168274,1.233794093132019,1.9010875225067139
1725892110838473200,21.96647314453125,0.831997811794281,1.2747220993041992,1.7557017803192139
1725892110857321500,21.985321533203123,1.1062761545181274,1.2557852268218994,1.829005479812622
1725892110876170000,22.004169921875,1.0439679622650146,0.39080074429512024,2.0898447036743164
1725892110895018200,22.023018310546874,0.7721330523490906,0.3199404180049896,2.0904555320739746
1725892110913866800,22.04186669921875,0.3347539007663727,0.2228129357099533,2.242560863494873
1725892110932715000,22.060715087890625,0.37140578031539917,-0.11316270381212234,2.241950035095215
1725892110951563500,22.0795634765625,0.39767298102378845,-0.4198168218135834,1.8729877471923828
1725892110970411800,22.098411865234375,0.14049890637397766,0.3358229100704193,1.6310852766036987
1725892110989260300,22.11726025390625,0.1490510106086731,0.34376415610313416,1.5211296081542969
1725892111008108500,22.136108642578126,0.3842339515686035,0.030390523374080658,1.0116684436798096
1725892111026957000,22.15495703125,0.20402882993221283,0.42745262384414673,0.7147881388664246
1725892111045805300,22.173805419921877,0.09957095980644226,0.2185368686914444,0.5529089570045471
1725892111064653800,22.19265380859375,-0.003665188793092966,0.2435823380947113,0.1943313628435135
1725892111083502000,22.211502197265624,0.013439024798572063,0.02306014485657215,0.10514509677886963
1725892111102350600,22.2303505859375,-0.0409279391169548,-0.049021899700164795,-0.0011453714687377214
1725892111121198800,22.24919873046875,-0.10751219838857651,0.12873975932598114,-0.2173915058374405
1725892111140047400,22.26804736328125,-0.11972949653863907,-0.06734783947467804,-0.3493382930755615
1725892111158895600,22.2868955078125,-0.164322629570961,-0.1614210158586502,-0.4214203357696533
1725892111177744100,22.305744140625,-0.2254091054201126,-0.014202605932950974,-0.7109702229499817
1725892111196592600,22.324592529296876,-0.1899789422750473,0.19349141418933868,-0.9302706718444824
1725892111215441000,22.34344091796875,-0.05436696484684944,-0.13759729266166687,-0.7421243786811829
1725892111234289400,22.362289306640626,-0.007941242307424545,-0.4815141558647156,-0.7256309986114502
1725892111253137700,22.3811376953125,-0.2974911332130432,0.03222311660647392,-1.0054070949554443
1725892111271986200,22.399986083984373,-0.3634645342826843,-0.25793763995170593,-1.2925134897232056
1725892111290834400,22.41883447265625,-0.1490510106086731,-0.3868301212787628,-1.400025725364685
1725892111309683000,22.437682861328124,0.03176496922969818,-0.35995206236839294,-1.2112685441970825
1725892111328531200,22.45653125,0.1288924664258957,-0.4747946560382843,-0.9797507524490356
1725892111347379700,22.475379638671875,0.10751219838857651,-0.4234820008277893,-1.0787107944488525
1725892111366228000,22.49422802734375,0.16187916696071625,-0.40149086713790894,-1.5521310567855835
1725892111385076500,22.513076416015625,0.04581485688686371,-0.4124864339828491,-1.7708206176757812
1725892111403924700,22.5319248046875,-0.050090912729501724,-0.8248201608657837,-1.722562313079834
1725892111422773200,22.550773193359376,-0.3042106628417969,-1.0905463695526123,-1.9125412702560425
1725892111441621500,22.56962158203125,-0.5528326034545898,-0.7093667387962341,-1.725616693496704
1725892111460470000,22.588469970703127,-0.3897317349910736,-0.6134609580039978,-1.8398483991622925
1725892111479318500,22.607318603515626,-0.3347539007663727,-1.0905463695526123,-2.2472951412200928
1725892111498166800,22.626166748046874,-0.5900954008102417,-1.3629920482635498,-2.1819326877593994
1725892111517015300,22.645015380859373,-0.7348703145980835,-1.0960441827774048,-1.6199370622634888
1725892111535863600,22.663863525390624,-0.7293725609779358,-0.9078977704048157,-1.3694825172424316
1725892111554712000,22.682712158203124,-0.6969966888427734,-0.6464476585388184,-1.0390046834945679
1725892111573560300,22.701560302734375,-0.5522217750549316,-0.4961749315261841,-0.7085267901420593
1725892111592408800,22.720408935546875,-0.5522217750549316,-0.38011062145233154,-0.5509236454963684
1725892111611257300,22.73925732421875,-0.4043924808502197,0.0743727833032608,-0.34811657667160034
1725892111630105600,22.758105712890625,-0.2932150959968567,0.494647741317749,-0.2998582422733307
1725892111648954000,22.7769541015625,-0.36712974309921265,0.3938550651073456,-0.150196373462677
1725892111667802400,22.79580224609375,-0.2528980076313019,0.6656898856163025,0.31467172503471375
1725892111686651000,22.81465087890625,0.06414080411195755,1.2399027347564697,0.5834522247314453
1725892111705499100,22.8334990234375,-0.026878049597144127,1.1537708044052124,0.7166207432746887
1725892111724347600,22.85234765625,-0.0409279391169548,0.7988584041595459,0.96890789270401
1725892111743196200,22.871196044921874,-0.056810423731803894,0.597273051738739,1.1937061548233032
1725892111762044400,22.89004443359375,0.017104214057326317,0.6088794469833374,1.31160306930542
1725892111780893000,22.908892822265624,0.22418737411499023,0.7768672704696655,1.430721640586853
1725892111799741200,22.9277412109375,0.411722868680954,0.8727730512619019,1.466762661933899
1725892111818589700,22.946589599609375,0.6579013466835022,1.070082426071167,1.4459933042526245
1725892111837438000,22.96543798828125,0.9688315391540527,1.1366666555404663,1.726991057395935
1725892111856286500,22.984286376953126,1.196073293685913,1.0267109870910645,1.9719479084014893
1725892111875135000,23.003135009765625,1.1795798540115356,0.826958179473877,1.8345032930374146
1725892111893983200,23.021983154296876,0.934623122215271,0.504421591758728,2.0006585121154785
1725892111912831700,23.040831787109376,0.7971785664558411,0.3938550651073456,2.273715019226074
1725892111931680000,23.059679931640623,0.7751874327659607,-0.09728021919727325,2.1649811267852783
1725892111950528500,23.078528564453126,0.9010255336761475,-0.2078467458486557,1.932241678237915
1725892111969376800,23.097376708984374,0.6517927050590515,-0.162031888961792,1.6933934688568115
1725892111988225300,23.116225341796873,0.1844811588525772,0.17333288490772247,1.4301108121871948
1725892112007073800,23.13507373046875,0.050090912729501724,0.268627792596817,1.2651773691177368
1725892112025922000,23.153922119140624,0.10079269111156464,0.34437501430511475,0.7520508766174316
1725892112044770600,23.1727705078125,0.06047561392188072,0.27840161323547363,0.5309178233146667
1725892112063618800,23.191618896484375,0.13255766034126282,0.051159925758838654,0.4722748398780823
1725892112082467300,23.21046728515625,0.12278381735086441,0.02916879393160343,0.39652758836746216
1725892112101315800,23.22931591796875,-0.05253437161445618,-0.191964253783226,0.15951207280158997
1725892112120164000,23.2481640625,-0.1740964651107788,0.005955931730568409,-0.1043815165758133
1725892112139012600,23.2670126953125,-0.1844811588525772,-0.11804962158203125,-0.24549128115177155
1725892112157861000,23.285861083984376,-0.23335035145282745,-0.12171480804681778,-0.4134790897369385
1725892112176709400,23.30470947265625,-0.18570289015769958,-0.22128576040267944,-0.39454227685928345
1725892112195558000,23.323557861328126,-0.2510654330253601,-0.4430296719074249,-0.41897687315940857
1725892112214406100,23.34240625,-0.38850998878479004,-0.31413722038269043,-0.5723039507865906
1725892112233254700,23.361254638671873,-0.38240134716033936,-0.23716825246810913,-0.7262418866157532
1725892112252103000,23.38010302734375,-0.09407317638397217,-0.4760163724422455,-0.7219657897949219
1725892112270951400,23.398951416015624,0.06841685622930527,-0.439364492893219,-0.7940478324890137
1725892112289800000,23.417800048828123,0.036651886999607086,-0.15225805342197418,-0.9009491801261902
1725892112308648200,23.436648193359375,-0.021380268037319183,-0.46196648478507996,-1.0139591693878174
