time,seconds_elapsed,z,y,x
1725892088920145000,0.048144775390625,0,0,0
1725892088938993400,0.066993408203125,-0.16482067108154297,-0.07052087783813477,-0.059847861528396606
1725892088957841400,0.08584130859375,-0.7514114379882812,-0.2885279655456543,-0.06560279428958893
1725892088976690000,0.10468994140625,-0.5042743682861328,-0.1259315013885498,0.4422000050544739
1725892088995538200,0.1235380859375,-0.11573982238769531,-0.028100013732910156,0.8840982913970947
1725892089014386400,0.142386474609375,2.825669288635254,0.9404137134552002,-0.6991614103317261
1725892089033234700,0.161234619140625,1.2982683181762695,0.6756970882415771,-1.5230094194412231
1725892089052083000,0.1800830078125,0.25089073181152344,0.15159082412719727,-0.5838479995727539
1725892089070931200,0.19893115234375,-0.3065624237060547,0.1408524513244629,-0.21253317594528198
1725892089089779500,0.217779541015625,-0.4012298583984375,-0.009171009063720703,0.04403156042098999
1725892089108627700,0.236627685546875,-1.442734718322754,-0.44806957244873047,1.4742149114608765
1725892089127476200,0.255476318359375,-0.9136123657226562,-0.01768350601196289,1.7796852588653564
1725892089146324200,0.27432421875,-0.4704933166503906,0.17398405075073242,2.011857271194458
1725892089165172700,0.2931728515625,-0.60626220703125,0.10739612579345703,2.530238389968872
1725892089184021000,0.31202099609375,0.15511035919189453,0.8272252082824707,1.814165711402893
1725892089202869200,0.330869140625,1.186502456665039,1.7848949432373047,-0.7081489562988281
1725892089221717500,0.349717529296875,1.352081298828125,2.3443045616149902,-1.377820372581482
1725892089240565800,0.368565673828125,0.17994308471679688,2.044752597808838,-2.5248074531555176
1725892089259414000,0.3874140625,0.44262123107910156,1.8485097885131836,-2.470366954803467
1725892089278262500,0.406262451171875,1.0477361679077148,1.1087470054626465,-1.96645987033844
1725892089297110800,0.42511083984375,1.6020708084106445,1.4110283851623535,-0.49542999267578125
1725892089315959000,0.443958984375,1.705012321472168,1.6874380111694336,-0.18432354927062988
1725892089334807300,0.462807373046875,3.2988901138305664,1.6594257354736328,-3.479320764541626
1725892089353655600,0.481655517578125,1.529414176940918,0.6791548728942871,-3.244264602661133
1725892089372503800,0.50050390625,2.290285587310791,1.4992437362670898,-2.35856032371521
1725892089391352000,0.51935205078125,2.391202449798584,1.0452613830566406,-2.0199499130249023
1725892089410200600,0.53820068359375,2.473207473754883,0.4937419891357422,-4.552955627441406
1725892089429048800,0.557048828125,2.8576393127441406,-2.6822681427001953,-7.077142238616943
1725892089447897000,0.57589697265625,1.7637670040130615,-4.920367240905762,-7.199984550476074
1725892089466745300,0.594745361328125,0.8455994129180908,-5.8239545822143555,-7.143435001373291
1725892089485593600,0.613593505859375,-1.5808305740356445,-5.533875465393066,-7.242547035217285
1725892089504441900,0.63244189453125,0.38206741213798523,-6.056606769561768,-4.795123100280762
1725892089523290400,0.651290283203125,2.408316135406494,-5.084908485412598,-3.887481451034546
1725892089542138600,0.670138671875,1.7392544746398926,-4.1378560066223145,-2.4587063789367676
1725892089560987000,0.68898681640625,0.178483247756958,-4.555161952972412,-2.5064034461975098
1725892089579835100,0.707835205078125,0.21791625022888184,-5.065274238586426,-1.2365641593933105
1725892089598683400,0.726683349609375,1.8237468004226685,-4.204956531524658,0.942683219909668
1725892089617531600,0.74553173828125,3.5620925426483154,-3.4207370281219482,2.2062320709228516
1725892089636380200,0.764380126953125,5.275669574737549,-3.667489528656006,3.080984592437744
1725892089655228400,0.783228515625,4.494568347930908,-2.980875253677368,2.175987720489502
1725892089674076700,0.80207666015625,4.083101272583008,-2.587707996368408,1.1096982955932617
1725892089692925000,0.820925048828125,6.709416389465332,4.897335529327393,26.918712615966797
1725892089711773200,0.839773193359375,-1.6296316385269165,-0.6075897216796875,10.743607521057129
1725892089730621400,0.858621337890625,-0.7771791219711304,-1.2995784282684326,-0.23262405395507812
1725892089749470000,0.877469970703125,-0.7222855091094971,3.031619071960449,-2.293609619140625
1725892089768318200,0.896318115234375,0.2223604917526245,-0.5814056396484375,-1.847360610961914
1725892089787166500,0.91516650390625,1.2376229763031006,-1.0981817245483398,-0.8841524124145508
1725892089806014700,0.9340146484375,-3.515382766723633,1.665146827697754,-0.8182029724121094
1725892089824863000,0.952863037109375,-1.8590483665466309,2.1305899620056152,1.7312231063842773
1725892089843711500,0.97171142578125,-1.6954636573791504,1.1827373504638672,-0.5473766326904297
1725892089862559700,0.990559814453125,-0.0900731086730957,-0.5886502265930176,-3.1672983169555664
1725892089881408000,1.009407958984375,-0.5259008407592773,-2.248237133026123,-3.484005928039551
1725892089900256300,1.02825634765625,0.9277124404907227,-2.063066005706787,-3.4563164710998535
1725892089919104800,1.047104736328125,0.7237706184387207,0.21462202072143555,-0.5309176445007324
1725892089937952800,1.065952880859375,-1.7610678672790527,3.6624794006347656,1.1271228790283203
1725892089956801300,1.08480126953125,-0.515251636505127,5.715703010559082,2.431222915649414
1725892089975649500,1.1036494140625,-4.7387847900390625,-0.24222183227539062,3.200988292694092
1725892089994497800,1.122497802734375,2.6659841537475586,-4.783299446105957,-2.799417018890381
1725892090013346300,1.14134619140625,-0.2958259582519531,-11.102947235107422,-4.1244120597839355
1725892090032194600,1.160194580078125,1.1932461261749268,-6.715625762939453,0.4855170249938965
1725892090051042800,1.179042724609375,4.075901508331299,9.347686767578125,0.8455920219421387
1725892090069891000,1.19789111328125,-1.584792137145996,-1.6430692672729492,2.651261806488037
1725892090088739300,1.2167392578125,0.8950042724609375,-0.9160885810852051,8.044958114624023
1725892090107587800,1.235587890625,3.6830787658691406,-5.067314624786377,5.178081512451172
1725892090126436000,1.25443603515625,8.615898132324219,-2.8311069011688232,-6.427945137023926
1725892090145284400,1.273284423828125,1.8649704456329346,2.930382251739502,-2.9496970176696777
1725892090164132600,1.292132568359375,2.817718029022217,5.202939510345459,1.7152400016784668
1725892090182981000,1.310981201171875,-8.224437713623047,3.2436232566833496,6.392599582672119
1725892090201829400,1.329829345703125,-0.9017899036407471,8.283178329467773,2.133535861968994
1725892090220677600,1.348677734375,0.8396968841552734,3.1277995109558105,-0.30759096145629883
1725892090239526000,1.36752587890625,4.381030559539795,-9.500059127807617,-4.952484130859375
1725892090258374400,1.38637451171875,1.572255253791809,4.851749420166016,-2.889216423034668
1725892090277222700,1.40522265625,-2.6095359325408936,0.6957564353942871,0.8262386322021484
1725892090296071000,1.42407080078125,-5.922795295715332,2.5920567512512207,0.46575164794921875
1725892090314919400,1.44291943359375,-4.1912336349487305,0.09684562683105469,1.269914150238037
1725892090333767700,1.461767578125,1.4775753021240234,-0.393341064453125,-2.9378662109375
1725892090352616000,1.480615966796875,0.2671339511871338,-1.0390701293945312,-5.561958312988281
1725892090371464400,1.49946435546875,4.696247100830078,-0.27867794036865234,2.2517943382263184
1725892090390312400,1.5183125,-1.8329012393951416,-3.5154895782470703,9.404043197631836
1725892090409161000,1.537160888671875,-2.572727680206299,-4.158451080322266,-4.482709884643555
1725892090428009200,1.55600927734375,0.13162636756896973,4.99216890335083,-5.474305629730225
1725892090446857500,1.574857421875,1.5340428352355957,-1.5588860511779785,0.02029275894165039
1725892090465706000,1.5937060546875,1.934149980545044,-8.985530853271484,0.6947407722473145
1725892090484554200,1.61255419921875,-1.2256877422332764,-5.067356109619141,5.933826923370361
1725892090503402500,1.631402587890625,-0.606682300567627,0.3866081237792969,0.4292440414428711
1725892090522251000,1.6502509765625,-0.5922713279724121,1.8655343055725098,-7.75906229019165
1725892090541099300,1.669099365234375,1.4112528562545776,-0.1466827392578125,0.558232307434082
1725892090559947500,1.687947509765625,3.2316339015960693,-6.597393035888672,10.600587844848633
1725892090578796000,1.706796142578125,0.7705352306365967,-2.238284111022949,-8.222517967224121
1725892090597644300,1.725644287109375,-0.6221780776977539,6.22144079208374,-6.5866899490356445
1725892090616492500,1.744492431640625,4.820948600769043,1.0423235893249512,13.524486541748047
1725892090635341000,1.763341064453125,-0.5355823040008545,-0.6856579780578613,4.182084560394287
1725892090654189300,1.782189208984375,-1.48466157913208,6.55342960357666,0.6356768608093262
1725892090673037600,1.80103759765625,1.7307711839675903,-0.3313136100769043,2.3214797973632812
1725892090691886600,1.819886474609375,1.3477247953414917,-2.7294769287109375,-2.0074400901794434
1725892090710734300,1.838734375,1.5559029579162598,2.2677407264709473,-1.9694137573242188
1725892090729582600,1.85758251953125,-2.6526083946228027,3.0952296257019043,-3.439784049987793
1725892090748431000,1.87643115234375,4.919745445251465,-1.4137296676635742,1.9369401931762695
1725892090767279400,1.895279296875,-0.2192544937133789,-0.1571183204650879,3.0543737411499023
1725892090786128000,1.9141279296875,1.0638256072998047,0.5196242332458496,4.404064655303955
1725892090804976000,1.93297607421875,-1.8163635730743408,1.6916632652282715,-0.20670175552368164
1725892090823824400,1.951824462890625,1.9025568962097168,-0.8120903968811035,2.343940258026123
1725892090842673000,1.9706728515625,-0.42798125743865967,-3.4052894115448,1.6052780151367188
1725892090861521200,1.989521240234375,4.348090171813965,-4.715624809265137,-4.274625301361084
1725892090880369400,2.008369384765625,2.8692426681518555,5.1011738777160645,-1.249760627746582
1725892090899218000,2.027218017578125,-4.015560626983643,0.29521608352661133,11.389381408691406
1725892090918066200,2.046066162109375,2.5377039909362793,0.6533112525939941,-2.9429802894592285
1725892090936914400,2.06491455078125,-6.1063971519470215,3.0581483840942383,-3.8009915351867676
1725892090955763000,2.083762939453125,4.339141845703125,-6.4264068603515625,3.172701358795166
1725892090974611200,2.102611083984375,-3.263000965118408,3.5872621536254883,-4.605955600738525
1725892090993459700,2.121459716796875,1.3144850730895996,7.122418403625488,2.3456931114196777
1725892091012308000,2.140307861328125,-5.758766174316406,0.15928411483764648,-2.123025417327881
1725892091031156200,2.15915625,1.7853977680206299,0.30327796936035156,-2.235626697540283
1725892091050004700,2.178004638671875,-7.49540376663208,2.250309467315674,-1.2220396995544434
1725892091068853000,2.19685302734375,-0.6417701244354248,7.082403182983398,2.044826030731201
1725892091087701500,2.215701416015625,-6.38832426071167,1.387411117553711,-4.027497291564941
1725892091106549800,2.2345498046875,-3.1913769245147705,-7.165207386016846,-2.150218963623047
1725892091125398000,2.25339794921875,0.4284965395927429,-0.6806817054748535,-0.7389817237854004
1725892091144246500,2.27224658203125,-0.3588283360004425,6.736283779144287,-3.0353269577026367
1725892091163094800,2.2910947265625,-0.12933728098869324,-0.23260974884033203,-2.6010255813598633
1725892091181943300,2.309943359375,-4.058453559875488,-5.157019138336182,-3.446021556854248
1725892091200791600,2.32879150390625,5.596069812774658,-0.8912391662597656,9.691473960876465
1725892091219640000,2.34764013671875,-0.9249100685119629,2.139158248901367,-0.7767033576965332
1725892091238488300,2.36648828125,3.7000975608825684,-5.052619934082031,-7.954823970794678
1725892091257336600,2.385336669921875,2.9967169761657715,-2.9654433727264404,1.7328858375549316
1725892091276185000,2.40418505859375,2.672990560531616,7.213018417358398,5.033064842224121
1725892091295033300,2.423033447265625,0.5915613770484924,-0.605247974395752,-1.810877799987793
1725892091313881900,2.4418818359375,-3.623785972595215,-3.801213264465332,2.921133041381836
1725892091332730000,2.460730224609375,-4.122241497039795,-8.513670921325684,-1.6143074035644531
1725892091351578600,2.47957861328125,-6.79101037979126,-2.880394458770752,-0.32361650466918945
1725892091370427000,2.498427001953125,-7.908744812011719,-0.23539495468139648,5.928372383117676
1725892091389275400,2.517275390625,-1.7962809801101685,2.193500518798828,-0.5409517288208008
1725892091408123600,2.53612353515625,0.36377400159835815,-1.291275978088379,9.59521198272705
1725892091426972200,2.55497216796875,7.190924167633057,-6.870676040649414,0.5596060752868652
1725892091445820400,2.5738203125,7.382068157196045,-5.55472469329834,-0.16040849685668945
1725892091464669000,2.5926689453125,7.7476301193237305,-2.164966583251953,7.5438995361328125
1725892091483517200,2.61151708984375,3.5852794647216797,-1.78572416305542,6.085392475128174
1725892091502365400,2.630365478515625,-3.47759747505188,-0.9853553771972656,-1.7265310287475586
1725892091521214000,2.6492138671875,-0.10342168807983398,1.9158639907836914,2.434274673461914
1725892091540062200,2.668062255859375,-2.24635910987854,0.06654691696166992,5.264908313751221
1725892091558910700,2.68691064453125,-2.7232301235198975,1.3637018203735352,-1.9738259315490723
1725892091577759000,2.705759033203125,-4.2590155601501465,0.6712017059326172,-1.6470870971679688
1725892091596607500,2.724607421875,2.967137098312378,0.9395089149475098,-5.878951072692871
1725892091615455700,2.743455810546875,-3.88747501373291,7.61430025100708,-7.263038635253906
1725892091634304300,2.76230419921875,4.29810905456543,3.048982620239258,9.004422187805176
1725892091653152500,2.781152587890625,-5.107685089111328,-0.964381217956543,5.875893592834473
1725892091672001000,2.8000009765625,-2.6898326873779297,4.212403297424316,-9.46590805053711
1725892091690849300,2.818849365234375,6.004603385925293,-2.6927194595336914,6.92909049987793
1725892091709697800,2.83769775390625,-2.5503339767456055,-5.077646255493164,-2.8663949966430664
1725892091728546000,2.856546142578125,0.6208828687667847,0.1624889373779297,-7.044868469238281
1725892091747394600,2.87539453125,-1.4215998649597168,1.5528359413146973,-0.4870171546936035
1725892091766242800,2.894242919921875,2.346611976623535,-1.9724116325378418,10.057661056518555
1725892091785091300,2.91309130859375,0.1066967248916626,1.205744743347168,-3.693751811981201
1725892091803939600,2.931939697265625,-5.415106773376465,-0.6532373428344727,-1.2466158866882324
1725892091822788000,2.9507880859375,8.144880294799805,-6.1276469230651855,3.4533700942993164
1725892091841636400,2.96963623046875,3.784219264984131,-0.542607307434082,-0.7489829063415527
1725892091860484900,2.98848486328125,-1.8538020849227905,-0.23881292343139648,-1.3408770561218262
1725892091879333400,3.00733349609375,0.21988964080810547,-0.7360720634460449,-0.5661230087280273
1725892091898181600,3.026181640625,0.6374683380126953,-1.6744675636291504,-0.7161087989807129
1725892091917030100,3.045030029296875,0.6847386360168457,-2.7287988662719727,2.0096302032470703
1725892091935878400,3.06387841796875,-0.11877727508544922,-1.4933662414550781,2.2209300994873047
1725892091954727000,3.082726806640625,-1.2350893020629883,0.9370150566101074,-2.714362144470215
1725892091973575200,3.1015751953125,-4.64874267578125,2.0387535095214844,-3.234358787536621
1725892091992423700,3.120423583984375,-0.8934056758880615,-1.0611679553985596,1.950535774230957
1725892092011272000,3.13927197265625,5.301152229309082,4.127892971038818,1.8945188522338867
1725892092030120400,3.158120361328125,-6.358563423156738,1.994187831878662,-0.20377731323242188
1725892092048968700,3.17696875,-2.9719793796539307,0.4036064147949219,-1.253272533416748
1725892092067817200,3.195817138671875,2.587921142578125,0.8392739295959473,2.1485238075256348
1725892092086665500,3.21466552734375,-0.7526166439056396,-0.15282869338989258,-0.9211673736572266
1725892092105514000,3.233513916015625,1.9170334339141846,-0.20833396911621094,0.6484847068786621
1725892092124362500,3.252362548828125,3.0188026428222656,-0.4409341812133789,3.299635887145996
1725892092143210800,3.271210693359375,-0.5895259380340576,-1.5314795970916748,-0.19634008407592773
1725892092162059300,3.290059326171875,-1.0495874881744385,3.367079257965088,-1.7900962829589844
1725892092180907800,3.30890771484375,1.5351133346557617,-4.044094085693359,2.5538511276245117
1725892092199756000,3.327756103515625,3.8999276161193848,-0.551976203918457,-0.10003948211669922
1725892092218604500,3.3466044921875,0.802433967590332,-0.589360237121582,1.1238226890563965
1725892092237452800,3.365452880859375,-4.629194259643555,0.9052028656005859,-0.1825566291809082
1725892092256301300,3.38430126953125,4.518481731414795,-1.6413483619689941,9.412336349487305
1725892092275149600,3.403149658203125,9.756160736083984,-1.971562385559082,7.155145168304443
1725892092293998000,3.421998046875,6.51324987411499,-2.4464235305786133,5.513315677642822
1725892092312846600,3.4408466796875,7.63429069519043,-2.9039816856384277,7.171610355377197
1725892092331694800,3.45969482421875,3.9697513580322266,-2.9311633110046387,0.5033440589904785
1725892092350543400,3.47854345703125,-1.5004615783691406,-5.501575946807861,-2.678424835205078
1725892092369391600,3.4973916015625,-4.681477069854736,-5.598097801208496,-2.9922091960906982
1725892092388240100,3.516240234375,-7.638665676116943,-5.3565754890441895,-2.965731620788574
1725892092407088600,3.535088623046875,-8.940011978149414,-5.869686126708984,-3.265198230743408
1725892092425937000,3.55393701171875,-8.612998008728027,-5.624588489532471,-2.4077417850494385
1725892092444785400,3.572785400390625,-7.784130096435547,-4.529006481170654,-1.4376658201217651
1725892092463634000,3.591634033203125,-7.405690670013428,-2.7396230697631836,-1.4097137451171875
1725892092482482200,3.610482177734375,-4.590351581573486,-0.8405494689941406,-1.2188308238983154
1725892092501330700,3.62933056640625,-0.3592691421508789,0.6874017715454102,-0.6582995653152466
1725892092520179000,3.648178955078125,2.8171463012695312,0.9204506874084473,-0.8943061828613281
1725892092539027500,3.66702734375,4.145917892456055,1.7060937881469727,-1.5047881603240967
1725892092557876000,3.6858759765625,4.809568405151367,1.5505313873291016,-1.586712121963501
1725892092576724200,3.70472412109375,3.6929540634155273,1.944530725479126,-1.8664580583572388
1725892092595572700,3.72357275390625,1.3549222946166992,2.7622249126434326,-2.046257972717285
1725892092614421000,3.7424208984375,-0.06647777557373047,2.308683395385742,-1.8255102634429932
1725892092633269500,3.76126953125,-0.3427743911743164,1.5808205604553223,-1.3922975063323975
1725892092652118000,3.780117919921875,0.7646913528442383,0.8510456085205078,-1.5755184888839722
1725892092670966500,3.798966552734375,-0.44972991943359375,0.08624124526977539,-1.5626029968261719
1725892092689814800,3.817814697265625,-0.02503490447998047,-0.012293815612792969,-0.9965803623199463
1725892092708663300,3.836663330078125,0.4214305877685547,-0.6732616424560547,-0.8154519200325012
1725892092727511600,3.855511474609375,0.6593770980834961,-1.1581332683563232,-1.3105732202529907
1725892092746360000,3.874360107421875,1.1035633087158203,-1.0933027267456055,-1.3966679573059082
1725892092765208600,3.89320849609375,2.240260124206543,-0.5404748916625977,-0.521655261516571
1725892092784056800,3.912056884765625,2.7390193939208984,-0.7181153297424316,-0.6030905842781067
1725892092802905300,3.9309052734375,2.4120588302612305,-0.7577824592590332,-0.9354909062385559
1725892092821753900,3.94975390625,1.930267333984375,-1.1431670188903809,-1.1799685955047607
1725892092840602400,3.968602294921875,2.154214859008789,-0.2746615409851074,-0.3371064364910126
1725892092859450600,3.98745068359375,2.020340919494629,0.027080059051513672,-0.18998192250728607
1725892092878299100,4.006299072265625,1.3772907257080078,-0.25978517532348633,0.054631058126688004
1725892092897147400,4.0251474609375,0.5239667892456055,0.09603595733642578,-0.2367391735315323
1725892092915996000,4.043995849609375,0.41754722595214844,-0.4309868812561035,-0.11183968186378479
1725892092934844400,4.062844482421875,-0.9380521774291992,-0.31314826011657715,-1.4749090671539307
1725892092953692700,4.081692626953125,0.6440010070800781,1.6763286590576172,-1.0857181549072266
1725892092972541200,4.100541259765625,0.23750686645507812,0.44988322257995605,-0.7770664691925049
1725892092991389700,4.1193896484375,1.1536064147949219,-0.40406012535095215,-0.3763265907764435
1725892093010238200,4.13823828125,0.9463205337524414,-0.045911550521850586,-0.48200565576553345
1725892093029086500,4.15708642578125,0.9405088424682617,1.4699320793151855,-1.1856662034988403
1725892093047935000,4.17593505859375,-0.5660171508789062,1.0368866920471191,-1.5804805755615234
1725892093066783500,4.194783447265625,-0.4234628677368164,0.20506620407104492,0.7936344146728516
1725892093085631700,4.2136318359375,-0.7489643096923828,-0.5980608463287354,2.347320318222046
1725892093104480300,4.232480224609375,-0.8023004531860352,-0.9240306615829468,1.7200031280517578
1725892093123328800,4.251328857421875,-0.31743431091308594,-0.7659763693809509,1.643237590789795
1725892093142177000,4.270177001953125,-0.3377037048339844,-1.13544499874115,2.026660203933716
1725892093161025500,4.289025634765625,-0.2920560836791992,-1.5542396306991577,1.5175449848175049
1725892093179873800,4.307873779296875,-0.04983329772949219,-1.3401288986206055,0.9554612636566162
1725892093198722300,4.326722412109375,0.14038658142089844,-0.7821531295776367,0.22699689865112305
1725892093217570800,4.34557080078125,-0.020862579345703125,-0.9652361869812012,-0.3173234462738037
1725892093236419300,4.36441943359375,-0.8454208374023438,-1.1892287731170654,-0.16406631469726562
1725892093255267600,4.383267578125,-1.0165443420410156,-0.7042409181594849,-0.23380827903747559
1725892093274116000,4.4021162109375,-0.7732381820678711,-0.8715158700942993,0.04347848892211914
1725892093292964600,4.420964599609375,-0.9896116256713867,-1.4947426319122314,0.4169585704803467
1725892093311812900,4.439812744140625,-0.8821010589599609,-1.4479055404663086,0.4364321231842041
1725892093330661400,4.458661376953125,-0.5196247100830078,-1.3632917404174805,0.024117231369018555
1725892093349510000,4.477510009765625,-0.7748079299926758,-1.763230323791504,-0.261059045791626
1725892093368358400,4.4963583984375,-1.4699077606201172,-1.435560941696167,-0.16031861305236816
1725892093387206700,4.51520654296875,-1.916219711303711,-1.1619603633880615,0.16290855407714844
1725892093406055200,4.53405517578125,-1.3567652702331543,-1.011281132698059,0.5176899433135986
1725892093424903700,4.552903564453125,-1.0001344680786133,-1.4449512958526611,0.7193489074707031
1725892093443752000,4.571751953125,-0.6582350730895996,-1.4377720355987549,0.9259376525878906
1725892093462600400,4.590600341796875,-0.5768556594848633,-1.4236019849777222,1.3722209930419922
1725892093481449000,4.609448974609375,-0.6394929885864258,-1.879239559173584,1.5158576965332031
1725892093500297500,4.62829736328125,-0.5953478813171387,-2.258314609527588,0.9209632873535156
1725892093519146000,4.64714599609375,-0.04839468002319336,-2.6227970123291016,0.7721590995788574
1725892093537994200,4.665994140625,0.9558849334716797,-2.261415958404541,-0.33673906326293945
1725892093556842800,4.6848427734375,0.46569395065307617,-2.5666592121124268,-1.277238368988037
1725892093575691300,4.703691162109375,-0.3986372947692871,-3.738492012023926,-1.975687026977539
1725892093594539500,4.72253955078125,-1.0104293823242188,-2.4844141006469727,-3.494284152984619
1725892093613388000,4.741387939453125,-0.8671960830688477,-2.2457776069641113,-3.4409475326538086
1725892093632236500,4.760236572265625,-0.26779234409332275,-2.3164939880371094,-2.9380249977111816
1725892093651085000,4.7790849609375,0.13795530796051025,-2.0613112449645996,-2.1698966026306152
1725892093669933300,4.797933349609375,-0.061733901500701904,-1.4852771759033203,-2.19549560546875
1725892093688781800,4.81678173828125,-0.030463457107543945,-0.6579844951629639,-1.3918256759643555
1725892093707630300,4.83563037109375,-0.43932175636291504,-0.5180556774139404,-0.2281360626220703
1725892093726478600,4.854478515625,0.251029908657074,-0.05248618125915527,0.45708179473876953
1725892093745327000,4.8733271484375,1.154280424118042,0.4212818145751953,1.8236608505249023
1725892093764175600,4.892175537109375,1.6679233312606812,0.8611705303192139,2.233944892883301
1725892093783024000,4.911024169921875,2.7710719108581543,0.5048397779464722,3.121723175048828
1725892093801872600,4.92987255859375,4.08454704284668,-0.3158777356147766,3.9115819931030273
1725892093820721000,4.948720947265625,4.770460605621338,-0.7507040500640869,4.523372650146484
1725892093839569400,4.9675693359375,4.227629661560059,-1.0151435136795044,4.160309791564941
1725892093858418000,4.98641796875,4.050029754638672,-1.0147624015808105,3.185811996459961
1725892093877266400,5.005266357421875,3.5167951583862305,-1.2052239179611206,2.4788875579833984
1725892093896114700,5.02411474609375,2.336214303970337,-2.845010757446289,0.08843135833740234
1725892093914963200,5.042963134765625,0.9227919578552246,1.4033981561660767,-0.732874870300293
1725892093933811700,5.061811767578125,0.5970092415809631,0.6340692043304443,1.490818977355957
1725892093952660000,5.080659912109375,-0.6570143699645996,0.3282358646392822,2.2899227142333984
1725892093971508500,5.099508544921875,-2.112093925476074,0.22457951307296753,2.848621368408203
1725892093990357000,5.11835693359375,-10.2805814743042,2.6053497791290283,1.7766122817993164
1725892094009205500,5.13720556640625,-15.306562423706055,4.1255340576171875,0.6397857666015625
1725892094028054000,5.156053955078125,-4.872297763824463,4.506962776184082,0.4010581970214844
1725892094046902300,5.17490234375,0.5264689326286316,0.6951978206634521,2.554409980773926
1725892094065750800,5.193750732421875,2.4015917778015137,1.3812921047210693,3.6492786407470703
1725892094084599300,5.212599365234375,3.0137414932250977,1.6446261405944824,2.0445032119750977
1725892094103447600,5.231447509765625,2.27116322517395,0.5664072036743164,0.9230213165283203
1725892094122296300,5.25029638671875,1.1132363080978394,-0.7315184473991394,0.2330789566040039
1725892094141144600,5.26914453125,0.7808650732040405,-1.2204440832138062,-0.916111946105957
1725892094159993000,5.2879931640625,0.6442179083824158,0.09570378065109253,-1.3337841033935547
1725892094178841600,5.306841552734375,1.6271157264709473,0.18751412630081177,-0.5763978958129883
1725892094197689900,5.32568994140625,2.5165719985961914,-2.340038776397705,0.013836860656738281
1725892094216538400,5.344538330078125,1.8922953605651855,-2.3604133129119873,-0.7392778396606445
1725892094235387000,5.363386962890625,1.755279302597046,-0.4035559296607971,-1.5560617446899414
1725892094254235400,5.3822353515625,-0.963902473449707,-0.3742479085922241,-2.2663516998291016
1725892094273084000,5.401083984375,-1.9486017227172852,0.7340593934059143,-1.732640266418457
1725892094291932200,5.41993212890625,-2.5396368503570557,1.2906489372253418,-1.8383584022521973
1725892094310780700,5.43878076171875,-2.6107635498046875,-0.14971980452537537,-0.29340076446533203
1725892094329629200,5.457629150390625,-0.9014711380004883,-1.0556949377059937,1.682234764099121
1725892094348477400,5.4764775390625,0.07544970512390137,-1.2653999328613281,1.9201583862304688
1725892094367326200,5.495326171875,0.482896089553833,-1.3699644804000854,0.736846923828125
1725892094386174500,5.514174560546875,0.896583080291748,-1.3230721950531006,-0.5355472564697266
1725892094405023000,5.53302294921875,1.0447413921356201,-0.9270907044410706,-0.8655681610107422
1725892094423871500,5.55187158203125,0.7232701778411865,-1.1145063638687134,0.03782176971435547
1725892094442719700,5.5707197265625,0.9640076160430908,-0.63303542137146,-0.20567798614501953
1725892094461568300,5.589568359375,-1.7962279319763184,0.9402729272842407,5.435254096984863
1725892094480416800,5.608416748046875,0.5920147895812988,0.5148444175720215,-2.4809951782226562
1725892094499265300,5.627265380859375,-0.6553223133087158,-1.0106987953186035,-3.6224918365478516
1725892094518113800,5.64611376953125,-0.015296220779418945,-1.5142509937286377,-2.7073988914489746
1725892094536962000,5.664962158203125,-0.25685811042785645,-0.3108682632446289,-0.13897323608398438
1725892094555810600,5.683810546875,-1.3528916835784912,0.6346859931945801,-0.215606689453125
1725892094574659000,5.7026591796875,-0.4358201026916504,0.2151949405670166,0.5183429718017578
1725892094593507600,5.721507568359375,0.19780242443084717,-0.8465874195098877,0.7736320495605469
1725892094612356000,5.740356201171875,-1.3474738597869873,-0.5913207530975342,-0.48744678497314453
1725892094631204400,5.759204345703125,-1.2224855422973633,0.10490012168884277,-0.4057903289794922
1725892094650052900,5.778052978515625,0.6560242176055908,-1.0395593643188477,0.34978294372558594
1725892094668901400,5.7969013671875,1.8668663501739502,-0.8259091377258301,0.8468761444091797
1725892094687750000,5.81575,0.6551340222358704,-0.6216678619384766,0.5801677703857422
1725892094706598400,5.834598388671875,0.10325193405151367,-0.9323034286499023,-0.34276676177978516
1725892094725446700,5.85344677734375,0.20028400421142578,-1.8110251426696777,-0.7727527618408203
1725892094744295200,5.872295166015625,0.19284099340438843,-1.2291679382324219,-1.6540865898132324
1725892094763143700,5.891143798828125,0.9987114667892456,-1.1050634384155273,-1.3673362731933594
1725892094781992200,5.9099921875,-0.1495727300643921,-0.5753521919250488,-1.426527976989746
1725892094800840700,5.9288408203125,-0.36483824253082275,-0.1013951301574707,-1.0788192749023438
1725892094819689000,5.94768896484375,0.7975190281867981,1.5027406215667725,-1.2766218185424805
1725892094838537500,5.966537353515625,1.123826265335083,1.4808673858642578,0.15560150146484375
1725892094857386000,5.985385986328125,0.9777481555938721,1.6763529777526855,0.4687948226928711
1725892094876247600,6.00424755859375,1.1553000211715698,0.4492807388305664,1.5906171798706055
1725892094895095000,6.023094970703125,0.3357931971549988,-0.9253268241882324,1.8316679000854492
1725892094913931500,6.041931640625,-1.9658857583999634,-1.1228537559509277,0.7557792663574219
1725892094932779800,6.06077978515625,-0.9527735710144043,-0.08937788009643555,-1.5528030395507812
1725892094951628300,6.079628173828125,-0.3523944616317749,-0.9992556571960449,-0.5123996734619141
1725892094970476800,6.098476806640625,0.6073077917098999,0.4549524784088135,-0.6129856109619141
1725892094989325300,6.1173251953125,0.13320612907409668,1.7973370552062988,-0.6329975128173828
1725892095008173800,6.136173828125,-0.6955859661102295,2.076751232147217,-0.6056861877441406
1725892095027022000,6.15502197265625,-0.43981027603149414,1.322265625,-0.7179298400878906
1725892095045870600,6.17387060546875,-0.5559602975845337,0.12967777252197266,1.697575569152832
1725892095064719000,6.192718994140625,-1.9247840642929077,0.6468887329101562,0.2661876678466797
1725892095083567600,6.211567626953125,-0.7348546981811523,-0.3048269748687744,0.32581138610839844
1725892095102416100,6.230416015625,-1.1169370412826538,-0.27077150344848633,0.5273027420043945
1725892095121264600,6.2492646484375,0.516089141368866,-0.25880002975463867,-0.7648582458496094
1725892095140113000,6.26811279296875,2.96209979057312,-1.424802541732788,0.1737651824951172
1725892095158961400,6.28696142578125,1.9209647178649902,-2.0296409130096436,-0.9956140518188477
1725892095177810000,6.305809814453125,1.5098143815994263,-0.9988198280334473,-1.2514472007751465
1725892095196658400,6.324658447265625,2.2977874279022217,-1.065650224685669,-1.4586100578308105
1725892095215507000,6.3435068359375,0.8823857307434082,-0.6997659206390381,-0.9613313674926758
1725892095234355200,6.362355224609375,-0.19331300258636475,-1.3780052661895752,-0.23584747314453125
1725892095253203700,6.38120361328125,0.1641383171081543,-0.6997129917144775,-0.7291011810302734
1725892095272052200,6.40005224609375,-0.3932849168777466,-1.0298049449920654,-0.2062978744506836
1725892095290900700,6.418900634765625,0.7937589287757874,0.05987238883972168,-0.30083465576171875
1725892095309749200,6.437749267578125,2.342726230621338,1.2924554347991943,-1.949570655822754
1725892095328597800,6.45659765625,2.11502742767334,0.6103227138519287,-0.9894628524780273
1725892095347446000,6.475446044921875,-0.04370713233947754,0.8971056938171387,-0.761871337890625
1725892095366294500,6.49429443359375,0.12255859375,0.4958477020263672,-1.6568117141723633
1725892095385143000,6.51314306640625,1.1470179557800293,-1.4860954284667969,0.10402584075927734
1725892095403991600,6.531991455078125,1.7672438621520996,-0.43834781646728516,0.6854171752929688
1725892095422840000,6.550840087890625,2.8905673027038574,1.1365118026733398,1.375056266784668
1725892095441688300,6.569688232421875,-0.8119509220123291,-1.1756491661071777,2.09273624420166
1725892095460536800,6.588536865234375,1.0728917121887207,-0.4190378189086914,-0.6057882308959961
1725892095479385300,6.60738525390625,-1.114471435546875,-1.566615343093872,-0.9279155731201172
1725892095498233900,6.62623388671875,-3.463318109512329,-0.31058669090270996,-0.8313236236572266
1725892095517082400,6.645082275390625,-0.5592081546783447,1.016134262084961,-1.5021476745605469
1725892095535931000,6.663930908203125,0.48992180824279785,1.7244517803192139,-0.015110015869140625
1725892095554779100,6.682779052734375,0.22062182426452637,2.130873441696167,-0.09530353546142578
1725892095573627600,6.701627685546875,0.4657022953033447,1.3340272903442383,-0.5716586112976074
1725892095592476200,6.72047607421875,-0.08114457130432129,-0.49396705627441406,-1.168619155883789
1725892095611324700,6.73932470703125,0.2668154239654541,0.24077677726745605,-1.3098649978637695
1725892095630173200,6.758173095703125,-0.4624457359313965,0.8247594833374023,-0.7702665328979492
1725892095649021700,6.777021728515625,0.021239757537841797,1.591944932937622,0.40960693359375
1725892095667870000,6.795869873046875,1.824794054031372,0.22777938842773438,2.0814523696899414
1725892095686718500,6.814718505859375,0.7297818660736084,-0.025423526763916016,2.8938522338867188
1725892095705567000,6.83356689453125,-1.2959635257720947,-0.8183660507202148,1.860891342163086
1725892095724415500,6.85241552734375,-1.1282014846801758,-1.1867365837097168,-0.4786949157714844
1725892095743264000,6.871263916015625,-1.5217292308807373,-0.9070849418640137,-1.5293593406677246
1725892095762112500,6.890112548828125,-0.8262012004852295,0.4925804138183594,-1.2498774528503418
1725892095780961000,6.9089609375,-0.17558836936950684,1.7510547637939453,-1.8897747993469238
1725892095799809300,6.927809326171875,-0.017278075218200684,2.4685611724853516,-1.6918344497680664
1725892095818657800,6.94665771484375,2.819068431854248,4.38035249710083,-2.6424455642700195
1725892095837506300,6.96550634765625,3.9263267517089844,3.334538459777832,-5.252330780029297
1725892095856354800,6.984354736328125,1.4709144830703735,-1.2167854309082031,2.734039783477783
1725892095875203300,7.003203369140625,4.061440467834473,-2.789381980895996,3.727975845336914
1725892095894051800,7.0220517578125,1.438729166984558,-1.7991008758544922,4.3451433181762695
1725892095912900000,7.040900146484375,-0.9268462657928467,-0.07327508926391602,2.703115940093994
1725892095931748600,7.05974853515625,-4.078017234802246,0.4583315849304199,1.2489805221557617
1725892095950597000,7.07859716796875,-2.161433696746826,-1.0936312675476074,1.2732934951782227
1725892095969445600,7.097445556640625,1.8009774684906006,-1.7334094047546387,0.6125168800354004
1725892095988294100,7.116294189453125,3.754833221435547,-2.9774088859558105,-1.1852669715881348
1725892096007142700,7.135142578125,1.2964863777160645,-2.139784812927246,0.017388343811035156
1725892096025991000,7.153990966796875,-2.580625534057617,-0.02687358856201172,0.43768787384033203
1725892096044839400,7.17283935546875,-0.47658777236938477,-0.5559406280517578,0.0080718994140625
1725892096063688000,7.19168798828125,0.5461850166320801,-0.8134126663208008,-1.5246353149414062
1725892096082536400,7.210536376953125,0.699183464050293,-0.008681774139404297,-1.6194219589233398
1725892096101385000,7.229385009765625,0.8777871131896973,-3.3943114280700684,-0.6041297912597656
1725892096120233500,7.2482333984375,1.9508674144744873,-2.2788643836975098,0.6815147399902344
1725892096139081700,7.267081787109375,0.3077683448791504,-3.832901954650879,-1.4468731880187988
1725892096157930500,7.285930419921875,0.10809993743896484,-4.777902603149414,-1.772707462310791
1725892096176778800,7.30477880859375,0.9968953132629395,-4.162439346313477,-2.76692533493042
1725892096195627300,7.323627197265625,1.0906493663787842,-2.075446605682373,-2.187804698944092
1725892096214475800,7.342475830078125,0.6673083305358887,-0.8766388893127441,-0.9319782257080078
1725892096233324300,7.36132421875,0.4683043956756592,0.5225086212158203,2.273189067840576
1725892096252172500,7.380172607421875,-0.057309627532958984,2.157991886138916,2.1076159477233887
1725892096271021300,7.399021240234375,0.5505809783935547,1.5664639472961426,0.9381875991821289
1725892096289869600,7.41786962890625,0.7418370246887207,1.7021832466125488,1.2941031455993652
1725892096308733200,7.436733154296875,0.033962249755859375,2.892760753631592,0.7191181182861328
1725892096327566600,7.455566650390625,-0.10050535202026367,4.541965484619141,0.5129728317260742
1725892096346415000,7.4744150390625,0.12770462036132812,1.1506195068359375,2.7841262817382812
1725892096365263600,7.493263671875,-1.0313200950622559,-1.9618148803710938,1.6930828094482422
1725892096384112000,7.512112060546875,-0.6527132987976074,-0.7115654945373535,3.0086750984191895
1725892096402960400,7.53096044921875,-0.3174905776977539,-1.9686541557312012,-0.2804751396179199
1725892096421809000,7.549808837890625,0.4947657585144043,-4.3077712059021,-6.187799453735352
1725892096440657400,7.568657470703125,0.8699376583099365,-3.871264934539795,-4.934598445892334
1725892096459506000,7.587505859375,-0.2672910690307617,-2.7344088554382324,-0.6534342765808105
1725892096478354400,7.6063544921875,-2.0843467712402344,-1.3480291366577148,-3.7472991943359375
1725892096497203000,7.625202880859375,-0.16631126403808594,-2.690194606781006,-0.06063127517700195
1725892096516051200,7.64405126953125,-1.4719691276550293,-1.2069640159606934,0.45715808868408203
1725892096534900000,7.66289990234375,-1.227388858795166,-0.39148521423339844,1.0663909912109375
1725892096553748200,7.681748291015625,-0.5853948593139648,1.0910611152648926,1.6268930435180664
1725892096572596700,7.7005966796875,-0.7974848747253418,1.7852439880371094,-0.28310060501098633
1725892096591445200,7.7194453125,-1.1821026802062988,0.29137372970581055,0.32478857040405273
1725892096610293800,7.738293701171875,-0.5660457611083984,0.3662900924682617,0.7763962745666504
1725892096629142300,7.757142333984375,0.6008105278015137,-1.5135154724121094,-1.4200735092163086
1725892096647990800,7.77599072265625,-0.18172883987426758,1.446195125579834,-1.5107908248901367
1725892096666839000,7.794839111328125,-0.4129910469055176,-0.6116948127746582,-1.2041511535644531
1725892096685687600,7.8136875,1.478175163269043,1.2054758071899414,-1.3501954078674316
1725892096704536000,7.8325361328125,-1.191554069519043,2.2429652214050293,0.6021223068237305
1725892096723384600,7.851384521484375,0.2158207893371582,0.05565023422241211,0.32116127014160156
1725892096742233000,7.870233154296875,0.5704207420349121,-3.312197685241699,-0.4453763961791992
1725892096761081600,7.88908154296875,1.1521506309509277,-2.6304945945739746,-1.0713601112365723
1725892096779929900,7.907929931640625,2.63651180267334,0.5969014167785645,-2.156656265258789
1725892096798778600,7.926778564453125,-0.509364128112793,0.8299880027770996,-1.3171229362487793
1725892096817627000,7.945626953125,2.4820022583007812,3.010385513305664,0.6823825836181641
1725892096836475400,7.964475341796875,-0.6049094200134277,-0.10929012298583984,-0.6276307106018066
1725892096855324000,7.983323974609375,0.20854663848876953,-0.0736536979675293,-1.0987229347229004
1725892096874172400,8.00217236328125,-0.12561416625976562,-0.7051906585693359,-0.5002851486206055
1725892096893021000,8.02102099609375,-0.3172788619995117,-0.15086030960083008,0.6116385459899902
1725892096911869400,8.039869384765625,0.40767908096313477,-0.22887134552001953,-0.34089040756225586
1725892096930717700,8.0587177734375,0.4393796920776367,-0.12247347831726074,0.24490070343017578
1725892096949566200,8.077566162109376,0.679473876953125,1.4116110801696777,-0.28005361557006836
1725892096968414700,8.096414794921875,0.17677640914916992,1.1102397441864014,-1.9364256858825684
1725892096987263200,8.11526318359375,0.059477806091308594,-0.3139958381652832,-0.2778358459472656
1725892097006111700,8.13411181640625,0.6131515502929688,-0.4475867748260498,-0.6154160499572754
1725892097024960300,8.152960205078125,0.7494630813598633,-0.8691246509552002,-1.8632159233093262
1725892097043808500,8.17180859375,-0.6890645027160645,-1.442413568496704,-0.19858789443969727
1725892097062657000,8.190656982421874,0.3424549102783203,1.4712803363800049,-0.2985672950744629
1725892097081505500,8.209505615234375,0.917994499206543,-0.4090261459350586,-2.957704544067383
1725892097100354000,8.22835400390625,-1.5647048950195312,-1.291079044342041,0.6296277046203613
1725892097119202600,8.24720263671875,-0.3955411911010742,1.6026966571807861,0.43781232833862305
1725892097138051000,8.266051025390626,1.3687667846679688,0.17928528785705566,-2.024061679840088
1725892097156899600,8.284899658203125,-1.0435218811035156,0.7989745140075684,3.428741455078125
1725892097175748000,8.303748046875,2.5077133178710938,1.8102197647094727,-0.8679847717285156
1725892097194596400,8.322596435546876,-0.04824686050415039,0.15755105018615723,-1.3846707344055176
1725892097213444900,8.34144482421875,-0.7755746841430664,0.7125749588012695,1.6880230903625488
1725892097232293400,8.36029345703125,0.8711071014404297,1.352769136428833,-1.3501057624816895
1725892097251142000,8.379141845703124,-1.335291862487793,0.9475798606872559,-1.7307415008544922
1725892097269990400,8.397990478515625,0.23040437698364258,1.375605583190918,0.1567549705505371
1725892097288839000,8.4168388671875,0.45694732666015625,0.5166969299316406,-1.9496850967407227
1725892097307687200,8.435687255859374,-0.9716801643371582,-0.005625724792480469,-1.5140585899353027
1725892097326535700,8.45453564453125,0.5109453201293945,0.07158756256103516,-0.3021373748779297
1725892097345384200,8.47338427734375,-0.6152915954589844,0.38496971130371094,-2.594356060028076
1725892097364232700,8.492232666015624,-1.6282234191894531,0.7309126853942871,-0.9472522735595703
1725892097383081200,8.511081298828126,0.4362068176269531,1.4977378845214844,0.4542107582092285
1725892097401929700,8.5299296875,-0.1724233627319336,1.616370677947998,0.24748849868774414
1725892097420778200,8.5487783203125,-0.04237556457519531,1.599043369293213,1.8288769721984863
1725892097439626800,8.567626708984376,1.1904418468475342,1.5783662796020508,1.8570704460144043
1725892097458475000,8.58647509765625,0.6665194034576416,1.2102975845336914,0.1417841911315918
1725892097477323500,8.605323486328125,-0.03141641616821289,0.36729001998901367,1.1701059341430664
1725892097496172000,8.624172119140624,0.3178544044494629,-0.44496774673461914,1.2258219718933105
1725892097515020500,8.6430205078125,-1.2492046356201172,-1.3741798400878906,1.223419189453125
1725892097533869000,8.661869140625,1.2620677947998047,-0.7868695259094238,1.196408748626709
1725892097552717600,8.680717529296874,0.4926598072052002,-0.3350973129272461,-1.1522879600524902
1725892097571565800,8.69956591796875,-1.2878379821777344,1.9480385780334473,0.7621860504150391
1725892097590414300,8.718414306640625,1.1168057918548584,2.0491890907287598,0.4019045829772949
1725892097609262800,8.737262939453124,0.20951557159423828,-0.849367618560791,-0.9070038795471191
1725892097628111400,8.756111328125,2.6914563179016113,-1.9551491737365723,0.5414423942565918
1725892097646959900,8.7749599609375,1.2405564785003662,-2.5827579498291016,-1.3235177993774414
1725892097665808400,8.793808349609375,-2.5777840614318848,-3.0581679344177246,0.6127471923828125
1725892097684656600,8.81265673828125,3.338850975036621,-0.31981754302978516,1.3218746185302734
1725892097703505200,8.831505126953125,-0.5603265762329102,1.755910873413086,-0.9634261131286621
1725892097722353700,8.850353759765625,-1.2815744876861572,7.5728607177734375,1.0365567207336426
1725892097741202200,8.8692021484375,0.9259438514709473,-1.6061806678771973,0.6704034805297852
1725892097760050700,8.88805078125,-0.38550662994384766,-2.9303388595581055,2.9191441535949707
1725892097778899200,8.906899169921875,0.6185665130615234,-2.377044200897217,0.8996195793151855
1725892097797747500,8.92574755859375,0.04598283767700195,0.06142568588256836,-1.2458081245422363
1725892097816596200,8.94459619140625,1.0315721035003662,0.9511590003967285,-0.012222766876220703
1725892097835444500,8.963444580078125,0.13844871520996094,2.243490695953369,-1.0536227226257324
1725892097854293000,8.98229296875,-1.6034183502197266,-1.5150861740112305,0.7138042449951172
1725892097873141500,9.0011416015625,-0.2940864562988281,-3.6131763458251953,-1.1158602237701416
1725892097891990000,9.019989990234375,0.5332646369934082,-3.3069944381713867,0.24323272705078125
1725892097910838300,9.03883837890625,-0.17983531951904297,-2.2107834815979004,1.0531110763549805
1725892097929687000,9.05768701171875,-1.4509525299072266,-3.108091354370117,-1.2364726066589355
1725892097948535300,9.076535400390625,-0.8203110694885254,-2.2649593353271484,-0.9110312461853027
1725892097967383800,9.0953837890625,-0.30219364166259766,-0.4618668556213379,-1.4541897773742676
1725892097986232300,9.114232421875,0.8543119430541992,0.5983362197875977,-0.4841139316558838
1725892098005080800,9.133080810546875,-0.9220523834228516,-0.2506709098815918,-1.422325611114502
1725892098023929300,9.151929443359375,-1.592970848083496,-3.169119358062744,-0.16402792930603027
1725892098042777900,9.17077783203125,-0.3684072494506836,-2.186769485473633,1.090085506439209
1725892098061626000,9.189626220703126,-0.3636322021484375,0.0039310455322265625,0.014726638793945312
1725892098080474600,9.208474609375,0.015482902526855469,2.716118812561035,1.7186176776885986
1725892098099323100,9.2273232421875,-0.24133729934692383,5.812310695648193,0.3484163284301758
1725892098118171600,9.246171630859376,0.13807201385498047,3.1988985538482666,1.7679593563079834
1725892098137020200,9.265020263671875,-2.2157273292541504,-0.3622260093688965,2.6654205322265625
1725892098155868400,9.283868408203125,-3.17465877532959,-1.884061336517334,3.308913230895996
1725892098174717000,9.302717041015624,-1.030017375946045,-2.9547486305236816,2.4963345527648926
1725892098193565400,9.3215654296875,-0.4868311882019043,-3.1984925270080566,0.8996334075927734
1725892098212414000,9.3404140625,0.22092485427856445,-3.0507707595825195,0.02021956443786621
1725892098231262500,9.359262451171874,0.7809104919433594,-3.8640055656433105,-0.31553053855895996
1725892098250111000,9.378111083984376,-0.0837240219116211,-4.372960090637207,1.0138185024261475
1725892098268959200,9.396959228515625,1.182873249053955,-3.8315091133117676,-0.20583295822143555
1725892098287807700,9.415807861328124,1.6238493919372559,-4.440966606140137,-1.0121235847473145
1725892098306656300,9.43465625,0.2527031898498535,-4.379664421081543,0.13472557067871094
1725892098325504800,9.4535048828125,2.1245927810668945,-0.7301831245422363,-0.03058767318725586
1725892098344353300,9.472353271484375,2.7546114921569824,2.9767966270446777,-1.593036413192749
1725892098363201800,9.491201904296876,3.8069353103637695,3.891834259033203,-1.5104968547821045
1725892098382050000,9.510050048828125,2.9744110107421875,4.202586650848389,-1.7136927843093872
1725892098400898600,9.528898681640625,2.0240650177001953,4.3194122314453125,-2.4614129066467285
1725892098419747000,9.5477470703125,-0.4929380416870117,1.2614045143127441,-0.7005188465118408
1725892098438595600,9.566595703125,-0.812596321105957,-3.4878697395324707,1.1813437938690186
1725892098457444000,9.585444091796875,1.313765525817871,-3.9197096824645996,0.7278971672058105
1725892098476292400,9.604292236328124,-0.8601970672607422,-0.938105583190918,-0.13247895240783691
1725892098495141000,9.62314111328125,1.328730583190918,0.7775366306304932,-0.4774289131164551
1725892098513989400,9.6419892578125,-0.6656417846679688,-0.00850367546081543,-0.6830239295959473
1725892098532838000,9.660837890625,1.918172836303711,-2.2767081260681152,1.012559175491333
1725892098551686400,9.679686279296876,1.5251741409301758,1.0657835006713867,-0.8859882354736328
1725892098570535000,9.698534912109375,2.011866569519043,-0.2229161262512207,-0.9328901767730713
1725892098589383200,9.717383056640625,1.9702091217041016,2.7780065536499023,-3.217836380004883
1725892098608231700,9.736231689453126,0.7855391502380371,2.6443099975585938,-1.803976058959961
1725892098627080200,9.755080078125,2.4253287315368652,0.26430439949035645,-1.4599990844726562
1725892098645928700,9.7739287109375,1.9211959838867188,1.3644639253616333,-0.42089343070983887
1725892098664777200,9.792777099609374,2.4952173233032227,-0.4685049057006836,-0.37940526008605957
1725892098683625500,9.81162548828125,0.45571184158325195,0.47318100929260254,-4.439835071563721
1725892098702474000,9.830473876953125,-1.5851545333862305,1.529658317565918,-1.0179038047790527
1725892098721322500,9.849322509765624,2.2328133583068848,-0.26937031745910645,-0.591029167175293
1725892098740171000,9.8681708984375,-0.7515177726745605,1.711348056793213,-1.1425092220306396
1725892098759019500,9.88701953125,0.5400362014770508,1.2094650268554688,0.10109615325927734
1725892098777867800,9.90586767578125,-1.2597150802612305,1.3717575073242188,-2.3195266723632812
1725892098796716500,9.924716552734376,-0.8984575271606445,1.7294321060180664,1.8715782165527344
1725892098815564800,9.943564697265625,0.19072675704956055,-0.24550867080688477,-0.10483598709106445
1725892098834413300,9.962413330078125,-2.4121904373168945,0.9940955638885498,1.5053772926330566
1725892098853261800,9.98126171875,0.3882617950439453,-0.7599339485168457,0.5473003387451172
1725892098872110300,10.0001103515625,-2.430488109588623,-0.244476318359375,-1.2947971820831299
1725892098890958600,10.01895849609375,1.1048774719238281,0.08241510391235352,1.5867934226989746
1725892098909807000,10.03780712890625,1.2287397384643555,-0.40090370178222656,-1.8948585987091064
1725892098928655600,10.056655517578125,-1.629957675933838,0.559145450592041,-1.666006326675415
1725892098947504000,10.075504150390625,2.3349392414093018,1.1294546127319336,-0.05360269546508789
1725892098966352600,10.0943525390625,-1.2354373931884766,-0.09942865371704102,-0.714555025100708
1725892098985201000,10.113200927734376,-0.025461196899414062,-1.59346342086792,2.0919928550720215
1725892099004049400,10.13204931640625,0.9024190902709961,-1.701507568359375,1.272557258605957
1725892099022898000,10.15089794921875,-1.4243202209472656,-0.4542522430419922,-0.6758332252502441
1725892099041746400,10.169746337890626,-0.6607098579406738,-0.07645702362060547,0.24480533599853516
1725892099060595000,10.188594970703125,-0.34500885009765625,-1.2351293563842773,0.985969066619873
1725892099079443200,10.207443115234375,-0.861107349395752,-1.7302908897399902,1.231564998626709
1725892099098291700,10.226291748046876,-0.7836370468139648,-1.7423901557922363,0.11844444274902344
1725892099117140200,10.24514013671875,-0.8804035186767578,-1.2322807312011719,0.7789413928985596
1725892099135988700,10.26398876953125,-0.6918501853942871,-1.1551671028137207,0.47284746170043945
1725892099154837200,10.282837158203124,-0.6038618087768555,-0.7409663200378418,0.8137743473052979
1725892099173685500,10.301685546875,0.6331496238708496,-0.8033699989318848,0.048480987548828125
1725892099192534000,10.320533935546875,-0.1280965805053711,-1.1402740478515625,-0.7041330337524414
1725892099211382500,10.339382568359374,0.6735520362854004,-0.5796599388122559,1.184213638305664
1725892099230231000,10.35823095703125,-0.15134954452514648,-1.5656895637512207,-1.5470852851867676
1725892099249079600,10.37707958984375,0.7740027904510498,-0.6324343681335449,0.08719086647033691
1725892099267927800,10.395927734375,0.9462599754333496,-0.33811473846435547,-1.410771131515503
1725892099286776300,10.4147763671875,0.20820379257202148,-0.6294703483581543,1.0113284587860107
1725892099305624800,10.433624755859375,-0.4872560501098633,-2.8423900604248047,-0.010704517364501953
1725892099324473300,10.452473388671875,-1.536696434020996,-3.139468193054199,0.017559051513671875
1725892099343321900,10.47132177734375,-0.11434555053710938,-1.241426944732666,-1.1117286682128906
1725892099362170000,10.490170166015625,0.17166614532470703,0.30823278427124023,-0.540869951248169
1725892099381018600,10.5090185546875,1.0648021697998047,0.3632669448852539,0.6143450736999512
1725892099399867100,10.5278671875,0.9410271644592285,-0.35453081130981445,0.8127706050872803
1725892099418715600,10.546715576171875,-0.09881162643432617,-0.023125171661376953,0.7369771003723145
1725892099437564000,10.56556396484375,-0.6002388000488281,0.2069854736328125,0.0420224666595459
1725892099456412400,10.584412353515624,-0.5083246231079102,0.8716588020324707,1.4470515251159668
1725892099475261000,10.603260986328126,-0.5318326950073242,0.8964710235595703,1.6523170471191406
1725892099494109400,10.622109375,-0.9697427749633789,1.3355708122253418,0.77701735496521
1725892099512958000,10.6409580078125,0.19547605514526367,1.5138969421386719,2.161052942276001
1725892099531806200,10.65980615234375,0.05544424057006836,1.2156829833984375,0.8690104484558105
1725892099550654700,10.67865478515625,-0.2679562568664551,1.9410605430603027,1.663663387298584
1725892099569503200,10.697503173828125,-0.7324328422546387,1.1223559379577637,1.3305609226226807
1725892099588351700,10.716351806640626,0.03766822814941406,0.32819604873657227,1.3559823036193848
1725892099607200300,10.7352001953125,-0.11750364303588867,-0.6466379165649414,0.33176398277282715
1725892099626048500,10.754048583984375,-1.6432232856750488,-1.0114965438842773,0.353381872177124
1725892099644897000,10.77289697265625,-0.5412492752075195,-0.9180917739868164,0.4488034248352051
1725892099663745500,10.79174560546875,-0.09301137924194336,-1.2554373741149902,0.3274712562561035
1725892099682593800,10.81059375,0.5534391403198242,-1.9613041877746582,0.4747745990753174
1725892099701442600,10.829442626953124,1.1541972160339355,-1.4703431129455566,0.3113884925842285
1725892099720290800,10.848290771484375,0.3127140998840332,-0.09168291091918945,-0.2979702949523926
1725892099739139300,10.867139404296875,1.057164192199707,-0.8638153076171875,-0.3157522678375244
1725892099757987800,10.88598779296875,0.7581934928894043,-2.586991310119629,-1.4966440200805664
1725892099776836000,10.904836181640626,1.1982431411743164,-2.1850924491882324,-0.3876321315765381
1725892099795684600,10.9236845703125,2.5520811080932617,0.47217392921447754,-0.1114501953125
1725892099814533000,10.942533203125,3.1236658096313477,0.8496448993682861,-2.0772955417633057
1725892099833381600,10.961381591796876,-1.599649429321289,1.8555829524993896,-2.1477651596069336
1725892099852230100,10.980230224609375,1.6953105926513672,-2.1480417251586914,1.3566455841064453
1725892099871078400,10.999078369140625,1.8904085159301758,-1.9621257781982422,0.24837327003479004
1725892099889927000,11.017927001953124,1.3013319969177246,1.2136635780334473,0.15773701667785645
1725892099908775400,11.036775390625,2.571204662322998,1.5350841283798218,-3.6624584197998047
1725892099927624000,11.0556240234375,-0.3364219665527344,0.44605088233947754,-1.2098249197006226
1725892099946472200,11.07447216796875,3.7307286262512207,-0.8072710037231445,-0.1152949333190918
1725892099965320700,11.09332080078125,2.1419849395751953,2.7744975090026855,-0.7218630313873291
1725892099984169200,11.112169189453125,0.13677215576171875,1.1673780679702759,-3.0300374031066895
1725892100003017700,11.131017822265624,-1.6540040969848633,0.5789036750793457,0.3498692512512207
1725892100021866000,11.149865966796876,1.682363510131836,-0.808861494064331,2.5435359477996826
1725892100040714500,11.168714599609375,1.6557860374450684,0.05839395523071289,-2.0357959270477295
1725892100059563000,11.18756298828125,-3.051177978515625,2.3702244758605957,-3.2650067806243896
1725892100078411500,11.20641162109375,-0.7895450592041016,1.3732798099517822,-0.3603506088256836
1725892100097259800,11.225259765625,1.2317419052124023,0.641301155090332,1.275444507598877
1725892100116108300,11.2441083984375,1.9112682342529297,-1.2385284900665283,-0.8032276630401611
1725892100134956800,11.262956787109376,0.5681829452514648,0.3376326560974121,-2.9860005378723145
1725892100153805300,11.281805419921875,-0.3198676109313965,2.873199462890625,-1.4233098030090332
1725892100172653800,11.30065380859375,-0.6217231750488281,2.142029047012329,-3.8751626014709473
1725892100191502000,11.319502197265624,0.5773873329162598,1.3854014873504639,-0.9250001907348633
1725892100210350600,11.3383505859375,2.818622589111328,-0.7093014717102051,-1.0423004627227783
1725892100229199000,11.35719921875,-0.7794704437255859,-0.6717796325683594,-3.482201099395752
1725892100248047400,11.37604736328125,0.7379555702209473,1.0547480583190918,0.3194866180419922
1725892100266896000,11.394895751953126,0.3905463218688965,-0.08702564239501953,0.6560893058776855
1725892100285744400,11.413744384765625,-0.7042665481567383,-0.45508813858032227,0.3094520568847656
1725892100304593000,11.432593017578125,0.15785503387451172,-1.1523170471191406,0.9471650123596191
1725892100323441400,11.45144140625,0.6458139419555664,-2.009766101837158,1.6199884414672852
1725892100342289700,11.47028955078125,-0.7490391731262207,-1.3951773643493652,1.74061918258667
1725892100361138200,11.48913818359375,-0.4825282096862793,-1.5711183547973633,1.5266075134277344
1725892100379986700,11.507986572265626,-0.4175281524658203,-0.765655517578125,1.7973344326019287
1725892100398835000,11.5268349609375,-0.45829200744628906,-1.2184414863586426,-0.8911137580871582
1725892100417683500,11.545683349609375,-0.7755169868469238,-0.4685802459716797,-1.0297627449035645
1725892100436532000,11.564531982421874,0.049460411071777344,-0.6261324882507324,-0.14490461349487305
1725892100455380500,11.58338037109375,-1.3517885208129883,-1.6439781188964844,0.23016357421875
1725892100474228700,11.602228759765625,-0.8494172096252441,-2.8640737533569336,2.8933379650115967
1725892100493077200,11.6210771484375,-1.2164368629455566,-3.37471866607666,1.7873635292053223
1725892100511925800,11.63992578125,-0.4735536575317383,-0.836125373840332,1.4352483749389648
1725892100530774300,11.658774169921875,-0.8092641830444336,-1.5079684257507324,0.1561574935913086
1725892100549622800,11.677622802734374,-0.3749427795410156,0.10828161239624023,2.5958595275878906
1725892100568471000,11.696470947265626,-0.3062887191772461,-0.5160913467407227,0.11600089073181152
1725892100587319600,11.715319580078125,0.1482381820678711,0.14730167388916016,0.4969191551208496
1725892100606168000,11.73416796875,1.192183494567871,-0.9055523872375488,-1.229527473449707
1725892100625016300,11.753016357421876,1.1204371452331543,-1.6563920974731445,0.12923049926757812
1725892100643864800,11.77186474609375,0.31503868103027344,-2.5182580947875977,-1.3243584632873535
1725892100662713300,11.79071337890625,-0.3503270149230957,-1.7308573722839355,0.8864679336547852
1725892100681561900,11.809561767578124,0.4481935501098633,0.022127151489257812,-0.03234457969665527
1725892100700410000,11.82841015625,1.2222023010253906,-0.1147618293762207,-0.760451078414917
1725892100719258600,11.847258544921875,1.40108060836792,0.18348169326782227,-0.15729022026062012
1725892100738107100,11.866107177734374,0.8986825942993164,0.3753166198730469,0.6029491424560547
1725892100756955400,11.884955322265625,-0.04018878936767578,0.45823097229003906,1.5668790340423584
1725892100775804000,11.903803955078125,-1.2901816368103027,0.14252996444702148,0.3433997631072998
1725892100794652400,11.92265234375,-0.7723655700683594,0.3446998596191406,0.8683924674987793
1725892100813500700,11.941500732421876,-0.018109798431396484,0.5118260383605957,1.6759147644042969
1725892100832349200,11.96034912109375,0.21120023727416992,0.6514501571655273,1.4419732093811035
1725892100851197700,11.97919775390625,-0.4404783248901367,0.6642961502075195,1.419609785079956
1725892100870046200,11.998046142578126,0.07962894439697266,0.7119245529174805,1.4302725791931152
1725892100888894500,12.01689453125,-0.8506636619567871,0.7659797668457031,1.9969558715820312
1725892100907743000,12.035742919921875,-1.5173439979553223,0.10298633575439453,1.9159190654754639
1725892100926591500,12.054591552734376,-0.8413848876953125,-0.8147010803222656,2.3237924575805664
1725892100945440000,12.07343994140625,-0.02622079849243164,-0.802588939666748,0.680539608001709
1725892100964288500,12.09228857421875,0.7836966514587402,-0.3075904846191406,2.1260735988616943
1725892100983136800,12.11113671875,1.2911858558654785,-1.1229496002197266,0.563934326171875
1725892101001985300,12.1299853515625,1.0664386749267578,0.0465235710144043,-0.18494582176208496
1725892101020833800,12.148833740234375,1.5663199424743652,0.9138169288635254,-0.4236762523651123
1725892101039682000,12.16768212890625,1.9807319641113281,1.4975833892822266,-0.9110982418060303
1725892101058530600,12.186530517578126,2.2718563079833984,-0.4433021545410156,-0.6905125379562378
1725892101077379000,12.205379150390625,1.8153371810913086,0.08590841293334961,-1.504565715789795
1725892101096227600,12.2242275390625,1.8345131874084473,0.6105139255523682,-1.1066718101501465
1725892101115075800,12.243075927734376,0.3712348937988281,-1.0674700736999512,-1.003000020980835
1725892101133924400,12.26192431640625,-0.5546054840087891,-2.000802993774414,-0.7657221555709839
1725892101152772900,12.28077294921875,-1.7787151336669922,-1.5991971492767334,0.5463352203369141
1725892101171621000,12.29962109375,1.1024203300476074,-1.4253654479980469,0.8957655429840088
1725892101190469600,12.3184697265625,1.3556065559387207,0.5193147659301758,0.59356689453125
1725892101209318100,12.337318115234375,2.7013368606567383,-0.23273992538452148,-0.7797420024871826
1725892101228166400,12.35616650390625,1.4936418533325195,1.7076185941696167,-2.2421162128448486
1725892101247015000,12.375014892578125,0.4544239044189453,0.9540016651153564,-0.9885371923446655
1725892101265863400,12.393863525390625,0.08172893524169922,0.7526166439056396,-0.9058694839477539
1725892101284712000,12.4127119140625,1.6549153327941895,-0.4694333076477051,-0.10374021530151367
1725892101303560200,12.431560302734376,1.9323463439941406,0.9960088729858398,-0.39786362648010254
1725892101322408700,12.45040869140625,3.3322649002075195,-0.560814380645752,-1.0265543460845947
1725892101341257000,12.469257080078124,1.6095490455627441,1.4526249170303345,-3.7566800117492676
1725892101360105500,12.48810546875,0.45686817169189453,1.729685664176941,-3.1243059635162354
1725892101378954000,12.5069541015625,2.028118133544922,1.983741044998169,-2.6701221466064453
1725892101397802200,12.52580224609375,0.2303304672241211,2.829432964324951,-2.2806410789489746
1725892101416650800,12.544650634765626,-0.722020149230957,3.427870512008667,-1.8358349800109863
1725892101435499300,12.563499267578125,-2.6086959838867188,2.7171359062194824,-0.19625091552734375
1725892101454347800,12.58234765625,-1.0264148712158203,0.988161563873291,3.3541369438171387
1725892101473196000,12.601196044921876,-0.5196714401245117,-1.8946952819824219,1.8291950225830078
1725892101492044500,12.62004443359375,-0.4892239570617676,-2.173797130584717,0.7154750823974609
1725892101510893000,12.63889306640625,0.8430638313293457,-1.7001209259033203,0.15304183959960938
1725892101529741300,12.6577412109375,-0.08048725128173828,-0.300567626953125,-0.9947590827941895
1725892101548589800,12.67658984375,-0.14049720764160156,0.24956130981445312,-1.5664830207824707
1725892101567438300,12.695438232421875,0.19254016876220703,1.1512532234191895,-0.09332132339477539
1725892101586286800,12.714286865234374,1.1019229888916016,-0.015489578247070312,0.3167605400085449
1725892101605135000,12.733135009765626,0.4974179267883301,-0.5208015441894531,-0.48676061630249023
1725892101623983600,12.751983642578125,-0.5871677398681641,-1.015690803527832,-2.0015337467193604
1725892101642832100,12.77083203125,-1.6881365776062012,-1.693864345550537,-1.1940855979919434
1725892101661680400,12.789680419921876,-0.4067869186401367,-3.5225629806518555,3.6515722274780273
1725892101680529000,12.80852880859375,-2.3090643882751465,-4.04355001449585,1.0491228103637695
1725892101699377200,12.827377197265625,-1.425281047821045,-2.0102367401123047,1.1326565742492676
1725892101718225700,12.8462255859375,-0.7858490943908691,-1.8202929496765137,-0.4483010768890381
1725892101737074200,12.86507421875,0.17505359649658203,-1.637049674987793,1.348893165588379
1725892101755922700,12.883922607421875,-0.724090576171875,-1.6137280464172363,-1.6345276832580566
1725892101774771000,12.90277099609375,-0.15453863143920898,0.42823266983032227,2.3192927837371826
1725892101793619500,12.921619384765625,-0.5129513740539551,-1.4190216064453125,0.5873653888702393
1725892101812468000,12.940468017578125,-1.3648786544799805,-2.2493491172790527,-0.7624936103820801
1725892101831316200,12.959316162109374,-0.23063087463378906,-1.353677749633789,0.25981736183166504
1725892101850164700,12.978164794921875,0.5435256958007812,-1.358811378479004,0.3323192596435547
1725892101869013200,12.99701318359375,0.30617666244506836,-2.8535003662109375,-0.48166894912719727
1725892101887861500,13.015861572265624,0.3190150260925293,-1.4962358474731445,-0.6549718379974365
1725892101906710000,13.0347099609375,1.0522608757019043,0.22025251388549805,-1.6125679016113281
1725892101925558300,13.053558349609375,0.6539430618286133,0.2133941650390625,0.09458231925964355
1725892101944406800,13.07240673828125,-0.3474721908569336,-0.5804610252380371,0.950667142868042
1725892101963255300,13.09125537109375,-0.5603923797607422,-0.38315725326538086,0.9339828491210938
1725892101982103800,13.110103759765625,-0.6964526176452637,0.14394235610961914,0.4993307590484619
1725892102000952000,13.1289521484375,-0.06223487854003906,0.5840930938720703,0.5706555843353271
1725892102019800600,13.147800537109376,-0.49858665466308594,0.19765424728393555,0.9709525108337402
1725892102038649000,13.166649169921875,-0.4266700744628906,0.17496299743652344,3.163693428039551
1725892102057497300,13.185497314453125,-1.404733657836914,-0.18882036209106445,2.885385513305664
1725892102076345900,13.204345947265624,-1.666409969329834,-0.39909791946411133,1.1967763900756836
1725892102095194000,13.223194091796875,-1.0880556106567383,0.8162722587585449,2.2796945571899414
1725892102114042600,13.242042724609375,-0.7701077461242676,0.32558631896972656,2.0940463542938232
1725892102132891100,13.26089111328125,-1.1056771278381348,-0.40580034255981445,1.2560205459594727
1725892102151739600,13.27973974609375,0.20056915283203125,-1.362490177154541,0.16167521476745605
1725892102170588000,13.298587890625,0.8460898399353027,-2.1684765815734863,1.1497957706451416
1725892102189436400,13.3174365234375,1.3565378189086914,-3.446554660797119,0.27510762214660645
1725892102208285000,13.336284912109376,1.5045194625854492,-2.2293519973754883,1.1419312953948975
1725892102227133200,13.35513330078125,3.057244300842285,-0.9683046340942383,-0.10222172737121582
1725892102245981700,13.373981689453124,3.9765005111694336,2.079787015914917,-0.8039811849594116
1725892102264830000,13.392829833984376,2.5434465408325195,2.4756927490234375,-2.119887351989746
1725892102283678500,13.411678466796875,0.8754520416259766,1.315126895904541,-1.2640684843063354
1725892102302527000,13.43052685546875,0.9912829399108887,-0.6875414848327637,0.4636518955230713
1725892102321375500,13.44937548828125,2.597468376159668,-1.5022001266479492,-1.1096383333206177
1725892102340223700,13.4682236328125,-0.9381322860717773,0.028968095779418945,-2.5166358947753906
1725892102359072300,13.487072265625,-0.4848804473876953,-0.3175954818725586,0.874934196472168
1725892102377920500,13.50592041015625,-0.10828495025634766,-1.3297555446624756,1.5813751220703125
1725892102396769000,13.52476904296875,0.3327198028564453,-2.278257131576538,1.9667880535125732
1725892102415617500,13.543617431640625,4.384247779846191,1.1310722827911377,-0.7694815397262573
1725892102434465800,13.5624658203125,0.2745094299316406,2.6401748657226562,-1.7808141708374023
1725892102453314300,13.581314208984375,1.9910297393798828,0.5726256370544434,0.24141144752502441
1725892102472162600,13.60016259765625,0.8583126068115234,-0.957080602645874,0.19648957252502441
1725892102491011000,13.619010986328124,3.1979169845581055,0.8806469440460205,0.6645257472991943
1725892102509859600,13.637859619140626,2.6992526054382324,0.47220754623413086,-3.1020145416259766
1725892102528708000,13.6567080078125,1.1255836486816406,1.1273741722106934,-1.8111752271652222
1725892102547556400,13.675556396484374,0.8649702072143555,0.39156556129455566,-2.1475868225097656
1725892102566404900,13.69440478515625,2.2363638877868652,0.27677321434020996,-0.5009188652038574
1725892102585253000,13.713253173828125,0.973630428314209,1.1455628871917725,-0.9084007740020752
1725892102604101600,13.7321015625,0.16661739349365234,1.2442445755004883,0.16225218772888184
1725892102622950100,13.7509501953125,0.613640308380127,1.0308575630187988,-0.6270637512207031
1725892102641798400,13.76979833984375,1.2315497398376465,1.5112147331237793,1.7431018352508545
1725892102660647000,13.78864697265625,1.7678837776184082,0.7950859069824219,-0.8183627128601074
1725892102679495200,13.8074951171875,-0.9100914001464844,1.7119433879852295,-2.2952280044555664
1725892102698343700,13.82634375,1.4754290580749512,1.2498598098754883,-0.5522289276123047
1725892102717192200,13.845192138671875,0.6862988471984863,1.0630841255187988,-0.542917013168335
1725892102736040700,13.864040771484374,1.4298090934753418,0.17638158798217773,-0.38435959815979004
1725892102754889000,13.882888916015625,1.5942463874816895,-0.20748329162597656,-1.2356767654418945
1725892102773737500,13.901737548828125,0.21102619171142578,0.2224597930908203,-1.715794324874878
1725892102792585700,13.920585693359374,1.0304174423217773,0.3107132911682129,1.7406370639801025
1725892102811434200,13.939434326171876,-0.35997629165649414,-2.132875919342041,0.8716363906860352
1725892102830282800,13.95828271484375,-1.6819372177124023,-2.6043033599853516,1.0673632621765137
1725892102849131000,13.977131103515624,-0.5188984870910645,-3.796156883239746,1.6576480865478516
1725892102867979500,13.9959794921875,-0.8070025444030762,-3.0404157638549805,1.9167430400848389
1725892102886827800,14.014827880859375,-1.8444857597351074,-3.6019415855407715,0.8161971569061279
1725892102905676300,14.03367626953125,-2.42348575592041,-2.2028298377990723,3.31803297996521
1725892102924524800,14.05252490234375,-0.9588756561279297,-1.0410799980163574,2.462491035461426
1725892102943373000,14.071373046875,-1.143104076385498,-0.36072254180908203,1.7162835597991943
1725892102962221600,14.0902216796875,-0.9834451675415039,-0.8098773956298828,0.08789730072021484
1725892102981070000,14.109070068359374,0.47657203674316406,-0.3676590919494629,1.803856611251831
1725892102999918300,14.12791845703125,-0.07093191146850586,-2.0392727851867676,-1.2540435791015625
1725892103018766800,14.146766845703125,-0.591552734375,-2.2970337867736816,0.2814450263977051
1725892103037615000,14.165614990234374,-0.5919790267944336,-1.0664105415344238,-0.5392906665802002
1725892103056463600,14.184463623046875,0.18947458267211914,-0.30185937881469727,1.1429238319396973
1725892103075312000,14.20331201171875,0.4104738235473633,-1.9690546989440918,-1.646742343902588
1725892103094160400,14.222160400390624,1.5340709686279297,-1.650622844696045,-0.8300590515136719
1725892103113009000,14.2410087890625,1.393662452697754,-0.5602598190307617,-2.050264596939087
1725892103131857200,14.259857177734375,-0.04541349411010742,0.6534566879272461,-1.2106783390045166
1725892103150705700,14.27870556640625,-0.050601959228515625,-0.5203218460083008,0.51419997215271
1725892103169554000,14.297553955078126,-0.7641572952270508,-1.555241584777832,1.6214206218719482
1725892103188402400,14.31640234375,-1.4269623756408691,-0.9524154663085938,0.5973813533782959
1725892103207251000,14.3352509765625,-1.4021754264831543,0.7306313514709473,1.5658814907073975
1725892103226099500,14.354099365234376,0.258270263671875,1.6342344284057617,1.2081568241119385
1725892103244947700,14.37294775390625,2.0419111251831055,0.937079906463623,1.3253495693206787
1725892103263796200,14.391796142578125,1.5851125717163086,0.30115795135498047,0.5354688167572021
1725892103282644500,14.41064453125,-0.8560380935668945,0.6483845710754395,0.7900135517120361
1725892103301493000,14.429492919921875,-1.294785499572754,-0.6282768249511719,2.1377925872802734
1725892103320341200,14.44834130859375,-0.8335247039794922,-1.5321564674377441,2.2030575275421143
1725892103339189800,14.467189697265624,-1.171523094177246,-2.395124912261963,0.13954496383666992
1725892103358038300,14.486038330078125,-0.41133737564086914,0.3598594665527344,1.0150649547576904
1725892103376886500,14.504886474609375,1.2924399375915527,0.6612691879272461,0.5127251148223877
1725892103395735000,14.523735107421874,0.8799319267272949,0.27947378158569336,0.6920149326324463
1725892103414583300,14.542583251953126,-0.3130831718444824,-2.2814435958862305,1.157477617263794
1725892103433431800,14.561431884765625,0.4413642883300781,-3.1732873916625977,1.0544829368591309
1725892103452280000,14.580280029296874,1.7173786163330078,-1.7959990501403809,-0.6858837604522705
1725892103471128600,14.599128662109376,2.224811553955078,-0.3148818016052246,-0.02426767349243164
1725892103489976800,14.617976806640625,3.727527618408203,-1.1535496711730957,-0.5843839645385742
1725892103508825300,14.636825439453125,3.3235206604003906,1.8795325756072998,-3.2619686126708984
1725892103527673900,14.655673828125,-0.005767822265625,4.668700218200684,-3.4993791580200195
1725892103546522000,14.674522216796875,-0.9406337738037109,2.1350274085998535,-2.0426645278930664
1725892103565370600,14.69337060546875,-0.6541109085083008,-0.12623882293701172,-0.5290989875793457
1725892103584219100,14.71221923828125,-2.6919260025024414,-1.9834237098693848,0.3527529239654541
1725892103603067400,14.7310673828125,-1.4263982772827148,-2.5836081504821777,3.6670761108398438
1725892103621916000,14.749916015625,3.0145721435546875,-1.7433397769927979,0.6403789520263672
1725892103640764200,14.76876416015625,-0.12356281280517578,0.0196075439453125,-1.9270508289337158
1725892103659612700,14.78761279296875,-0.3312244415283203,-0.2344372272491455,-1.3386211395263672
1725892103678461000,14.8064609375,2.139652729034424,-0.030879974365234375,-0.26720619201660156
1725892103697309400,14.825309326171874,0.5160627365112305,-1.0527989864349365,-1.5472453832626343
1725892103716158000,14.844157958984376,1.1041259765625,0.1740729808807373,0.28635716438293457
1725892103735006200,14.863006103515625,3.96799373626709,0.5239264965057373,-1.1602327823638916
1725892103753854700,14.881854736328124,1.6109557151794434,0.3239707946777344,-3.2729952335357666
1725892103772703000,14.900702880859376,0.7930164337158203,0.57554030418396,-3.099461078643799
1725892103791551500,14.919551513671875,2.470928192138672,2.2784881591796875,-1.631007432937622
1725892103810399700,14.938399658203124,2.6413869857788086,2.750011682510376,-1.3829593658447266
1725892103829248300,14.957248291015626,2.469494342803955,1.1866154670715332,-2.756678342819214
1725892103848096500,14.976096435546875,3.975019693374634,2.160311460494995,-1.5260796546936035
1725892103866945000,14.994945068359375,0.5253920555114746,2.8221449851989746,-3.527113676071167
1725892103885793300,15.013793212890626,-2.575737953186035,3.642354726791382,-3.8549375534057617
1725892103904641800,15.032641845703125,-0.5217962265014648,1.8612358570098877,1.0924763679504395
1725892103923490300,15.051490234375,0.5657291412353516,-1.8441095352172852,1.5404438972473145
1725892103942338600,15.070338623046876,-1.762357234954834,-2.2182888984680176,2.1923341751098633
1725892103961187000,15.08918701171875,0.10083389282226562,-0.9260611534118652,2.005923271179199
1725892103980035600,15.10803564453125,-2.4231510162353516,0.7791814804077148,-0.19925880432128906
1725892103998883800,15.1268837890625,-1.4144463539123535,-0.11182022094726562,2.4804272651672363
1725892104017732400,15.145732421875,-0.2560763359069824,-4.474101543426514,3.241616725921631
1725892104036580600,15.16458056640625,-1.8344125747680664,-4.268974304199219,1.9844141006469727
1725892104055429000,15.18342919921875,-0.3246426582336426,-3.1852617263793945,-0.5368037223815918
1725892104074277400,15.20227734375,0.41453981399536133,-1.739637851715088,0.2674710750579834
1725892104093126000,15.2211259765625,1.1188349723815918,-1.1418843269348145,0.12598776817321777
1725892104111974100,15.23997412109375,1.533294677734375,0.9321784973144531,-0.6483273506164551
1725892104130822700,15.25882275390625,1.598005771636963,2.676858901977539,-0.947988748550415
1725892104149671000,15.2776708984375,0.7974176406860352,3.256883144378662,-2.705775499343872
1725892104168519400,15.29651953125,1.9778947830200195,0.8875703811645508,-2.6281111240386963
1725892104187367700,15.31536767578125,1.1154677867889404,1.2867431640625,-0.1360480785369873
1725892104206216200,15.33421630859375,-0.46300220489501953,-0.9419841766357422,1.045616626739502
1725892104225064700,15.353064697265625,-1.9755654335021973,-4.254991054534912,4.878692626953125
1725892104243913000,15.371912841796876,-3.9644699096679688,-8.281599044799805,1.5792908668518066
1725892104262761500,15.390761474609375,-2.8273067474365234,-3.023066520690918,2.081806182861328
1725892104281609700,15.409609619140625,-0.6627287864685059,-1.1541295051574707,1.3761963844299316
1725892104300458200,15.428458251953124,0.7859325408935547,-0.6075887680053711,0.5501580238342285
1725892104319306800,15.447306640625,1.6534295082092285,0.14992237091064453,-1.1143217086791992
1725892104338155000,15.466155029296875,0.7034955024719238,0.587073802947998,-0.2630889415740967
1725892104357003500,15.48500341796875,-0.044381141662597656,-0.43918752670288086,0.1892077922821045
1725892104375851800,15.503851806640625,-0.17120885848999023,-0.8524055480957031,-0.27432727813720703
1725892104394700300,15.5227001953125,0.9779238700866699,-0.5713157653808594,-1.232727289199829
1725892104413548500,15.541548583984374,0.7715568542480469,0.8121886253356934,-3.01965069770813
1725892104432397000,15.56039697265625,1.1872649192810059,0.6301040649414062,-0.13820672035217285
1725892104451245300,15.579245361328125,-0.25211143493652344,-1.0025782585144043,3.7411248683929443
1725892104470093800,15.59809375,-1.6108489036560059,-1.9288969039916992,1.912670373916626
1725892104488942000,15.616942138671876,-1.9825353622436523,-0.9596872329711914,0.20460772514343262
1725892104507790600,15.63579052734375,0.6777997016906738,0.8094611167907715,2.682544708251953
1725892104526638800,15.654638916015625,0.19364452362060547,1.2125024795532227,3.3297789096832275
1725892104545487400,15.6734873046875,-0.48852109909057617,0.20206546783447266,1.0196986198425293
1725892104564335600,15.692335693359375,-0.5046591758728027,0.39775705337524414,0.8789887428283691
1725892104583184100,15.71118408203125,0.6492319107055664,-0.04862165451049805,1.9235947132110596
1725892104602032400,15.730032470703126,-0.2359905242919922,-0.48400354385375977,1.4380037784576416
1725892104620881000,15.748880859375,0.39928722381591797,-1.2032771110534668,1.2610113620758057
1725892104639729200,15.767729248046875,1.0904526710510254,-0.984309196472168,0.028307437896728516
1725892104658577700,15.78657763671875,0.8163471221923828,-0.14839649200439453,0.17916202545166016
1725892104677426000,15.805426025390625,0.7466912269592285,-0.5036063194274902,0.16278481483459473
1725892104696274400,15.8242744140625,1.3637971878051758,-0.5156145095825195,-0.5817902088165283
1725892104715122700,15.843122802734374,0.431121826171875,0.6238055229187012,-1.1873420476913452
1725892104733971200,15.86197119140625,0.19846153259277344,-0.31778669357299805,0.4262690544128418
1725892104752819700,15.88081982421875,2.1356606483459473,-2.8499321937561035,-0.23055791854858398
1725892104771668000,15.89966796875,-0.6804819107055664,-0.6537389755249023,-0.7285302877426147
1725892104790516500,15.9185166015625,-0.5208187103271484,-0.7290351390838623,0.7266323566436768
1725892104809364700,15.93736474609375,1.9326677322387695,-1.3386032581329346,-0.18804645538330078
1725892104828213200,15.956213134765624,2.0280938148498535,-0.3177027702331543,-0.6591973304748535
1725892104847061500,15.9750615234375,1.5332517623901367,1.6041193008422852,-1.0330872535705566
1725892104865910000,15.993909912109375,2.191545009613037,0.3976128101348877,-0.6460891962051392
1725892104884758300,16.01275830078125,1.3866701126098633,-0.0943915843963623,-1.2382868528366089
1725892104903606800,16.031606689453124,1.0114517211914062,0.8079571723937988,0.3451247215270996
1725892104922455000,16.050455078125,1.8663630485534668,0.43102502822875977,-0.5167324542999268
1725892104941303600,16.069303466796875,-0.0722198486328125,0.3889131546020508,-2.2559633255004883
1725892104960151800,16.08815185546875,1.3767662048339844,0.6317050457000732,1.2088415622711182
1725892104979000300,16.107000244140625,3.913397789001465,0.4851200580596924,-1.1532738208770752
1725892104997848600,16.1258486328125,-0.9568719863891602,1.6533572673797607,-2.355586528778076
1725892105016697000,16.144697021484376,1.0043954849243164,0.6988365650177002,-0.06174206733703613
1725892105035545300,16.16354541015625,3.023937702178955,1.6900728940963745,0.3282735347747803
1725892105054393900,16.182393798828127,-0.302734375,1.2315196990966797,-2.1187291145324707
1725892105073242000,16.2012421875,1.2693333625793457,1.493955135345459,-1.3601813316345215
1725892105092090600,16.220090576171874,-0.708045482635498,0.7786908149719238,-1.58711576461792
1725892105110939000,16.23893896484375,0.7222766876220703,-0.5786733627319336,0.526928186416626
1725892105129787400,16.257787353515624,0.5239715576171875,-1.2637619972229004,0.875298023223877
1725892105148635600,16.2766357421875,-1.1260566711425781,-0.37085676193237305,-0.6277031898498535
1725892105167484200,16.295484130859375,-0.48429393768310547,1.855839729309082,-0.23284626007080078
1725892105186332400,16.31433251953125,-0.3148322105407715,2.785566806793213,0.08403921127319336
1725892105205181000,16.333180908203126,0.8756923675537109,2.3273863792419434,0.3037843704223633
1725892105224029200,16.352029296875,-0.49130773544311523,1.7753729820251465,-1.3584673404693604
1725892105242877700,16.370877685546876,1.4056334495544434,1.0396580696105957,1.5983715057373047
1725892105261726000,16.389725830078124,0.6220684051513672,-0.4263443946838379,0.2429032325744629
1725892105280574500,16.408574462890623,-2.5993237495422363,-2.4225006103515625,0.1679391860961914
1725892105299422700,16.427422607421875,0.22807979583740234,-3.591214179992676,3.4459004402160645
1725892105318271200,16.446271240234374,-0.46867895126342773,-3.3775687217712402,2.148495674133301
1725892105337119500,16.465119384765625,-1.9566798210144043,-1.3706779479980469,0.27315831184387207
1725892105355968000,16.483968017578125,-1.4318222999572754,-0.45070314407348633,-0.3941659927368164
1725892105374816300,16.502816162109376,-1.4967617988586426,-2.0297861099243164,0.847313642501831
1725892105393664800,16.521664794921875,-1.3459734916687012,-4.226868629455566,2.15507173538208
1725892105412513000,16.540512939453127,-1.9583687782287598,-6.138316631317139,-0.353588342666626
1725892105431361500,16.559361572265626,-0.024031639099121094,-4.795803546905518,0.47274065017700195
1725892105450209800,16.578209716796874,0.12627744674682617,-2.443312168121338,-3.138840675354004
1725892105469058300,16.597058349609377,0.6356644630432129,-0.15146780014038086,-0.02124190330505371
1725892105487906600,16.615906494140624,2.005850315093994,0.9781346321105957,1.0715842247009277
1725892105506755000,16.634755126953124,0.647728681564331,0.5594992637634277,-3.187309980392456
1725892105525603300,16.653603271484375,2.158146619796753,1.9455652236938477,-2.158583164215088
1725892105544451800,16.672451904296874,2.532963752746582,2.699862003326416,-4.454248428344727
1725892105563300000,16.691300048828126,2.7456302642822266,3.4850592613220215,-4.683725833892822
1725892105582148600,16.710148681640625,2.0551023483276367,3.3748669624328613,-0.9337425231933594
1725892105600996900,16.728996826171876,0.9080159664154053,0.7709488868713379,-0.3366968631744385
1725892105619845400,16.747845458984376,-0.13431549072265625,-2.6361875534057617,0.5936634540557861
1725892105638693600,16.766693603515623,-0.6193161010742188,-2.067274570465088,0.3837857246398926
1725892105657542100,16.785542236328126,-2.5997114181518555,-0.13191699981689453,-0.15366196632385254
1725892105676390400,16.804390380859374,-2.8373279571533203,0.0537257194519043,1.7290828227996826
1725892105695239000,16.823239013671873,-2.3092150688171387,-0.6531968116760254,2.0178816318511963
1725892105714087200,16.842087158203125,-1.9526352882385254,-1.5904850959777832,2.6405725479125977
1725892105732935400,16.860935302734376,-2.2158751487731934,-0.7551956176757812,3.6214568614959717
1725892105751784000,16.879783935546875,-2.5888943672180176,-0.16705799102783203,3.0448052883148193
1725892105770632200,16.898632080078126,-1.7287287712097168,1.1567764282226562,2.0374491214752197
1725892105789480700,16.917480712890626,0.3820939064025879,0.6405072212219238,0.5471184253692627
1725892105808329000,16.936328857421874,1.7705574035644531,0.22523164749145508,-1.5178110599517822
1725892105827177500,16.955177490234377,1.942863941192627,0.9855241775512695,-2.5049562454223633
1725892105846025700,16.974025634765624,0.8708148002624512,0.9849071502685547,0.2742040157318115
1725892105864874200,16.992874267578124,0.44938230514526367,-1.1535577774047852,0.1602790355682373
1725892105883722500,17.011722412109375,1.1462349891662598,-1.4855194091796875,-0.10689926147460938
1725892105902571000,17.030571044921874,0.1002039909362793,0.0523676872253418,-0.4210193157196045
1725892105921419300,17.049419189453126,-0.5058107376098633,2.659461498260498,0.2104356288909912
1725892105940267800,17.068267822265625,-1.739842414855957,2.279080390930176,0.6786253452301025
1725892105959116000,17.087115966796876,-0.42739391326904297,-2.8685736656188965,1.393348217010498
1725892105977964500,17.105964599609376,1.3032140731811523,-4.412735462188721,1.2680296897888184
1725892105996812800,17.124812744140623,-0.6670703887939453,-0.433687686920166,-1.0945215225219727
1725892106015661000,17.1436611328125,-0.5674810409545898,1.431680679321289,-1.572920560836792
1725892106034509600,17.162509521484374,0.5745754241943359,-0.11634564399719238,-2.46964168548584
1725892106053357800,17.18135791015625,2.109281539916992,-1.1520106792449951,0.2830932140350342
1725892106072206300,17.200206298828125,2.156916618347168,-0.05108284950256348,-0.31150078773498535
1725892106091054600,17.2190546875,1.1454668045043945,2.061717987060547,-1.9260915517807007
1725892106109903000,17.237903076171875,-0.6864223480224609,1.3231582641601562,-1.278673529624939
1725892106128751400,17.25675146484375,3.344858169555664,-0.5733544826507568,-0.14490389823913574
1725892106147600000,17.275599853515626,0.9021182060241699,2.472447395324707,-1.7631304264068604
1725892106166448000,17.2944482421875,0.720494270324707,-0.8362457752227783,-1.3421173095703125
1725892106185296600,17.313296630859377,0.8794593811035156,-0.315840482711792,-1.2230985164642334
1725892106204145000,17.332144775390624,1.1427268981933594,0.9197237491607666,0.04409909248352051
1725892106222993200,17.3509931640625,1.3723344802856445,2.753044366836548,-2.9088315963745117
1725892106241841700,17.369841552734375,-0.3472452163696289,1.1755619049072266,-2.0595035552978516
1725892106260690000,17.38868994140625,2.628098487854004,0.384354829788208,-1.0645132064819336
1725892106279538400,17.407538330078125,1.9215803146362305,0.5769329071044922,-0.8313860893249512
1725892106298386700,17.42638671875,0.9045000076293945,1.6473875045776367,-1.8285651206970215
1725892106317235000,17.44523486328125,-0.49421215057373047,1.7087388038635254,-1.4975917339324951
1725892106336083500,17.46408349609375,0.8524599075317383,0.795018196105957,-0.42502474784851074
1725892106354931700,17.482931640625,2.3453640937805176,0.5966043472290039,0.8726816177368164
1725892106373780200,17.5017802734375,-0.328580379486084,0.8939027786254883,-1.2978334426879883
1725892106392628500,17.52062841796875,-1.2115473747253418,1.9919023513793945,-0.46909618377685547
1725892106411477000,17.53947705078125,1.2497897148132324,1.4073514938354492,0.6333532333374023
1725892106430325200,17.5583251953125,0.6862277984619141,0.3426976203918457,1.689382791519165
1725892106449173800,17.577173828125,1.5410003662109375,-0.565983772277832,0.0024423599243164062
1725892106468022000,17.59602197265625,-0.49300193786621094,0.8700814247131348,-1.9939992427825928
1725892106486870300,17.614870361328126,-0.879997730255127,1.7887616157531738,-2.118621349334717
1725892106505718800,17.63371875,-0.9171161651611328,-0.2795286178588867,0.6985301971435547
1725892106524567000,17.652567138671873,-0.9068102836608887,-3.0999879837036133,1.9461259841918945
1725892106543415600,17.67141552734375,-0.38878822326660156,-2.346512794494629,1.2181084156036377
1725892106562263800,17.690263916015624,-0.5370817184448242,-0.23418903350830078,-1.8148493766784668
1725892106581112300,17.7091123046875,-0.49750566482543945,0.07004404067993164,-1.5679807662963867
1725892106599960600,17.727960693359375,-1.412916660308838,-1.103116512298584,0.619621753692627
1725892106618809000,17.74680908203125,-1.8483614921569824,-3.756627082824707,2.845062732696533
1725892106637657300,17.7656572265625,-3.3437256813049316,-5.429729461669922,3.491252899169922
1725892106656505600,17.784505615234377,-2.4607367515563965,-5.5484619140625,2.14158296585083
1725892106675354000,17.80335400390625,-2.0285024642944336,-4.29025936126709,0.467728853225708
1725892106694202400,17.822202392578124,-0.36223936080932617,-2.714345932006836,1.7775566577911377
1725892106713051000,17.84105078125,0.3492100238800049,-0.873356819152832,-1.097611904144287
1725892106731899100,17.859899169921874,1.2348647117614746,1.721435546875,-1.6843361854553223
1725892106750747600,17.87874755859375,1.9635491371154785,2.250609874725342,-1.824019193649292
1725892106769596000,17.897595947265625,1.490530014038086,1.6811370849609375,-2.032818078994751
1725892106788444400,17.9164443359375,0.5138671398162842,0.26576709747314453,1.2911574840545654
1725892106807292700,17.935292724609376,-0.2514185905456543,-0.00937795639038086,0.005903959274291992
1725892106826141000,17.954140869140623,-0.7551159858703613,-0.9182400703430176,-1.0049898624420166
1725892106844989400,17.972989501953126,-0.17465543746948242,0.28559112548828125,-0.24679231643676758
1725892106863837700,17.991837646484374,0.14322471618652344,0.4107656478881836,0.5860896110534668
1725892106882686200,18.010686279296873,-1.1976547241210938,-0.31578493118286133,1.2825274467468262
1725892106901534500,18.029534423828125,-2.4571714401245117,-1.4488272666931152,1.3616957664489746
1725892106920383000,18.048383056640624,-1.885256290435791,-0.2526559829711914,2.098390579223633
1725892106939231200,18.067231201171875,-1.1937370300292969,1.011542797088623,1.3464179039001465
1725892106958079500,18.08607958984375,-0.0885629653930664,1.9811463356018066,0.8432328701019287
1725892106976928000,18.104927978515626,0.4720783233642578,0.26436376571655273,1.6515922546386719
1725892106995776300,18.1237763671875,-0.8977560997009277,-1.4715361595153809,0.8740155696868896
1725892107014624800,18.142624755859377,-1.2372193336486816,-1.870455265045166,0.1712205410003662
1725892107033473000,18.16147314453125,-1.105750560760498,0.6189064979553223,2.211094617843628
1725892107052321500,18.180321533203124,0.6059074401855469,0.38925743103027344,2.3662524223327637
1725892107071169800,18.199169677734375,0.13300466537475586,0.4569368362426758,-0.04072213172912598
1725892107090018000,18.21801806640625,0.604921817779541,-0.814178466796875,0.025307655334472656
1725892107108866600,18.236866455078125,0.42632532119750977,-1.6045351028442383,0.014761924743652344
1725892107127714800,18.25571484375,1.4441490173339844,-1.3447542190551758,0.702075719833374
1725892107146563000,18.27456298828125,0.8420662879943848,0.12977838516235352,-0.16551589965820312
1725892107165411600,18.29341162109375,0.008626937866210938,2.7399797439575195,-0.8180549144744873
1725892107184259800,18.312259765625,0.5408449172973633,1.3012628555297852,-0.11969184875488281
1725892107203108400,18.3311083984375,2.265585422515869,-1.8595852851867676,0.009315848350524902
1725892107221956600,18.34995654296875,1.1316814422607422,-1.754852294921875,0.22776782512664795
1725892107240805000,18.36880517578125,0.4526824951171875,0.8706314563751221,-1.0057958364486694
1725892107259653400,18.3876533203125,-0.0658254623413086,1.284930944442749,-0.7670916318893433
1725892107278501600,18.406501708984376,0.4578838348388672,-0.5092878341674805,-0.9770498871803284
1725892107297350100,18.42535009765625,2.1579742431640625,-2.4723713397979736,-0.35533809661865234
1725892107316198400,18.444198486328126,1.3713359832763672,-0.6704492568969727,-0.23988771438598633
1725892107335047000,18.463046875,2.902132511138916,1.478933334350586,-0.44826507568359375
1725892107353895200,18.481895263671873,1.599252700805664,1.9054231643676758,-2.31289005279541
1725892107372743400,18.500743408203125,-0.14969921112060547,2.6977620124816895,-1.3898673057556152
1725892107391592000,18.519592041015624,1.0912818908691406,0.9755418300628662,0.7271630764007568
1725892107410440200,18.538440185546875,4.375302314758301,-0.3114650249481201,-0.9902039766311646
1725892107429288700,18.557288818359375,2.470952033996582,1.7067064046859741,-1.9217718839645386
1725892107448137000,18.576136962890626,1.7393293380737305,2.4990270137786865,-2.0707921981811523
1725892107466985500,18.5949853515625,0.6742229461669922,2.580656051635742,-2.6578140258789062
1725892107485846800,18.6138466796875,-0.7627277374267578,1.8337843418121338,-0.30410289764404297
1725892107504695800,18.63269580078125,0.519648551940918,-0.5759115219116211,-0.7387893199920654
1725892107523530500,18.651530517578124,0.6180214881896973,0.915534496307373,0.5021970272064209
1725892107542378800,18.670378662109375,3.4386987686157227,-0.9309797286987305,-0.5121426582336426
1725892107561227300,18.689227294921874,-1.09553861618042,0.9441046714782715,-3.2872467041015625
1725892107580075500,18.708075439453125,-2.7324914932250977,1.242748498916626,0.4335603713989258
1725892107598924000,18.726924072265625,1.4864435195922852,-1.4203681945800781,2.29933500289917
1725892107617772300,18.745772216796876,0.6099104881286621,-1.5270228385925293,0.5654792785644531
1725892107636620500,18.76462060546875,-0.17993402481079102,-0.1830883026123047,0.9132757186889648
1725892107655468800,18.78346875,1.6472926139831543,0.06098794937133789,-0.09288144111633301
1725892107674317300,18.8023173828125,1.8255119323730469,0.8623514175415039,-1.9741939306259155
1725892107693165600,18.82116552734375,0.6308317184448242,1.49257230758667,-1.8578581809997559
1725892107712014000,18.84001416015625,-0.8125452995300293,0.44437265396118164,-0.1607511043548584
1725892107730862300,18.8588623046875,-1.7773323059082031,-1.161728858947754,1.1223735809326172
1725892107749710800,18.8777109375,-2.0301127433776855,-3.426947593688965,2.4126625061035156
1725892107768559000,18.89655908203125,-1.7816791534423828,-2.5380783081054688,1.7016050815582275
1725892107787407400,18.915407470703126,-0.7990531921386719,-0.9907846450805664,0.9561197757720947
1725892107806255900,18.934255859375,-1.7774591445922852,-1.2955422401428223,0.7493360042572021
1725892107825104100,18.953104248046873,-3.0626578330993652,-2.2641091346740723,0.8800573348999023
1725892107843952600,18.97195263671875,-3.144782543182373,-4.843590259552002,3.599379062652588
1725892107862801000,18.99080078125,-2.1263227462768555,-5.946972370147705,2.188511371612549
1725892107881649400,19.0096494140625,-0.40824031829833984,-2.9451775550842285,0.3958449363708496
1725892107900497700,19.02849755859375,0.32861948013305664,0.41460704803466797,-0.32825589179992676
1725892107919346000,19.047345947265626,0.8981170654296875,1.1882390975952148,-1.3938615322113037
1725892107938194400,19.0661943359375,0.18166446685791016,1.1863207817077637,-1.2467050552368164
1725892107957042700,19.085042724609377,0.09820556640625,0.6995820999145508,-0.8279800415039062
1725892107975891200,19.10389111328125,-0.683018684387207,0.5503749847412109,-0.5255744457244873
1725892107994739500,19.122739501953124,-0.25047922134399414,-0.5056424140930176,0.06980228424072266
1725892108013588000,19.141587890625,-0.23295259475708008,-0.9267435073852539,-0.48122119903564453
1725892108032436200,19.160436279296874,0.1891021728515625,-0.3485250473022461,-0.9386026859283447
1725892108051284500,19.179284423828125,0.07783317565917969,1.985459327697754,0.5700790882110596
1725892108070133000,19.198133056640625,0.5750694274902344,0.843024730682373,0.6214995384216309
1725892108088981200,19.216981201171876,-1.284496784210205,0.06882143020629883,1.2430510520935059
1725892108107829800,19.235829833984376,-1.2552199363708496,-1.281137466430664,2.2297630310058594
1725892108126678000,19.254677978515623,-2.049067497253418,-2.2294669151306152,1.4697792530059814
1725892108145526500,19.273526611328126,-0.42819929122924805,-0.6470298767089844,0.41300153732299805
1725892108164374800,19.292374755859374,-0.47893476486206055,-0.9313039779663086,0.23687267303466797
1725892108183223000,19.31122314453125,-2.1599225997924805,-2.389616012573242,2.0588667392730713
1725892108202071300,19.3300712890625,-1.2285051345825195,-3.60396146774292,3.231475830078125
1725892108220919800,19.348919921875,-0.12399911880493164,-3.1936278343200684,2.2291347980499268
1725892108239768000,19.36776806640625,1.265885353088379,-2.504514694213867,0.8788766860961914
1725892108258616600,19.386616455078126,1.0360503196716309,-0.7533373832702637,-0.18953371047973633
1725892108277465000,19.405465087890626,1.2963228225708008,0.4869413375854492,0.030643701553344727
1725892108296313300,19.424313232421873,2.081404685974121,1.209824562072754,-0.33042025566101074
1725892108315161600,19.44316162109375,3.2436060905456543,0.7453665733337402,-1.149193286895752
1725892108334009900,19.462009765625,2.2136335372924805,0.6905405521392822,-1.764470100402832
1725892108352858400,19.4808583984375,1.557225227355957,1.8935585021972656,-1.8597331047058105
1725892108371706600,19.49970654296875,1.991713047027588,1.834141731262207,-0.3782963752746582
1725892108390555100,19.51855517578125,2.7409844398498535,-0.7272706031799316,-1.8619403839111328
1725892108409403400,19.5374033203125,-2.2206287384033203,-0.41277384757995605,-2.250028610229492
1725892108463578400,19.591578369140624,-0.018001556396484375,2.0162861347198486,-0.568169116973877
1725892108482426600,19.610426513671875,3.6248035430908203,2.656949758529663,-0.8430819511413574
1725892108501275100,19.629275146484375,3.061532974243164,3.994194507598877,-2.4503912925720215
1725892108520123400,19.648123291015626,1.1450080871582031,2.197422504425049,-1.1472587585449219
1725892108538972000,19.666971923828125,2.7783007621765137,3.011897325515747,-1.3310319185256958
1725892108557820200,19.685820068359376,2.5988430976867676,2.7590701580047607,-0.636040210723877
1725892108576668400,19.70466845703125,0.9322686195373535,1.4270446300506592,-3.0125980377197266
1725892108595517000,19.723516845703124,0.4293479919433594,1.1739985942840576,-0.5099356174468994
1725892108614365200,19.742365234375,4.126901149749756,0.5108795166015625,1.1344738006591797
1725892108633213700,19.761213623046874,1.4228668212890625,-2.1838183403015137,-2.4370551109313965
1725892108652062000,19.78006201171875,-4.377716541290283,-0.21227502822875977,-2.3531572818756104
1725892108670910200,19.79891015625,0.7831711769104004,2.4214560985565186,3.5754241943359375
1725892108689758700,19.8177587890625,2.258991241455078,1.6490254402160645,2.9364633560180664
1725892108708606700,19.836606689453124,-2.1884379386901855,-3.008240222930908,-1.2826087474822998
1725892108727455500,19.85545556640625,2.5585150718688965,-1.862983226776123,3.0850436687469482
1725892108746303700,19.8743037109375,5.0496368408203125,-1.4691452980041504,1.0097312927246094
1725892108765152300,19.89315234375,2.016033172607422,0.952789306640625,-3.6505110263824463
1725892108784000500,19.91200048828125,0.3019280433654785,2.7054812908172607,-4.350498199462891
1725892108802849000,19.93084912109375,1.25746488571167,2.6193747520446777,-4.393670082092285
1725892108821697300,19.949697265625,0.6741547584533691,3.3822407722473145,0.9062647819519043
1725892108840545500,19.968545654296875,-0.9801716804504395,1.318221092224121,-0.5002548694610596
1725892108859394000,19.98739404296875,-2.484687328338623,-0.536259651184082,2.2383503913879395
1725892108878242300,20.0062421875,-2.8256893157958984,-2.879080295562744,4.221027374267578
1725892108897090800,20.0250908203125,-4.818033695220947,-4.022816181182861,4.722722053527832
1725892108915939000,20.04393896484375,-1.042585849761963,-5.848250389099121,6.837438106536865
1725892108934787600,20.06278759765625,-3.032163619995117,-8.130934715270996,-0.5721006393432617
1725892108953635800,20.0816357421875,-2.409433364868164,-2.780172348022461,0.5865147113800049
1725892108972484000,20.100484130859375,-1.6846318244934082,-4.953141689300537,4.737438201904297
1725892108991332600,20.11933251953125,-0.8167548179626465,-5.638943672180176,0.9920847415924072
1725892109010180900,20.138180908203125,0.05078887939453125,-2.2026758193969727,-2.570798635482788
1725892109029029400,20.157029296875,2.0856921672821045,3.373147487640381,-2.0087666511535645
1725892109047877600,20.175877685546876,1.463545560836792,5.0991363525390625,-5.978879451751709
1725892109066726000,20.194725830078124,1.0901598930358887,3.5415167808532715,0.38617753982543945
1725892109085574400,20.213574462890627,-0.021804332733154297,1.0417232513427734,-2.4704604148864746
1725892109104422700,20.232422607421874,-0.6721744537353516,0.28399133682250977,0.300276517868042
1725892109123271200,20.251271240234374,-0.5101256370544434,-0.4287552833557129,-0.8387889862060547
1725892109142119400,20.270119384765625,0.7969160079956055,-1.050217628479004,-0.027178287506103516
1725892109160968000,20.288968017578124,1.9719719886779785,1.0187034606933594,-1.0755538940429688
1725892109179816200,20.307816162109376,-0.18719768524169922,-0.07175445556640625,1.3628802299499512
1725892109198664700,20.326664794921875,-2.7401633262634277,-0.6360974311828613,4.119635581970215
1725892109217513000,20.345512939453126,-4.776632785797119,-0.35670948028564453,2.0121076107025146
1725892109236361200,20.364361328125,-2.1575026512145996,0.2013707160949707,3.4286346435546875
1725892109255209700,20.383209716796873,-1.2801132202148438,0.8742609024047852,0.8949646949768066
1725892109274058000,20.40205810546875,-2.7283411026000977,0.07392644882202148,2.4525458812713623
1725892109292906500,20.420906494140624,-1.8274469375610352,-1.403834342956543,2.831047773361206
1725892109311754800,20.439754638671875,1.6922893524169922,-0.526921272277832,0.07364487648010254
1725892109330603300,20.458603271484375,-0.10341167449951172,2.103480815887451,2.3051071166992188
1725892109349451500,20.477451416015626,2.7932634353637695,-0.5402712821960449,0.3391091823577881
1725892109368300000,20.496300048828125,3.43375563621521,0.8078689575195312,-2.1476454734802246
1725892109387148300,20.515148193359376,0.6303009986877441,1.9218213558197021,-0.36599206924438477
1725892109405996500,20.53399658203125,2.761695384979248,-0.49817514419555664,-0.011808633804321289
1725892109424845000,20.552844970703124,2.4759058952331543,0.8762593269348145,-2.9601845741271973
1725892109443693300,20.571693359375,-3.7755699157714844,2.7542662620544434,-2.4941627979278564
1725892109462541800,20.590541748046874,-0.39125728607177734,0.40113401412963867,0.43335413932800293
1725892109481390000,20.60939013671875,1.6054949760437012,-2.5222182273864746,0.22233033180236816
1725892109500238300,20.62823828125,-0.976531982421875,-0.4246840476989746,-0.7065619230270386
1725892109519086800,20.6470869140625,0.8643856048583984,-0.5622129440307617,-0.9807831048965454
1725892109537935000,20.66593505859375,-0.7007465362548828,-2.6109108924865723,-3.0122017860412598
1725892109556783600,20.68478369140625,-0.9274482727050781,-0.37871265411376953,0.35475897789001465
1725892109575632000,20.7036318359375,3.2319469451904297,0.05567121505737305,-0.6366986036300659
1725892109594480400,20.72248046875,0.9081101417541504,2.141528844833374,-3.0476319789886475
1725892109613328600,20.74132861328125,-0.20586299896240234,3.39156436920166,0.8227367401123047
1725892109632177200,20.76017724609375,2.929722785949707,1.8486543893814087,-1.050384759902954
1725892109651025400,20.779025390625,1.60667085647583,2.2781033515930176,-2.5640223026275635
1725892109669874000,20.7978740234375,0.05586528778076172,3.2469656467437744,0.6949117183685303
1725892109688722200,20.81672216796875,2.4570250511169434,0.9534039497375488,-2.0021471977233887
1725892109707570400,20.8355703125,1.176729679107666,2.605769634246826,-3.0740952491760254
1725892109726419000,20.8544189453125,1.3643560409545898,2.8199877738952637,-1.1617751121520996
1725892109745267200,20.87326708984375,2.632173538208008,0.17760705947875977,-3.684190034866333
1725892109764115700,20.89211572265625,0.4017977714538574,2.485050678253174,-4.357621669769287
1725892109782964000,20.9109638671875,-1.8207178115844727,3.875530958175659,-0.7705779075622559
1725892109801812500,20.9298125,0.8977303504943848,-0.7171454429626465,1.740175485610962
1725892109820660700,20.94866064453125,-1.0178008079528809,-3.1748757362365723,3.0390632152557373
1725892109839509200,20.96750927734375,-0.31337881088256836,-4.592172622680664,2.8349881172180176
1725892109858357500,20.986357421875,1.347602367401123,-3.6871252059936523,1.7382795810699463
1725892109877206000,21.0052060546875,0.44106292724609375,-0.807072639465332,-1.6461975574493408
1725892109896054300,21.02405419921875,-0.24681425094604492,1.3772454261779785,-1.2539327144622803
1725892109914902500,21.042902587890627,-0.5011563301086426,0.8071012496948242,-0.35446596145629883
1725892109933751000,21.0617509765625,-0.8989701271057129,-0.0886683464050293,0.28321313858032227
1725892109952599300,21.080599365234374,-1.2507686614990234,-1.1233935356140137,0.8680589199066162
1725892109971447800,21.09944775390625,-1.5088410377502441,-2.840848445892334,0.8758816719055176
1725892109990296000,21.118296142578124,0.46120262145996094,-2.1594414710998535,0.4993631839752197
1725892110009144600,21.13714453125,-0.25176477432250977,-0.7705307006835938,-0.7920846939086914
1725892110027992800,21.155992919921875,0.3541750907897949,-2.591867446899414,0.6518995761871338
1725892110046841300,21.17484130859375,-0.7337169647216797,-5.609039306640625,1.5158133506774902
1725892110065689600,21.193689697265626,-1.7670693397521973,-4.038420677185059,-0.7903084754943848
1725892110084537900,21.212537841796873,-1.345543384552002,-0.7907848358154297,1.19905686378479
1725892110103386400,21.231386474609376,-1.1735920906066895,-0.02088642120361328,-0.10160946846008301
1725892110122235000,21.25023486328125,-1.464677333831787,0.18956518173217773,-1.2539129257202148
1725892110141083100,21.269083251953123,-0.9883432388305664,1.559412956237793,1.9361615180969238
1725892110159931400,21.287931396484375,-0.36341428756713867,0.7314052581787109,0.2987246513366699
1725892110178780000,21.30677978515625,-0.8541278839111328,0.6181983947753906,-1.6928808689117432
1725892110197628200,21.325628173828125,0.377960205078125,0.7579164505004883,0.5465245246887207
1725892110216476700,21.3444765625,-0.45346832275390625,-0.8518414497375488,-0.7667891979217529
1725892110235325000,21.363324951171876,-1.0028495788574219,0.46706056594848633,0.9006397724151611
1725892110254173400,21.38217333984375,-1.2714619636535645,-1.0162205696105957,-0.8198225498199463
1725892110273021700,21.401021728515627,-4.144716739654541,0.2689509391784668,2.2662277221679688
1725892110291870200,21.4198701171875,-3.4144515991210938,-2.4718189239501953,3.167605400085449
1725892110310718500,21.438718505859374,-3.9173455238342285,-6.964554786682129,1.589860439300537
1725892110329567000,21.45756689453125,0.11168718338012695,-7.2044148445129395,1.153214454650879
1725892110348415200,21.476415283203124,-0.441011905670166,-3.2352614402770996,-0.06253910064697266
1725892110367263500,21.495263427734375,-0.7897844314575195,0.1849803924560547,3.0053234100341797
1725892110386112000,21.514112060546875,1.2199735641479492,-2.316892147064209,1.5399155616760254
1725892110404960300,21.532960205078126,1.0463943481445312,-0.627565860748291,-0.7850608825683594
1725892110423808800,21.551808837890626,0.642646312713623,0.7147650718688965,0.6430933475494385
1725892110442657000,21.570656982421873,2.734212875366211,-0.008661746978759766,-0.197127103805542
1725892110461505500,21.589505615234376,3.0638527870178223,1.1545498371124268,-1.3031816482543945
1725892110480353800,21.608353759765624,3.2749524116516113,0.7908318042755127,-3.041231155395508
1725892110499202300,21.627202392578123,2.658364772796631,2.276059865951538,-1.8444592952728271
1725892110518050600,21.646050537109375,5.507355213165283,-0.8237619400024414,-1.0227254629135132
1725892110536899000,21.664899169921874,2.712068557739258,3.685181140899658,-3.836686134338379
1725892110555747300,21.683747314453125,-0.26441287994384766,4.555606365203857,-1.1823803186416626
1725892110574595800,21.702595947265625,0.783045768737793,0.5203876495361328,-2.455777645111084
1725892110593444000,21.721444091796876,1.4625959396362305,-0.9127955436706543,2.6487319469451904
1725892110612292600,21.740292724609375,2.703479766845703,-0.19605255126953125,-2.0253195762634277
1725892110631140900,21.759140869140627,-0.3236360549926758,3.9939136505126953,-0.04518437385559082
1725892110649989400,21.7779892578125,-1.5226974487304688,3.1581194400787354,0.32675790786743164
1725892110668837600,21.796837646484374,1.422433853149414,-0.8549931049346924,0.34690332412719727
1725892110687686100,21.81568603515625,1.3205876350402832,-2.2200050354003906,-0.8001246452331543
1725892110706534400,21.834534423828124,0.14883708953857422,1.0020239353179932,-0.693190336227417
1725892110725383000,21.8533828125,-1.0782899856567383,3.801692008972168,-0.6792788505554199
1725892110744231200,21.872231201171875,2.549668788909912,0.4985923767089844,0.4373342990875244
1725892110763079700,21.89107958984375,2.598799705505371,0.45781946182250977,-1.0147173404693604
1725892110781928000,21.909927978515626,5.021367073059082,1.3566968441009521,1.9963617324829102
1725892110800776400,21.9287763671875,4.62204647064209,1.2865526676177979,-2.4440343379974365
1725892110819624700,21.947624755859376,1.8797249794006348,4.255825519561768,-3.9237256050109863
1725892110838473200,21.96647314453125,0.21642684936523438,4.858601093292236,-2.293473720550537
1725892110857321500,21.985321533203123,1.2997827529907227,2.391965389251709,-0.5091893672943115
1725892110876170000,22.004169921875,0.5454473495483398,-0.9957475662231445,2.970569133758545
1725892110895018200,22.023018310546874,0.5863008499145508,-5.708528518676758,1.6548230648040771
1725892110913866800,22.04186669921875,-0.5151877403259277,-5.491908550262451,0.5270748138427734
1725892110932715000,22.060715087890625,-2.5541934967041016,-1.7290234565734863,-0.18929338455200195
1725892110951563500,22.0795634765625,-2.003851890563965,-2.2627577781677246,2.5644071102142334
1725892110970411800,22.098411865234375,-2.255568504333496,-4.632463455200195,-0.39363813400268555
1725892110989260300,22.11726025390625,-1.8060297966003418,-3.37416934967041,-1.2218153476715088
1725892111008108500,22.136108642578126,-1.160684585571289,-3.5862526893615723,-0.018725156784057617
1725892111026957000,22.15495703125,-2.234652042388916,-3.6207799911499023,-0.24836015701293945
1725892111045805300,22.173805419921877,-1.2945904731750488,-2.0749025344848633,2.000274896621704
1725892111064653800,22.19265380859375,-1.2405285835266113,-0.21291589736938477,0.45987558364868164
1725892111083502000,22.211502197265624,0.27997875213623047,2.141359329223633,1.7564780712127686
1725892111102350600,22.2303505859375,0.5111312866210938,1.235189437866211,1.6578032970428467
1725892111121198800,22.24919873046875,-0.124664306640625,0.08259201049804688,-1.366295337677002
1725892111140047400,22.26804736328125,-0.293790340423584,0.9995989799499512,0.9243426322937012
1725892111158895600,22.2868955078125,-0.09033489227294922,0.6993780136108398,0.5322439670562744
1725892111177744100,22.305744140625,-0.04010820388793945,0.5071473121643066,0.6514251232147217
1725892111196592600,22.324592529296876,-0.07881307601928711,0.36857080459594727,-3.2295515537261963
1725892111215441000,22.34344091796875,-0.821357250213623,0.7596478462219238,1.535069465637207
1725892111234289400,22.362289306640626,-2.3655481338500977,-2.7122888565063477,3.296311378479004
1725892111253137700,22.3811376953125,-4.547084808349609,-5.630834579467773,0.2349228858947754
1725892111271986200,22.399986083984373,-1.6196203231811523,-2.9363298416137695,-0.017698287963867188
1725892111290834400,22.41883447265625,1.5453581809997559,-0.9598298072814941,-1.0627169609069824
1725892111309683000,22.437682861328124,3.364319086074829,0.22558164596557617,-1.9282950162887573
1725892111328531200,22.45653125,1.833183765411377,1.2438411712646484,-1.791269302368164
1725892111347379700,22.475379638671875,-1.172032356262207,2.119853973388672,0.6514787673950195
1725892111366228000,22.49422802734375,-1.617051601409912,0.20106887817382812,2.6863105297088623
1725892111385076500,22.513076416015625,0.2680020332336426,-2.4963021278381348,1.8416011333465576
1725892111403924700,22.5319248046875,0.025590896606445312,-1.8648252487182617,2.211676836013794
1725892111422773200,22.550773193359376,0.9734969139099121,-1.7128076553344727,2.603044271469116
1725892111441621500,22.56962158203125,0.4587111473083496,-0.6821460723876953,1.598057746887207
1725892111460470000,22.588469970703127,-1.284393310546875,-2.073031425476074,-0.3862943649291992
1725892111479318500,22.607318603515626,-1.8813552856445312,-3.195439338684082,0.8629179000854492
1725892111498166800,22.626166748046874,1.5520658493041992,-3.6672797203063965,0.523439884185791
1725892111517015300,22.645015380859373,1.9098010063171387,0.28515625,-1.3457036018371582
1725892111535863600,22.663863525390624,3.1322879791259766,3.444110631942749,-1.176612377166748
1725892111554712000,22.682712158203124,3.2885918617248535,4.346771240234375,-1.5658262968063354
1725892111573560300,22.701560302734375,3.5261998176574707,2.960526943206787,-2.1120100021362305
1725892111592408800,22.720408935546875,3.7975692749023438,1.9579962491989136,-0.6955796480178833
1725892111611257300,22.73925732421875,2.1475272178649902,2.063577651977539,-3.475614547729492
1725892111630105600,22.758105712890625,-0.1313953399658203,2.0659971237182617,-0.6834735870361328
1725892111648954000,22.7769541015625,2.0322251319885254,0.5010330677032471,-0.28063082695007324
1725892111667802400,22.79580224609375,2.5118136405944824,1.2111856937408447,-3.3265509605407715
1725892111686651000,22.81465087890625,-1.3665409088134766,4.139235973358154,-0.28042006492614746
1725892111705499100,22.8334990234375,-1.1175346374511719,0.9255776405334473,1.1937651634216309
1725892111724347600,22.85234765625,-0.3667888641357422,-0.848870038986206,0.6156437397003174
1725892111743196200,22.871196044921874,0.6803908348083496,-0.6472897529602051,2.2950782775878906
1725892111762044400,22.89004443359375,2.438817024230957,-1.7612500190734863,-1.0147757530212402
1725892111780893000,22.908892822265624,2.255065441131592,1.7521839141845703,-1.3256540298461914
1725892111799741200,22.9277412109375,1.349020004272461,3.472586154937744,-1.298513412475586
1725892111818589700,22.946589599609375,2.2606258392333984,2.843503952026367,-1.7654637098312378
1725892111837438000,22.96543798828125,1.338101863861084,2.5987582206726074,-1.913567304611206
1725892111856286500,22.984286376953126,-0.6536970138549805,2.408977746963501,0.5091817378997803
1725892111875135000,23.003135009765625,1.1962709426879883,-1.0695881843566895,1.5437102317810059
1725892111893983200,23.021983154296876,2.7948832511901855,-4.21662712097168,1.0945699214935303
1725892111912831700,23.040831787109376,2.831066370010376,-3.2421469688415527,-0.5425138473510742
1725892111931680000,23.059679931640623,0.4210219383239746,-1.369093894958496,-1.584124207496643
1725892111950528500,23.078528564453126,-0.6075010299682617,-0.6662650108337402,-0.342543363571167
1725892111969376800,23.097376708984374,-1.1148886680603027,-2.7005491256713867,2.2703497409820557
1725892111988225300,23.116225341796873,-2.9159040451049805,-3.1732101440429688,3.1115200519561768
1725892112007073800,23.13507373046875,-3.1485462188720703,-1.078847885131836,2.4724650382995605
1725892112025922000,23.153922119140624,-2.262190341949463,-2.692119598388672,0.7536933422088623
1725892112044770600,23.1727705078125,-1.0437731742858887,-2.0364317893981934,0.17642569541931152
1725892112063618800,23.191618896484375,-1.0589823722839355,-0.7021780014038086,0.679779052734375
1725892112082467300,23.21046728515625,-1.6368465423583984,-1.1109962463378906,2.062065601348877
1725892112101315800,23.22931591796875,-1.8247127532958984,-2.292271137237549,2.787466526031494
1725892112120164000,23.2481640625,-1.9955663681030273,-0.9718770980834961,1.2764322757720947
1725892112139012600,23.2670126953125,-0.364621639251709,-0.43484926223754883,2.1117823123931885
1725892112157861000,23.285861083984376,-0.33961963653564453,-0.3898892402648926,0.7982056140899658
1725892112176709400,23.30470947265625,-0.47003698348999023,0.7003579139709473,1.7836110591888428
1725892112195558000,23.323557861328126,0.16173553466796875,-0.9642367362976074,1.840883731842041
1725892112214406100,23.34240625,1.0096535682678223,-1.5316319465637207,-0.20920586585998535
1725892112233254700,23.361254638671873,1.5949153900146484,0.4090151786804199,-3.6170265674591064
1725892112252103000,23.38010302734375,1.686004638671875,2.935393810272217,-1.7136688232421875
1725892112270951400,23.398951416015624,1.8830220699310303,0.46688413619995117,-1.3234307765960693
1725892112289800000,23.417800048828123,0.6021547317504883,-1.9009332656860352,-1.6412909030914307
1725892112308648200,23.436648193359375,-0.18604660034179688,-0.1322498321533203,0.319857120513916
1725892112327496700,23.45549658203125,-0.23204517364501953,-0.8967556953430176,0.26178622245788574
1725892112346345200,23.47434521484375,-1.7455196380615234,-1.0646758079528809,2.436506986618042
1725892112365193500,23.493193359375,-1.7807855606079102,-0.8749032020568848,2.73673415184021
1725892112384042000,23.5120419921875,-0.1963191032409668,-2.243710517883301,2.1207103729248047
1725892112402890500,23.530890380859375,-0.6970901489257812,-2.0736069679260254,1.496366024017334
1725892112421738800,23.54973876953125,-1.3276677131652832,-2.5892281532287598,2.015425205230713
1725892112440587300,23.568587158203126,-1.3072633743286133,-3.0143399238586426,2.059364080429077
1725892112459435500,23.587435546875,0.07594633102416992,-2.284933090209961,1.2409210205078125
1725892112478284000,23.606283935546877,1.938699722290039,-2.2400717735290527,0.6550359725952148
1725892112497132500,23.625132568359376,1.3629522323608398,1.356128454208374,-0.3819139003753662
1725892112515980800,23.643980712890624,0.7517824172973633,3.3416953086853027,-1.0291595458984375
1725892112534829300,23.662829345703123,0.6632885932922363,2.581237316131592,-0.6688982248306274
