time,seconds_elapsed,z,y,x
1725631147202793500,0.02679345703125,0.6640916466712952,-0.12577521800994873,-1.4263685941696167
1725631147212746500,0.03674658203125,0.5283995866775513,-0.13418175280094147,-1.199047327041626
1725631147222699500,0.046699462890625,0.5045543313026428,-0.3114718496799469,-0.7797374129295349
1725631147232652500,0.056652587890625,0.5048653483390808,-0.7148110270500183,-0.3495495617389679
1725631147242605600,0.06660546875,0.7480207681655884,-1.0294820070266724,0.09151975065469742
1725631147252559400,0.076559326171875,0.9848586320877075,-1.3292346000671387,0.4203585982322693
1725631147262512400,0.086512451171875,0.9434994459152222,-1.382711410522461,0.6301595568656921
1725631147272465400,0.09646533203125,0.9095824956893921,-1.1390354633331299,0.7301745414733887
1725631147282418700,0.106418701171875,0.8357212543487549,-0.6038650274276733,0.7005168199539185
1725631147292371700,0.116371826171875,0.7110507488250732,-0.08109559118747711,0.5486039519309998
1725631147302324700,0.12632470703125,0.43422216176986694,0.13293211162090302,0.3197411894798279
1725631147312277800,0.13627783203125,0.08298397064208984,0.2625279128551483,0.1316644698381424
1725631147322230800,0.146230712890625,-0.2377261370420456,0.2732950747013092,0.04146214947104454
1725631147332183800,0.156183837890625,-0.45585897564888,-0.040572308003902435,0.15679965913295746
1725631147342136800,0.16613671875,-0.6245056390762329,-0.34944844245910645,0.21871498227119446
1725631147352089900,0.17608984375,-0.6777774095535278,-0.48858579993247986,0.27727335691452026
1725631147362043000,0.18604296875,-0.6283461451530457,-0.6584728956222534,0.23421576619148254
1725631147371996000,0.195995849609375,-0.5947754383087158,-0.7897939085960388,0.04446234926581383
1725631147381948700,0.20594873046875,-0.47831234335899353,-0.9435082674026489,-0.16478639841079712
1725631147391901700,0.215901611328125,-0.39284563064575195,-0.8223424553871155,-0.2865208089351654
1725631147401854700,0.225854736328125,-0.37332144379615784,-0.7530620098114014,-0.2597764730453491
1725631147411807700,0.235807861328125,-0.3940778374671936,-0.6939702033996582,-0.1014595478773117
1725631147421760800,0.2457607421875,-0.3905576765537262,-0.5851842761039734,0.08378798514604568
1725631147431713800,0.2557138671875,-0.12389697879552841,-0.8282701373100281,0.3418400287628174
1725631147441666800,0.265666748046875,0.33873075246810913,-0.7709081172943115,0.843359649181366
1725631147451619800,0.275619873046875,0.566329300403595,-0.5369289517402649,1.3731387853622437
1725631147461572900,0.28557275390625,0.5374420881271362,-0.8653938174247742,1.7245665788650513
1725631147471526000,0.29552587890625,0.37472349405288696,-1.6377792358398438,2.0275635719299316
1725631147481479000,0.30547900390625,0.29412105679512024,-2.291902780532837,2.452989101409912
1725631147491433000,0.315432861328125,0.26959413290023804,-2.6141679286956787,2.9014501571655273
1725631147501386000,0.325385986328125,0.1252863109111786,-2.730802059173584,3.0332157611846924
1725631147511338800,0.3353388671875,-0.25103700160980225,-2.1466548442840576,1.3393059968948364
1725631147521291800,0.345291748046875,-0.10818418860435486,-1.1661120653152466,0.5589482188224792
1725631147531244800,0.355244873046875,0.4787085950374603,0.14975161850452423,0.35548803210258484
1725631147541197800,0.36519775390625,0.8875325918197632,1.538502812385559,0.122816301882267
1725631147551150800,0.37515087890625,1.001775860786438,2.383589506149292,-0.06027974560856819
1725631147561104000,0.385103759765625,1.055919885635376,2.6071419715881348,-0.21753880381584167
1725631147571057000,0.395056884765625,1.2306461334228516,2.3480758666992188,-0.35769030451774597
1725631147581010000,0.405010009765625,1.640648365020752,1.8157228231430054,-0.45939135551452637
1725631147590963000,0.414962890625,2.340376615524292,1.1587930917739868,-0.4613136351108551
1725631147600916000,0.424916015625,2.7779831886291504,0.1957874447107315,-0.5338917374610901
1725631147610869000,0.434868896484375,2.9094555377960205,-0.7581595182418823,-0.5664515495300293
1725631147620821800,0.44482177734375,3.165337562561035,-1.8031529188156128,-0.6148685216903687
1725631147630774800,0.45477490234375,3.687431812286377,-2.600074291229248,-0.6497868299484253
1725631147640727800,0.464727783203125,4.3224101066589355,-2.9477856159210205,-0.736105740070343
1725631147650680800,0.474680908203125,4.859152317047119,-3.081212282180786,-0.9695419073104858
1725631147660633900,0.4846337890625,5.384966850280762,-3.182758331298828,-1.2434611320495605
1725631147670587000,0.4945869140625,5.84786319732666,-3.389683246612549,-1.4810489416122437
1725631147680540000,0.504539794921875,6.15353536605835,-3.89509916305542,-1.7792612314224243
1725631147690493000,0.514492919921875,6.287216663360596,-4.444297790527344,-2.0088512897491455
1725631147700446000,0.524446044921875,6.2891411781311035,-4.786715984344482,-1.9650906324386597
1725631147710399700,0.534399658203125,6.408735275268555,-4.718430519104004,-1.572941780090332
1725631147720352800,0.544352783203125,6.8375372886657715,-4.271273612976074,-1.3703125715255737
1725631147730305800,0.554305908203125,7.3334197998046875,-3.7681522369384766,-1.8256322145462036
1725631147740258800,0.5642587890625,7.386730194091797,-3.2868826389312744,-2.2465128898620605
1725631147750211800,0.5742119140625,7.396900177001953,-3.067155122756958,-2.5491743087768555
1725631147760164900,0.584164794921875,7.28368616104126,-3.068610668182373,-2.861469268798828
1725631147770117600,0.59411767578125,7.190080165863037,-3.4350478649139404,-2.8115651607513428
1725631147780070700,0.604070556640625,7.127340793609619,-4.4482526779174805,-2.0373427867889404
1725631147790023700,0.614023681640625,6.001638889312744,-3.6159286499023438,-1.730647325515747
1725631147799976700,0.623976806640625,5.089560508728027,-1.2693361043930054,-2.2027716636657715
1725631147809929700,0.6339296875,4.923977851867676,1.126961350440979,-3.105274200439453
1725631147819882800,0.6438828125,5.0215888023376465,3.635277032852173,-3.8488998413085938
1725631147829835800,0.653835693359375,5.168038845062256,5.104537487030029,-4.183798313140869
1725631147839788800,0.663788818359375,4.830437183380127,5.588064670562744,-4.224352836608887
1725631147849741800,0.673741943359375,3.6564781665802,4.880298614501953,-3.7156035900115967
1725631147859694600,0.683694580078125,3.756789207458496,5.3614115715026855,-3.44856858253479
1725631147869647600,0.693647705078125,3.795747995376587,2.9271304607391357,-2.258434772491455
1725631147879600600,0.7036005859375,4.135729789733887,3.108920097351074,-2.316133499145508
1725631147889553700,0.7135537109375,1.3602327108383179,3.8202359676361084,-1.1733348369598389
1725631147899506700,0.723506591796875,1.7614744901657104,3.8039348125457764,-0.4900643825531006
1725631147909459700,0.733459716796875,3.8433525562286377,4.599716663360596,-0.9552565217018127
1725631147919412700,0.743412841796875,3.673370599746704,3.4798130989074707,-1.210556149482727
1725631147929366800,0.75336669921875,2.6206207275390625,2.402723789215088,-0.34832051396369934
1725631147939319800,0.76331982421875,1.8087449073791504,1.5978155136108398,0.27848002314567566
1725631147949272800,0.77327294921875,1.914344310760498,2.7627787590026855,-0.0629071369767189
1725631147959225900,0.783225830078125,2.153456211090088,2.951406478881836,-0.03141306713223457
1725631147969179000,0.793178955078125,1.448280930519104,2.915581464767456,-0.17205965518951416
1725631147979132000,0.8031318359375,1.0766299962997437,2.990490674972534,0.1479685753583908
1725631147989084700,0.813084716796875,2.3218023777008057,3.5731327533721924,-0.15852957963943481
1725631147999037700,0.82303759765625,2.3899295330047607,2.873427152633667,0.33350831270217896
1725631148008990700,0.83299072265625,2.127823829650879,1.4344947338104248,1.3191488981246948
1725631148018943700,0.84294384765625,1.7354902029037476,0.9334502816200256,0.40747934579849243
1725631148028896800,0.852896728515625,2.8207852840423584,1.8843826055526733,1.7286185026168823
1725631148038849800,0.862849853515625,3.1663174629211426,1.4965417385101318,3.13904070854187
1725631148048802800,0.872802734375,3.33054780960083,1.3223897218704224,2.73946213722229
1725631148058755800,0.882755859375,3.136974573135376,1.5685480833053589,1.4988040924072266
1725631148068708900,0.892708984375,0.7604807615280151,1.246411681175232,-2.419501543045044
1725631148078662000,0.902661865234375,0.24657250940799713,1.8643909692764282,-2.09826397895813
1725631148088614700,0.91261474609375,-1.089396357536316,-0.27096858620643616,-0.8934881687164307
1725631148098567700,0.922567626953125,-1.2973558902740479,-0.43772637844085693,-0.5554943680763245
1725631148108520700,0.932520751953125,-1.533734917640686,0.2694488763809204,-0.7630523443222046
1725631148118473700,0.9424736328125,-1.898655891418457,0.5013831853866577,-0.7450344562530518
1725631148128426800,0.9524267578125,-2.1717069149017334,0.48320311307907104,-0.7654558420181274
1725631148138379800,0.9623798828125,-1.915351152420044,0.4436335563659668,-0.947227954864502
1725631148148333800,0.972333740234375,-1.480938196182251,0.312558114528656,-1.6991075277328491
1725631148158286800,0.982286865234375,-1.3166940212249756,-0.2841542363166809,-2.2147340774536133
1725631148168239900,0.992239990234375,-1.370137095451355,-1.2114487886428833,-2.6550748348236084
1725631148178193000,1.00219287109375,-1.7374078035354614,-2.4232373237609863,-2.075247049331665
1725631148188146000,1.01214599609375,-1.726243019104004,-3.064288854598999,-1.166948676109314
1725631148198099000,1.022098876953125,-1.2261604070663452,-1.7728798389434814,-1.142989993095398
1725631148208052000,1.032052001953125,-0.8401371240615845,0.07630658894777298,-1.408406376838684
1725631148218004700,1.042004638671875,-0.6715494990348816,1.1207712888717651,-1.5131912231445312
1725631148227957800,1.051957763671875,-0.5508936643600464,1.297270655632019,-1.2347874641418457
1725631148237910800,1.061910888671875,-0.6209765076637268,0.5007752180099487,-0.5418285131454468
1725631148247863800,1.07186376953125,-0.4510388672351837,-0.10097562521696091,-0.005049530882388353
1725631148257816800,1.08181689453125,-0.3732551038265228,-0.35323768854141235,0.2697773575782776
1725631148267769900,1.091769775390625,-0.17639398574829102,-0.523476243019104,0.3266448974609375
1725631148277723000,1.101722900390625,0.03804336488246918,-0.49345293641090393,-0.007949050515890121
1725631148287675600,1.111675537109375,0.23804862797260284,-0.18620724976062775,-0.5172764658927917
1725631148297628700,1.121628662109375,0.3453560769557953,0.029565677046775818,-1.1420577764511108
1725631148307581700,1.131581787109375,0.3848976194858551,0.08004216849803925,-1.5318676233291626
1725631148317534700,1.14153466796875,0.24564972519874573,0.163368821144104,-1.8818373680114746
1725631148327487700,1.15148779296875,0.012801826000213623,0.4414747357368469,-2.094373941421509
1725631148337440800,1.161440673828125,-0.3431892693042755,0.731759786605835,-2.0897135734558105
1725631148347393800,1.171393798828125,-0.6251868605613708,0.6951833963394165,-1.7888239622116089
1725631148357346800,1.181346923828125,-0.6911448836326599,0.45049402117729187,-1.2510391473770142
1725631148367299800,1.1912998046875,-0.6887310147285461,0.13062414526939392,-0.7069044709205627
1725631148377254000,1.20125390625,-0.6861535906791687,-0.1274508386850357,-0.3122117519378662
1725631148387207000,1.21120703125,-0.6484538316726685,-0.2630259692668915,-0.13329394161701202
1725631148397159700,1.22115966796875,-0.6524437069892883,-0.4231441020965576,-0.07157595455646515
1725631148407112700,1.23111279296875,-0.7387514114379883,-0.40905651450157166,-0.14215505123138428
1725631148417065700,1.241065673828125,-0.9133500456809998,-0.3747909367084503,-0.2860257029533386
1725631148427018800,1.251018798828125,-1.089665412902832,-0.2883143424987793,-0.43380770087242126
1725631148436971800,1.2609716796875,-1.0923835039138794,-0.10877228528261185,-0.74528568983078
1725631148446924800,1.2709248046875,-1.0097663402557373,-0.18734484910964966,-1.093672752380371
1725631148456877800,1.2808779296875,-0.7916152477264404,-0.51522296667099,-1.3188679218292236
1725631148466830800,1.290830810546875,-0.8070208430290222,-0.05107443407177925,-1.8823198080062866
1725631148476783900,1.300783935546875,-0.7852681279182434,-0.08935674279928207,-2.3800833225250244
1725631148486737000,1.31073681640625,-0.8524186611175537,-0.20684581995010376,-2.6566014289855957
1725631148496690000,1.32068994140625,-0.9218494892120361,-0.38639017939567566,-2.590674877166748
1725631148506642700,1.330642578125,-1.1185319423675537,-0.5707874894142151,-2.1812987327575684
1725631148516595700,1.340595703125,-1.3407880067825317,-0.591745138168335,-1.6119787693023682
1725631148526548700,1.350548828125,-1.4898751974105835,-0.2761389911174774,-1.0632530450820923
1725631148536501800,1.360501708984375,-1.3540351390838623,-0.21835823357105255,-0.5092856287956238
1725631148546454800,1.370454833984375,-1.3525069952011108,-0.4044780433177948,-0.17939746379852295
1725631148556407800,1.38040771484375,-1.5013141632080078,-0.35391321778297424,-0.1694497913122177
1725631148566360800,1.39036083984375,-1.9129751920700073,1.138600468635559,-0.6436722278594971
1725631148576313900,1.40031396484375,-0.9853378534317017,-0.37096765637397766,-0.12457705289125443
1725631148586267600,1.410267578125,-0.8010247349739075,-0.5421202182769775,-0.5998149514198303
1725631148596220700,1.420220703125,-0.7912510633468628,-0.33425605297088623,-0.7039772868156433
1725631148606173700,1.430173583984375,-0.8200174570083618,-0.4057217240333557,-0.5931692719459534
1725631148616126700,1.440126708984375,-0.6132314801216125,-0.4121966063976288,-0.33731698989868164
1725631148626079700,1.450079833984375,-0.5259820818901062,-0.28686851263046265,-0.3365824818611145
1725631148636032500,1.460032470703125,-0.4833739399909973,-0.11246302723884583,-0.3448585569858551
1725631148645985500,1.469985595703125,-0.4045094847679138,0.019385285675525665,-0.2665565609931946
1725631148655938600,1.4799384765625,-0.26331475377082825,-0.06438332051038742,-0.19597719609737396
1725631148665891600,1.4898916015625,-0.20560060441493988,-0.010123279877007008,-0.1760817915201187
1725631148675844600,1.4998447265625,-0.15884613990783691,0.027537280693650246,-0.14095096290111542
1725631148685797600,1.509797607421875,-0.13566838204860687,0.07786250114440918,-0.05395428463816643
1725631148695750700,1.519750732421875,-0.08413879573345184,0.018285147845745087,0.03918159008026123
1725631148705703700,1.52970361328125,-0.05247940123081207,0.1340317279100418,0.16521382331848145
1725631148715656700,1.53965673828125,-0.14079201221466064,0.4098659157752991,0.1602933555841446
1725631148725609700,1.549609619140625,-0.23767034709453583,0.6090921759605408,0.45521900057792664
1725631148735562800,1.559562744140625,-0.33695754408836365,1.3459529876708984,0.5301129817962646
1725631148745515500,1.569515625,-0.07605882734060287,1.6942167282104492,0.45028290152549744
1725631148755468500,1.579468505859375,0.16255781054496765,0.5084299445152283,0.6443242430686951
1725631148765422600,1.589422607421875,0.35695499181747437,0.40212368965148926,0.24617262184619904
1725631148775375600,1.599375732421875,0.4694176912307739,0.3755882680416107,0.2624621093273163
1725631148785328600,1.60932861328125,0.45282673835754395,0.45100393891334534,0.30935850739479065
1725631148795281700,1.61928173828125,0.26785051822662354,0.4402907192707062,0.10660798847675323
1725631148805234700,1.629234619140625,0.04866649955511093,0.19082577526569366,-0.023250412195920944
1725631148815187700,1.639187744140625,-0.1314765214920044,0.05494765564799309,-0.10469628870487213
1725631148825140700,1.649140625,-0.12346705794334412,0.042719751596450806,-0.1341892033815384
1725631148835093800,1.65909375,0.0740688294172287,0.10165158659219742,-0.13681311905384064
1725631148845046800,1.669046875,0.24564297497272491,0.1764184981584549,-0.10490712523460388
1725631148854999800,1.678999755859375,0.427885502576828,0.37002789974212646,-0.06859681755304337
1725631148864952800,1.688952880859375,0.6974490880966187,0.4275561571121216,0.0003039529547095299
1725631148874905600,1.698905517578125,0.9401090741157532,0.47705477476119995,0.02020232193171978
1725631148884858600,1.708858642578125,1.080984115600586,0.44967880845069885,-0.0880194902420044
1725631148894811600,1.718811767578125,1.163180947303772,0.1460098773241043,-0.06059480085968971
1725631148904764700,1.7287646484375,1.1924171447753906,0.18894748389720917,-0.11764130741357803
1725631148914717700,1.7387177734375,1.0945417881011963,0.018177196383476257,-0.09450162947177887
1725631148924670700,1.748670654296875,1.1011631488800049,0.09253505617380142,0.037738170474767685
1725631148934624800,1.758624755859375,1.0974522829055786,0.06292407214641571,0.1076059564948082
1725631148944577800,1.768577880859375,1.1594855785369873,0.11841022968292236,0.19804424047470093
1725631148954530800,1.77853076171875,1.2758243083953857,0.006442486308515072,0.2524043619632721
1725631148964483800,1.78848388671875,1.3550142049789429,-0.03516727685928345,0.3238127827644348
1725631148974436900,1.798436767578125,1.3411508798599243,-0.11214343458414078,0.2943432927131653
1725631148984390000,1.808389892578125,1.2890876531600952,-0.14625851809978485,0.3295324444770813
1725631148994343000,1.818343017578125,0.976053774356842,-0.25101763010025024,0.25774237513542175
1725631149004295700,1.828295654296875,0.20790386199951172,-0.4144987165927887,-0.018596533685922623
1725631149014248700,1.838248779296875,-0.2735709547996521,-0.571027398109436,-0.08962158858776093
1725631149024201700,1.84820166015625,-0.46970823407173157,-0.48183658719062805,0.1265551894903183
1725631149034154800,1.85815478515625,-0.5327504277229309,-0.17336688935756683,0.3348017930984497
1725631149044107800,1.868107666015625,-0.652447521686554,-0.025087151676416397,0.4829297363758087
1725631149054060800,1.878060791015625,-0.7436887621879578,0.011916649527847767,0.568398654460907
1725631149064013800,1.888013916015625,-0.7575334310531616,-0.044931985437870026,0.6316983103752136
1725631149073966800,1.897966796875,-0.6482583284378052,0.31561926007270813,0.5650795102119446
1725631149083920600,1.907920654296875,-0.5347762703895569,0.33977198600769043,0.48454901576042175
1725631149093873700,1.917873779296875,-0.3716379404067993,0.10024869441986084,0.29308411478996277
1725631149103826700,1.92782666015625,-0.29373249411582947,-0.14285503327846527,0.1283694952726364
1725631149113779700,1.93777978515625,-0.2727545499801636,-0.15508714318275452,0.02149023674428463
1725631149123732700,1.947732666015625,-0.2588493824005127,-0.10560827702283859,0.01306852325797081
1725631149133685500,1.957685546875,-0.23790162801742554,-0.015368305146694183,0.06914082914590836
1725631149143638500,1.967638427734375,-0.23540544509887695,0.04829962179064751,0.14801140129566193
1725631149153591600,1.977591552734375,-0.25985080003738403,0.06043354794383049,0.2275134027004242
1725631149163544600,1.987544677734375,-0.3248058259487152,0.02835710719227791,0.2718670070171356
1725631149173497600,1.99749755859375,-0.38153719902038574,0.010410631075501442,0.30153167247772217
1725631149183450600,2.00745068359375,-0.43102139234542847,-0.015689412131905556,0.2976357340812683
1725631149193403600,2.017403564453125,-0.4572291672229767,-0.032637860625982285,0.2898430824279785
1725631149203356700,2.027356689453125,-0.4895423650741577,-0.0559527724981308,0.22911156713962555
1725631149213309700,2.037309814453125,-0.4939686954021454,-0.09252922981977463,0.16021215915679932
1725631149223262700,2.0472626953125,-0.48424574732780457,-0.06245015561580658,0.09357455372810364
1725631149233215700,2.0572158203125,-0.4888308048248291,-0.013280918821692467,0.07314728945493698
1725631149243169800,2.067169677734375,-0.49966001510620117,0.042927227914333344,0.04943983256816864
1725631149253122800,2.077122802734375,-0.5171447992324829,0.010911148972809315,0.03440719470381737
1725631149263075600,2.08707568359375,-0.47971323132514954,0.0021565400529652834,0.052216820418834686
1725631149273028600,2.097028564453125,-0.41246548295021057,-0.011467363685369492,0.08249231427907944
1725631149282981400,2.1069814453125,-0.34852859377861023,0.03878888115286827,0.12368262559175491
1725631149292934400,2.116934326171875,-0.28942546248435974,0.13712744414806366,0.20427927374839783
1725631149302887400,2.126887451171875,-0.2856738567352295,0.23103104531764984,0.2751547694206238
1725631149312840400,2.13684033203125,-0.2594439685344696,0.2535230219364166,0.28767985105514526
1725631149322793200,2.146793212890625,-0.24686427414417267,0.22110222280025482,0.2317129522562027
1725631149332746200,2.156746337890625,-0.20199356973171234,0.25801393389701843,0.18601250648498535
1725631149342699300,2.16669921875,-0.1784922331571579,0.29656851291656494,0.17792582511901855
1725631149352652300,2.17665234375,-0.17582829296588898,0.32786983251571655,0.1861630380153656
1725631149362605300,2.186605224609375,-0.14051291346549988,0.37378567457199097,0.22826947271823883
1725631149372558300,2.196558349609375,-0.11702287942171097,0.4258900582790375,0.3186478614807129
1725631149382511400,2.206511474609375,-0.09955920279026031,0.3782016336917877,0.34970352053642273
1725631149392464400,2.21646435546875,-0.10124082118272781,0.30622541904449463,0.33287888765335083
1725631149402417400,2.22641748046875,-0.11498752981424332,0.3656834065914154,0.3578942120075226
1725631149412371500,2.236371337890625,-0.12891645729541779,0.4590209722518921,0.4142707884311676
1725631149422324500,2.246324462890625,-0.13007600605487823,0.5072630643844604,0.4393090307712555
1725631149432277500,2.256277587890625,-0.17374597489833832,0.4883667528629303,0.44406697154045105
1725631149442230500,2.26623046875,-0.22531063854694366,0.515396773815155,0.4924510419368744
1725631149452183300,2.276183349609375,-0.28488871455192566,0.5275405645370483,0.5467674136161804
1725631149462136300,2.28613623046875,-0.3485667407512665,0.44842901825904846,0.5346886515617371
1725631149472089300,2.29608935546875,-0.33702975511550903,0.36475038528442383,0.4572916626930237
1725631149482042400,2.30604248046875,-0.2750111222267151,0.23432953655719757,0.3288825452327728
1725631149491995400,2.315995361328125,-0.23572002351284027,0.10681791603565216,0.2351662516593933
1725631149501948400,2.325948486328125,-0.2307540327310562,0.0959029495716095,0.19005656242370605
1725631149511901400,2.3359013671875,-0.21999593079090118,0.1399843990802765,0.16094660758972168
1725631149521854500,2.3458544921875,-0.27327460050582886,0.15039442479610443,0.12468874454498291
1725631149531807500,2.355807373046875,-0.3152889013290405,0.1469842493534088,0.10334217548370361
1725631149541760500,2.365760498046875,-0.3607434630393982,0.18848295509815216,0.06448319554328918
1725631149551713500,2.375713623046875,-0.4010525047779083,0.27086853981018066,0.03368154168128967
1725631149561666300,2.385666259765625,-0.43836313486099243,0.3172946274280548,0.01311314944177866
1725631149571620400,2.395620361328125,-0.47244128584861755,0.33650726079940796,0.01965794898569584
1725631149581573000,2.405572998046875,-0.49262353777885437,0.36621296405792236,0.036357831209897995
1725631149591526100,2.415526123046875,-0.4931754469871521,0.3647110164165497,0.006809484213590622
1725631149601479200,2.425479248046875,-0.44944849610328674,0.32702621817588806,-0.031208736822009087
1725631149611432200,2.43543212890625,-0.38095909357070923,0.3806411027908325,-0.053202711045742035
1725631149621385200,2.44538525390625,-0.33797886967658997,0.42211583256721497,-0.06919872015714645
1725631149631338200,2.455338134765625,-0.3109257221221924,0.42581164836883545,-0.12244386970996857
1725631149641291300,2.465291259765625,-0.2780604660511017,0.4359194040298462,-0.1587214469909668
1725631149651244300,2.475244384765625,-0.2484949678182602,0.49398764967918396,-0.14408469200134277
1725631149661197300,2.485197265625,-0.21249301731586456,0.4982585608959198,-0.13178648054599762
1725631149671150300,2.495150390625,-0.18417781591415405,0.5273293256759644,-0.10678793489933014
1725631149681103400,2.505103271484375,-0.18627293407917023,0.48952412605285645,-0.14913353323936462
1725631149691056000,2.51505615234375,-0.18603794276714325,0.4308258593082428,-0.20613349974155426
1725631149701009200,2.525009033203125,-0.14698827266693115,0.43685686588287354,-0.23560750484466553
1725631149710962200,2.534962158203125,-0.11418014764785767,0.419899582862854,-0.28475069999694824
1725631149720915200,2.544915283203125,-0.08167866617441177,0.39794981479644775,-0.32822200655937195
1725631149730868200,2.5548681640625,-0.03818864747881889,0.35389038920402527,-0.3410278558731079
1725631149740821200,2.5648212890625,-0.003408031538128853,0.3916284739971161,-0.30380406975746155
1725631149750775300,2.574775390625,-0.03268709033727646,0.3659132421016693,-0.2843054533004761
1725631149760728300,2.584728271484375,-0.060698483139276505,0.2887260615825653,-0.2984151542186737
1725631149770681300,2.594681396484375,-0.06707476824522018,0.2923794984817505,-0.25694653391838074
1725631149780634400,2.60463427734375,-0.08675765991210938,0.26794180274009705,-0.24766677618026733
1725631149790587400,2.61458740234375,-0.11135470867156982,0.2903495132923126,-0.27114227414131165
1725631149800540400,2.62454052734375,-0.09497334063053131,0.264133095741272,-0.28164684772491455
1725631149810493400,2.634493408203125,-0.057149145752191544,0.16247455775737762,-0.2725856602191925
1725631149820446200,2.6444462890625,-0.00242331949993968,0.09023551642894745,-0.29312315583229065
1725631149830399200,2.654399169921875,0.057920217514038086,0.1033506840467453,-0.2676054835319519
1725631149840352300,2.664352294921875,0.07087782770395279,0.09714552015066147,-0.23793014883995056
1725631149850305300,2.67430517578125,0.07734675705432892,0.046888481825590134,-0.24189512431621552
1725631149860258300,2.68425830078125,0.0840161070227623,0.06209193542599678,-0.2176949828863144
1725631149870211300,2.69421142578125,0.06547969579696655,0.13523682951927185,-0.17589634656906128
1725631149880164400,2.704164306640625,0.15528494119644165,0.15359053015708923,-0.1874089241027832
1725631149890117400,2.714117431640625,0.16997374594211578,0.08594729006290436,-0.18769316375255585
1725631149900070400,2.7240703125,0.1469499170780182,0.174172505736351,-0.1959468275308609
1725631149910023400,2.7340234375,0.05208402872085571,0.1424112766981125,-0.21802428364753723
1725631149919976400,2.7439765625,0.07216399908065796,0.14342008531093597,-0.14684943854808807
1725631149929930500,2.753930419921875,0.15242549777030945,0.04538240656256676,-0.10862935334444046
1725631149939883500,2.763883544921875,0.2534900903701782,0.033266086131334305,-0.041259631514549255
1725631149949836300,2.773836181640625,0.3067700266838074,-0.09017343074083328,-0.014505824074149132
1725631149959789300,2.783789306640625,0.27755963802337646,-0.2741701602935791,0.011355067603290081
1725631149969742300,2.793742431640625,0.28009656071662903,-0.29538285732269287,0.0633414164185524
1725631149979695400,2.8036953125,0.28561460971832275,-0.2931484580039978,0.10390534996986389
1725631149989648400,2.8136484375,0.28372427821159363,-0.3004285991191864,0.11177068203687668
1725631149999601400,2.823601318359375,0.29163065552711487,-0.26708877086639404,0.17193388938903809
1725631150009554400,2.833554443359375,0.3047786355018616,-0.3484679162502289,0.13049398362636566
1725631150019507500,2.843507568359375,0.34237340092658997,-0.3719695210456848,0.07169325649738312
1725631150029460500,2.85346044921875,0.3687041103839874,-0.39682862162590027,0.028332408517599106
1725631150039413500,2.86341357421875,0.38407987356185913,-0.46432510018348694,-0.010944956913590431
1725631150049366500,2.873366455078125,0.41404733061790466,-0.45905470848083496,-0.0019407810177654028
1725631150059319300,2.8833193359375,0.43190860748291016,-0.4317445456981659,-0.010335597209632397
1725631150069272300,2.893272216796875,0.44785603880882263,-0.4383736848831177,-0.04136922210454941
1725631150079225300,2.903225341796875,0.4577949345111847,-0.4765876531600952,-0.11498831957578659
1725631150089179400,2.913179443359375,0.4619441032409668,-0.5465260744094849,-0.19622981548309326
1725631150099132400,2.92313232421875,0.4743642807006836,-0.6086480617523193,-0.17181847989559174
1725631150109085400,2.93308544921875,0.6030362844467163,-0.5108897686004639,-0.06850913912057877
1725631150119038500,2.94303857421875,0.5814471244812012,-0.46378031373023987,-0.07641712576150894
1725631150128991500,2.952991455078125,0.3852432072162628,-0.6829186081886292,-0.10680089890956879
1725631150138944500,2.962944580078125,0.41779184341430664,-0.33746078610420227,-0.12122990190982819
1725631150148897500,2.9728974609375,0.3678037226200104,-0.4088934063911438,-0.14548954367637634
1725631150158850300,2.982850341796875,0.33228644728660583,-0.35921400785446167,-0.08763503283262253
1725631150168803300,2.99280322265625,0.2829436957836151,-0.31820014119148254,-0.029066866263747215
1725631150178756400,3.00275634765625,0.3103702664375305,-0.2545098662376404,0.02199418656527996
1725631150188709400,3.01270947265625,0.46247202157974243,-0.10478036105632782,0.09594928473234177
1725631150198662400,3.022662353515625,0.6679601669311523,-0.21094487607479095,0.04664591699838638
1725631150208615400,3.032615478515625,0.8235194087028503,-0.4362557530403137,-0.062426209449768066
1725631150218568400,3.042568359375,0.8782678842544556,-0.5449459552764893,-0.2232755422592163
1725631150228521500,3.052521484375,0.868904173374176,-0.5976182222366333,-0.37419208884239197
1725631150238474500,3.062474609375,0.9219689965248108,-0.45630642771720886,-0.3432624042034149
1725631150248428300,3.07242822265625,0.8931252956390381,-0.33486407995224,-0.2815078794956207
1725631150258381300,3.08238134765625,0.835150420665741,-0.25202059745788574,-0.22305281460285187
1725631150268334300,3.092334228515625,0.7613126635551453,-0.1939651072025299,-0.18714360892772675
1725631150278287400,3.102287353515625,0.6809235215187073,-0.20049810409545898,-0.21865519881248474
1725631150288240400,3.112240478515625,0.636238694190979,-0.20767681300640106,-0.24504072964191437
1725631150298193400,3.122193359375,0.6224179267883301,-0.22544409334659576,-0.2773078680038452
1725631150308146400,3.132146484375,0.6214247941970825,-0.2398616522550583,-0.32933157682418823
1725631150318099500,3.142099365234375,0.640745222568512,-0.24100254476070404,-0.3655199408531189
1725631150328052500,3.152052490234375,0.6436340808868408,-0.24283593893051147,-0.360629141330719
1725631150338005500,3.162005615234375,0.6419386863708496,-0.2454463690519333,-0.3827243149280548
1725631150347958500,3.17195849609375,0.644324541091919,-0.2649577856063843,-0.41258737444877625
1725631150357911600,3.18191162109375,0.6633104681968689,-0.2784046232700348,-0.45940256118774414
1725631150367864300,3.1918642578125,0.6810925602912903,-0.2918423116207123,-0.4951334595680237
1725631150377817300,3.2018173828125,0.6860207319259644,-0.29535236954689026,-0.47164756059646606
1725631150387770400,3.211770263671875,0.6847172379493713,-0.2694377601146698,-0.40165671706199646
1725631150397723400,3.221723388671875,0.6664263606071472,-0.23707103729248047,-0.35059699416160583
1725631150407677400,3.231677490234375,0.6612278819084167,-0.2572380006313324,-0.3251829147338867
1725631150417630500,3.24163037109375,0.646269679069519,-0.3291737139225006,-0.33547577261924744
1725631150427583500,3.25158349609375,0.6216555237770081,-0.30511409044265747,-0.354174941778183
1725631150437536500,3.26153662109375,0.6111725568771362,-0.4159298241138458,-0.3565797805786133
1725631150447489500,3.271489501953125,0.5609620213508606,-0.3753856122493744,-0.32572782039642334
1725631150457442600,3.281442626953125,0.5545600652694702,-0.3696606159210205,-0.23251506686210632
1725631150467395600,3.2913955078125,0.5146886706352234,-0.41192400455474854,-0.18296584486961365
1725631150477348600,3.3013486328125,0.4934491813182831,-0.46629804372787476,-0.14590954780578613
1725631150487301600,3.311301513671875,0.46174120903015137,-0.543258011341095,-0.08801888674497604
1725631150497254400,3.32125439453125,0.4217884838581085,-0.4627423882484436,-0.06235906854271889
1725631150507207400,3.33120751953125,0.413393497467041,-0.5164817571640015,-0.027012018486857414
1725631150517160400,3.341160400390625,0.3499303460121155,-0.39356887340545654,0.0007200113614089787
1725631150527113500,3.351113525390625,0.3089429438114166,-0.48285478353500366,-0.01739930920302868
1725631150537066500,3.36106640625,0.2468595951795578,-0.5358530282974243,-0.05555441603064537
1725631150547020500,3.3710205078125,0.1775389462709427,-0.40930214524269104,-0.03688324987888336
1725631150556973600,3.3809736328125,0.14759941399097443,-0.47291573882102966,-0.03351541608572006
1725631150566926600,3.390926513671875,0.04116680845618248,-0.41758766770362854,-0.03011215105652809
1725631150576879600,3.400879638671875,-0.06870456039905548,-0.4829182028770447,0.015458795242011547
1725631150586832600,3.41083251953125,-0.17411163449287415,-0.25313234329223633,0.118842713534832
1725631150596785700,3.42078564453125,-0.21877124905586243,-0.16211484372615814,0.2557438313961029
1725631150606738700,3.43073876953125,-0.32400935888290405,-0.2135571986436844,0.39915648102760315
1725631150616691700,3.440691650390625,-0.4060693383216858,-0.015414808876812458,0.501036524772644
1725631150626644500,3.45064453125,-0.4265037178993225,0.0667826309800148,0.5870737433433533
1725631150636597500,3.460597412109375,-0.4373670220375061,0.13218773901462555,0.6611732840538025
1725631150646550500,3.470550537109375,-0.4487873315811157,0.16228166222572327,0.7195663452148438
1725631150656503600,3.480503662109375,-0.4339261054992676,0.15209080278873444,0.680393636226654
1725631150666456600,3.49045654296875,-0.3899683654308319,-0.003963768482208252,0.5824718475341797
1725631150676409600,3.50040966796875,-0.2743419110774994,-0.1760343313217163,0.5244580507278442
1725631150686362600,3.510362548828125,-0.196078822016716,-0.3149445354938507,0.4420550763607025
1725631150696315600,3.520315673828125,-0.13243380188941956,-0.4604934751987457,0.33742082118988037
1725631150706269400,3.53026953125,-0.0806591808795929,-0.6563022136688232,0.20228035748004913
1725631150716222500,3.540222412109375,-0.07780773937702179,-0.7986132502555847,0.08770982921123505
1725631150726175500,3.550175537109375,-0.1445641964673996,-0.7310670018196106,0.10479322820901871
1725631150736128500,3.56012841796875,-0.21117891371250153,-0.47522857785224915,0.22501976788043976
1725631150746081500,3.57008154296875,-0.2975146472454071,-0.28881803154945374,0.3314649760723114
1725631150756034300,3.580034423828125,-0.28854405879974365,-0.19033591449260712,0.3805297315120697
1725631150765987300,3.5899873046875,-0.25638023018836975,-0.2745524048805237,0.30410251021385193
1725631150775940400,3.5999404296875,-0.16284841299057007,-0.2750341594219208,0.26963934302330017
1725631150785893400,3.609893310546875,-0.057732727378606796,-0.23907344043254852,0.2907211184501648
1725631150795846400,3.619846435546875,0.029167285189032555,-0.271300345659256,0.21592864394187927
1725631150805799400,3.62979931640625,0.08076357841491699,-0.2556569576263428,0.1055905669927597
1725631150815752400,3.63975244140625,0.10233943909406662,-0.18281365931034088,0.06923921406269073
1725631150825705500,3.64970556640625,0.09885423630475998,-0.09430178999900818,0.03971529006958008
1725631150835658500,3.659658447265625,0.11329176276922226,-0.012604533694684505,0.006057196296751499
1725631150845611500,3.669611572265625,0.06889741867780685,0.0225016251206398,-0.04367873817682266
1725631150855565600,3.679565673828125,0.04450392350554466,0.08628539741039276,-0.07086987793445587
1725631150865518600,3.6895185546875,0.035041652619838715,0.10915453732013702,-0.10048976540565491
1725631150875471600,3.6994716796875,0.032758258283138275,0.17981059849262238,-0.09669502824544907
1725631150885424400,3.70942431640625,-0.0033705788664519787,0.3079856038093567,-0.03260960057377815
1725631150895377400,3.71937744140625,-0.06450743228197098,0.4236016869544983,0.02108398824930191
1725631150905330400,3.729330322265625,-0.10269374400377274,0.5147647261619568,0.07862044870853424
1725631150915283500,3.739283447265625,-0.1161634773015976,0.5172363519668579,0.11493770778179169
1725631150925236500,3.749236572265625,-0.11451834440231323,0.41202807426452637,0.04288403317332268
1725631150935189500,3.759189453125,-0.10590435564517975,0.33866438269615173,-0.04230889305472374
1725631150945142500,3.769142578125,-0.10711239278316498,0.32582855224609375,-0.08660132437944412
1725631150955095600,3.779095458984375,-0.08507367223501205,0.23751096427440643,-0.17257028818130493
1725631150965048600,3.789048583984375,-0.07028575241565704,0.16086462140083313,-0.27822133898735046
1725631150975001600,3.799001708984375,-0.0839802548289299,0.2301909625530243,-0.2726318836212158
1725631150984954600,3.80895458984375,-0.07463276386260986,0.2905786335468292,-0.19087715446949005
1725631150994907400,3.818907470703125,-0.06673330068588257,0.22332102060317993,-0.12737275660037994
1725631151004861700,3.82886181640625,-0.07687444239854813,0.18082530796527863,-0.08190638571977615
1725631151014814500,3.838814453125,-0.09285154193639755,0.2656797468662262,0.0955946296453476
1725631151024767500,3.848767578125,-0.11946717649698257,0.38604238629341125,0.28029683232307434
1725631151034720500,3.858720458984375,-0.12941567599773407,0.3576357662677765,0.3218541443347931
1725631151044673500,3.868673583984375,-0.09369046986103058,0.2499922215938568,0.2808924913406372
1725631151054626600,3.87862646484375,-0.060028914362192154,0.13244961202144623,0.261627733707428
1725631151064579600,3.88857958984375,-0.04832044988870621,0.09993738681077957,0.24295447766780853
1725631151074532600,3.89853271484375,-0.04119063541293144,0.14328433573246002,0.22856462001800537
1725631151084485600,3.908485595703125,-0.052824266254901886,0.14487086236476898,0.15565896034240723
1725631151094438700,3.918438720703125,-0.05438967049121857,-0.010603411123156548,0.0011844385880976915
1725631151104391700,3.9283916015625,-0.09551399946212769,-0.12269740551710129,-0.09994026273488998
1725631151114344700,3.9383447265625,-0.16622838377952576,-0.06706184148788452,-0.07121460884809494
1725631151124297500,3.94829736328125,-0.22398440539836884,0.08645442128181458,-0.051694970577955246
1725631151134250500,3.95825048828125,-0.30616262555122375,0.14186468720436096,-0.0672086775302887
1725631151144203500,3.96820361328125,-0.3900703191757202,0.11061958968639374,-0.10993993282318115
1725631151154157300,3.9781572265625,-0.4672039747238159,0.02381012961268425,-0.1341952085494995
1725631151164110300,3.9881103515625,-0.49950116872787476,-0.09389104694128036,-0.1286163479089737
1725631151174063400,3.9980634765625,-0.44903212785720825,0.051147375255823135,0.040750838816165924
1725631151184016400,4.008016357421875,-0.40358978509902954,0.19166824221611023,0.1645774245262146
1725631151193969400,4.017969482421875,-0.3142718970775604,0.21711395680904388,0.15029409527778625
1725631151203922400,4.02792236328125,-0.251634806394577,0.254227876663208,0.04283541813492775
1725631151213875500,4.03787548828125,-0.19578751921653748,0.18529674410820007,-0.061480067670345306
1725631151223828500,4.047828369140625,-0.21097241342067719,0.00017967016901820898,-0.2283473014831543
1725631151233781500,4.057781494140625,-0.23057088255882263,-0.2962658405303955,-0.3110951781272888
1725631151243734500,4.067734619140625,-0.18488182127475739,-0.43422290682792664,-0.26879823207855225
1725631151253687300,4.077687255859375,-0.2815505862236023,-0.5627212524414062,-0.14972537755966187
1725631151263640300,4.087640380859375,-0.21859478950500488,-0.2779652178287506,-0.009832752868533134
1725631151273593300,4.09759326171875,-0.205136239528656,-0.05869702994823456,0.08258852362632751
1725631151283546400,4.10754638671875,-0.12033796310424805,0.1580810695886612,0.1662554293870926
1725631151293499600,4.117499755859375,-0.05080762505531311,0.1325290948152542,0.09159530699253082
1725631151303452700,4.12745263671875,0.003974986262619495,0.04630395770072937,-0.016751553863286972
1725631151313406700,4.13740673828125,-0.06017710268497467,-0.2555046081542969,-0.16466590762138367
1725631151323359700,4.14735986328125,0.02982761338353157,-0.3751060962677002,-0.1974189132452011
1725631151333312800,4.157312744140625,0.12348592281341553,-0.46707117557525635,-0.1270262449979782
1725631151343265800,4.167265869140625,0.10230489820241928,-0.47463688254356384,-0.032149843871593475
1725631151353218800,4.17721875,0.06559827923774719,-0.45074352622032166,0.1586025357246399
1725631151363171800,4.187171875,-0.05444292351603508,-0.5643942952156067,0.2925482988357544
1725631151373124900,4.197124755859375,-0.1552094668149948,-0.6009203195571899,0.3543488085269928
1725631151383077600,4.20707763671875,-0.19349072873592377,-0.44960764050483704,0.4050547778606415
1725631151393030700,4.21703076171875,-0.2336016595363617,-0.18661993741989136,0.5141240358352661
1725631151402983700,4.226983642578125,-0.2704351544380188,-0.036911774426698685,0.6008623838424683
1725631151412936700,4.236936767578125,-0.2842090427875519,-0.014992093667387962,0.6445196270942688
1725631151422889700,4.2468896484375,-0.29770275950431824,-0.0890214741230011,0.6175707578659058
1725631151432842800,4.2568427734375,-0.3347334861755371,-0.17053577303886414,0.5319144129753113
1725631151442795800,4.266795654296875,-0.3071374297142029,-0.23955640196800232,0.41795796155929565
1725631151452748800,4.276748779296875,-0.3365856111049652,-0.24241743981838226,0.3178321421146393
1725631151462701800,4.286701904296875,-0.35403206944465637,-0.1433662325143814,0.33934998512268066
1725631151472656000,4.29665576171875,-0.34151628613471985,-0.004582246765494347,0.28050076961517334
1725631151482609000,4.30660888671875,-0.36227864027023315,0.010067847557365894,0.20786087214946747
1725631151492562000,4.31656201171875,-0.32170218229293823,-0.16120083630084991,0.1958409696817398
1725631151502515000,4.326514892578125,-0.37959444522857666,0.07081202417612076,0.15136992931365967
1725631151512467700,4.3364677734375,-0.38447070121765137,0.10377930104732513,0.18282639980316162
1725631151522420700,4.346420654296875,-0.39170005917549133,0.04356243833899498,0.158633753657341
1725631151532373800,4.356373779296875,-0.35724034905433655,0.06620064377784729,0.11326733231544495
1725631151542326800,4.366326904296875,-0.34489327669143677,0.1118035539984703,0.16793079674243927
1725631151552279800,4.37627978515625,-0.3434746265411377,0.1904996931552887,0.16014371812343597
1725631151562232800,4.38623291015625,-0.32177701592445374,0.2379363477230072,0.174318328499794
1725631151572185900,4.396185791015625,-0.35617148876190186,0.3974969685077667,0.22408641874790192
1725631151582139000,4.406138916015625,-0.3986649811267853,0.5166957974433899,0.3053584396839142
1725631151592092000,4.416091796875,-0.4234968423843384,0.3415791094303131,0.22088401019573212
1725631151602045000,4.426044921875,-0.4043789505958557,0.23274344205856323,0.15602055191993713
1725631151611998000,4.435998046875,-0.3701501488685608,0.3815566301345825,0.1673584282398224
1725631151621950700,4.44595068359375,-0.3541613519191742,0.5415821075439453,0.25270986557006836
1725631151631904800,4.45590478515625,-0.35270780324935913,0.6152246594429016,0.2957223057746887
1725631151641857500,4.465857421875,-0.3196086585521698,0.5055952072143555,0.26682281494140625
1725631151651810600,4.475810546875,-0.3065253496170044,0.44003140926361084,0.20561325550079346
1725631151661763600,4.485763671875,-0.27592477202415466,0.42575496435165405,0.1953834593296051
1725631151671716600,4.495716552734375,-0.28240877389907837,0.38175898790359497,0.25086191296577454
1725631151681669600,4.505669677734375,-0.29513880610466003,0.2541455328464508,0.2744860351085663
1725631151691622700,4.51562255859375,-0.29225751757621765,0.1632489264011383,0.30329158902168274
1725631151701575700,4.52557568359375,-0.27984264492988586,0.20880740880966187,0.321353018283844
1725631151711528700,4.53552880859375,-0.2797459661960602,0.27899369597435,0.33471331000328064
1725631151721481700,4.545481689453125,-0.3252200484275818,0.2958891689777374,0.2748885452747345
1725631151731434800,4.555434814453125,-0.36214664578437805,0.2850083112716675,0.2261878401041031
1725631151741387800,4.5653876953125,-0.37971821427345276,0.19581101834774017,0.17238548398017883
1725631151751340500,4.575340576171875,-0.3764031231403351,0.10048609226942062,0.1761208325624466
1725631151761293600,4.58529345703125,-0.3837167024612427,0.2257920801639557,0.1460670530796051
1725631151771246600,4.59524658203125,-0.3613402843475342,0.19163091480731964,0.13661549985408783
1725631151781199600,4.60519970703125,-0.3107196092605591,0.21142815053462982,0.14535199105739594
1725631151791152600,4.615152587890625,-0.242436945438385,0.2925696074962616,0.14198042452335358
1725631151801106700,4.625106689453125,-0.2012975960969925,0.3212248384952545,0.08984184265136719
1725631151811059700,4.635059814453125,-0.17243105173110962,0.3865726888179779,0.061113256961107254
1725631151821012700,4.6450126953125,-0.16103346645832062,0.4493328630924225,0.03480100259184837
1725631151830965800,4.6549658203125,-0.14508458971977234,0.4307767450809479,-0.0007929474231787026
1725631151840918800,4.664918701171875,-0.12406988441944122,0.4593844711780548,0.019361350685358047
1725631151850871800,4.674871826171875,-0.1245921328663826,0.4667228162288666,0.04860951751470566
1725631151860824800,4.684824951171875,-0.11507051438093185,0.47384801506996155,0.05594699829816818
1725631151870777900,4.69477783203125,-0.09970700740814209,0.4721313416957855,0.044110044836997986
1725631151880730600,4.704730712890625,-0.07365964353084564,0.4574850797653198,0.05129525810480118
1725631151890683600,4.71468359375,-0.05648811534047127,0.4752984046936035,0.07070598006248474
1725631151900636700,4.72463671875,-0.041180320084095,0.5225738883018494,0.08902060985565186
1725631151910589700,4.734589599609375,-0.04163225740194321,0.5524247288703918,0.09457489848136902
1725631151920542700,4.744542724609375,-0.03121132217347622,0.4772370457649231,0.0670590028166771
1725631151930495700,4.754495849609375,-0.03795178234577179,0.41477152705192566,0.06667550653219223
1725631151940448800,4.76444873046875,-0.03033425100147724,0.34475696086883545,0.07251573354005814
1725631151950401800,4.77440185546875,-0.009847085922956467,0.38107821345329285,0.09305616468191147
1725631151960354800,4.784354736328125,0.0013918480835855007,0.28767824172973633,0.0964839980006218
1725631151970308900,4.794308837890625,0.0160906333476305,0.21846535801887512,0.10791561752557755
1725631151980262000,4.804261962890625,0.04484350234270096,0.13863468170166016,0.08926720172166824
1725631151990215000,4.81421484375,0.07839560508728027,0.0048795477487146854,0.05753536894917488
1725631152000168000,4.82416796875,0.1620207577943802,-0.16771000623703003,0.04764879122376442
1725631152010120700,4.83412060546875,0.270579993724823,-0.2872377634048462,0.08311784267425537
1725631152020073700,4.84407373046875,0.38123416900634766,-0.435405969619751,0.094854436814785
1725631152030026800,4.85402685546875,0.4343826174736023,-0.4802432060241699,0.1686764508485794
1725631152039979800,4.863979736328125,0.4475347101688385,-0.44229990243911743,0.22812455892562866
1725631152049932800,4.873932861328125,0.42306023836135864,-0.44275474548339844,0.24310457706451416
1725631152059885800,4.8838857421875,0.41360974311828613,-0.4066821336746216,0.3080686628818512
1725631152069838800,4.8938388671875,0.4638715982437134,-0.3361470103263855,0.3924892842769623
1725631152079791900,4.9037919921875,0.5301119685173035,-0.41337379813194275,0.3881714940071106
1725631152089745000,4.913744873046875,0.6023241281509399,-0.6040686368942261,0.3453390896320343
1725631152099698000,4.923697998046875,0.6806564927101135,-0.7473865151405334,0.34181126952171326
1725631152109651000,4.93365087890625,0.7479806542396545,-0.8221853375434875,0.32816895842552185
1725631152119603700,4.943603759765625,0.7955124378204346,-0.8105065822601318,0.2968607544898987
1725631152129556700,4.953556640625,0.8324962854385376,-0.7845926880836487,0.2686144709587097
1725631152139509800,4.963509765625,0.8624181747436523,-0.776447594165802,0.2355700135231018
1725631152149463600,4.973463623046875,0.8729842901229858,-0.7324162125587463,0.12195290625095367
1725631152159416600,4.98341650390625,0.8730112910270691,-0.6657570600509644,-0.01187595259398222
1725631152169369600,4.99336962890625,0.8619895577430725,-0.5994747281074524,-0.11055352538824081
1725631152179322600,5.003322509765625,0.8346070051193237,-0.6078218817710876,-0.18459847569465637
1725631152189275600,5.013275634765625,0.824120283126831,-0.5636096596717834,-0.25734061002731323
1725631152199228700,5.023228759765625,0.8462454676628113,-0.43818625807762146,-0.39198267459869385
1725631152209181700,5.033181640625,0.7836284637451172,-0.30389076471328735,-0.5585338473320007
1725631152219134700,5.043134765625,0.6743338108062744,-0.2046239823102951,-0.6759639978408813
1725631152229087700,5.053087646484375,0.5817024111747742,-0.17953860759735107,-0.7033149003982544
1725631152239040800,5.063040771484375,0.5658283233642578,-0.05016045644879341,-0.7900604605674744
1725631152248993500,5.07299365234375,0.5765595436096191,-0.009452173486351967,-0.9144580364227295
1725631152258946600,5.082946533203125,0.5802032947540283,0.028752468526363373,-0.9912553429603577
1725631152268899600,5.092899658203125,0.5406913161277771,0.062408965080976486,-1.0308233499526978
1725631152278852600,5.1028525390625,0.507891058921814,0.1522814929485321,-0.9656751155853271
1725631152288805600,5.1128056640625,0.44586312770843506,0.24637550115585327,-0.9163568019866943
1725631152298758400,5.12275830078125,0.397239089012146,0.29436391592025757,-0.8918027877807617
1725631152308711400,5.13271142578125,0.36886870861053467,0.3295826017856598,-0.845005989074707
1725631152318665500,5.14266552734375,0.369299978017807,0.3564741313457489,-0.8373177647590637
1725631152328618500,5.152618408203125,0.3862009346485138,0.3408009111881256,-0.8406028151512146
1725631152338571500,5.162571533203125,0.3932008147239685,0.3282419741153717,-0.8178521990776062
1725631152348524500,5.172524658203125,0.3957372307777405,0.31383347511291504,-0.7154331803321838
1725631152358477600,5.1824775390625,0.4261661171913147,0.33975833654403687,-0.6547582745552063
1725631152368430600,5.1924306640625,0.4520499110221863,0.37729907035827637,-0.6261053681373596
1725631152378383600,5.202383544921875,0.5077714323997498,0.3750787675380707,-0.5582879781723022
1725631152388336600,5.212336669921875,0.5605614185333252,0.31997981667518616,-0.4702025353908539
1725631152398289700,5.22228955078125,0.6037849187850952,0.2820776104927063,-0.3984532654285431
1725631152408242700,5.23224267578125,0.5739434361457825,0.3735044598579407,-0.35796868801116943
1725631152418195700,5.24219580078125,0.43217992782592773,0.4059554636478424,-0.37815552949905396
1725631152428148500,5.2521484375,0.29177114367485046,0.38405656814575195,-0.39570122957229614
1725631152438101500,5.2621015625,0.20880450308322906,0.42641112208366394,-0.39922377467155457
1725631152448054500,5.272054443359375,0.11998914927244186,0.3391622304916382,-0.4032696485519409
1725631152458007600,5.282007568359375,0.042288366705179214,0.29858383536338806,-0.4735901355743408
1725631152467960600,5.291960693359375,-0.00996418483555317,0.2849489748477936,-0.4874444305896759
1725631152477913600,5.30191357421875,-0.05694742128252983,0.3149435222148895,-0.4012454152107239
1725631152487867600,5.31186767578125,-0.09859020262956619,0.2492484301328659,-0.3368445634841919
1725631152497820700,5.321820556640625,-0.12344351410865784,0.2762852907180786,-0.23764044046401978
1725631152507773700,5.331773681640625,-0.2620844841003418,0.3762590289115906,-0.14937104284763336
1725631152517726700,5.341726806640625,-0.2944759130477905,0.3817475140094757,-0.07505185157060623
1725631152527679700,5.3516796875,-0.17744144797325134,0.36327263712882996,-0.012261705473065376
1725631152537632800,5.3616328125,-0.17253126204013824,0.3501627743244171,-0.008398652076721191
1725631152547585800,5.371585693359375,-0.2959405183792114,0.46060168743133545,0.05206762254238129
1725631152557538600,5.38153857421875,-0.256827712059021,0.4511030912399292,0.1597399115562439
1725631152567491600,5.39149169921875,-0.2385338991880417,0.42464298009872437,0.2090291529893875
1725631152577444600,5.401444580078125,-0.20418433845043182,0.25373804569244385,0.28794533014297485
1725631152587397600,5.411397705078125,-0.21066860854625702,0.1733851432800293,0.2835899889469147
1725631152597350700,5.4213505859375,-0.24302449822425842,0.1682688146829605,0.26453614234924316
1725631152607303700,5.4313037109375,-0.2837924361228943,0.23490989208221436,0.2771475315093994
1725631152617256700,5.441256591796875,-0.3085174858570099,0.32279279828071594,0.3021211624145508
1725631152627209700,5.451209716796875,-0.31494635343551636,0.32548046112060547,0.276296466588974
1725631152637162800,5.461162841796875,-0.2931326627731323,0.25086870789527893,0.19852890074253082
1725631152647115800,5.47111572265625,-0.26944437623023987,0.19690373539924622,0.1515992134809494
1725631152657068800,5.48106884765625,-0.25985750555992126,0.0949125587940216,0.09160932898521423
1725631152667021600,5.491021484375,-0.26247379183769226,-0.02468361333012581,-0.013798855245113373
1725631152676975600,5.5009755859375,-0.2718071937561035,-0.08392183482646942,-0.06444384157657623
1725631152686928400,5.510928466796875,-0.2934395372867584,-0.07443378865718842,-0.049877412617206573
1725631152696881400,5.52088134765625,-0.3215077221393585,-0.08001743257045746,-0.0500732883810997
1725631152706834400,5.53083447265625,-0.3203654885292053,-0.06587231904268265,-0.0014599451096728444
1725631152716787500,5.540787353515625,-0.31013792753219604,-0.08229529857635498,0.0386805459856987
1725631152726740500,5.550740478515625,-0.29801976680755615,-0.08892949670553207,0.12589454650878906
1725631152736693500,5.560693603515625,-0.26708054542541504,-0.13468921184539795,0.14666937291622162
1725631152746646500,5.570646484375,-0.2101280391216278,-0.1895758956670761,0.1432296335697174
1725631152756599600,5.580599609375,-0.13982920348644257,-0.24312151968479156,0.15263858437538147
1725631152766552600,5.590552490234375,-0.08900198340415955,-0.325702965259552,0.12165829539299011
1725631152776505600,5.600505615234375,-0.05308579280972481,-0.2852538228034973,0.12406765669584274
1725631152786458400,5.610458251953125,-0.06232403218746185,-0.20315413177013397,0.18457920849323273
1725631152796411400,5.620411376953125,-0.10294723510742188,-0.19953134655952454,0.2245154231786728
1725631152806364400,5.630364501953125,-0.11281531304121017,-0.19509825110435486,0.24382707476615906
1725631152816317400,5.6403173828125,-0.15108472108840942,-0.233302041888237,0.25168612599372864
1725631152826270500,5.6502705078125,-0.19700001180171967,-0.3221687972545624,0.19590672850608826
1725631152836223500,5.660223388671875,-0.23360128700733185,-0.36960870027542114,0.13847029209136963
1725631152846176500,5.670176513671875,-0.27292951941490173,-0.38614746928215027,0.09444531053304672
1725631152856130600,5.680130615234375,-0.30262425541877747,-0.4632960855960846,0.07368484884500504
1725631152866083600,5.69008349609375,-0.3082674741744995,-0.5607683062553406,0.03571004047989845
1725631152876036600,5.70003662109375,-0.2846372425556183,-0.6642935276031494,-0.01941067725419998
1725631152885989600,5.70998974609375,-0.22241675853729248,-0.7200856804847717,-0.060644134879112244
1725631152895942700,5.719942626953125,-0.16594266891479492,-0.7982149720191956,-0.10205816477537155
1725631152905895700,5.729895751953125,-0.12207481265068054,-0.807445764541626,-0.0936199352145195
1725631152915848400,5.739848388671875,-0.06763053685426712,-0.752326488494873,-0.027691826224327087
1725631152925801500,5.749801513671875,-0.018364988267421722,-0.6791345477104187,0.02133191004395485
1725631152935754500,5.75975439453125,0.011469388380646706,-0.6332700252532959,0.09008567780256271
1725631152945707500,5.76970751953125,0.037993673235177994,-0.5848596692085266,0.12683969736099243
1725631152955660500,5.77966064453125,0.05026302859187126,-0.5418140292167664,0.12828046083450317
1725631152965613600,5.789613525390625,0.06473012268543243,-0.5397881865501404,0.09819499403238297
1725631152975566600,5.799566650390625,0.06297153979539871,-0.555607795715332,0.04536035656929016
1725631152985519600,5.80951953125,0.05801087245345116,-0.5676804184913635,-0.008483701385557652
1725631152995472600,5.81947265625,0.08769363164901733,-0.5914729833602905,-0.016039952635765076
1725631153005425700,5.82942578125,-0.007320498116314411,-0.6992436647415161,-0.03573935851454735
1725631153015378700,5.839378662109375,-0.03975484147667885,-0.5821264386177063,0.00390549935400486
1725631153025331500,5.84933154296875,-0.028103509917855263,-0.5607015490531921,0.013876640237867832
1725631153035284500,5.859284423828125,-0.0014014996122568846,-0.5714527368545532,0.03724553808569908
1725631153045238500,5.869238525390625,0.00998910702764988,-0.5565939545631409,0.055621881037950516
1725631153055191600,5.879191650390625,0.0005577593110501766,-0.5502471327781677,0.09382078051567078
1725631153065144600,5.88914453125,0.013223221525549889,-0.5345680713653564,0.12555180490016937
1725631153075097600,5.89909765625,0.0115937739610672,-0.41788575053215027,0.15982776880264282
1725631153085050600,5.909050537109375,0.008784139528870583,-0.406210720539093,0.198310986161232
1725631153095003600,5.919003662109375,-0.04878265783190727,-0.35874027013778687,0.21265025436878204
1725631153104956700,5.928956787109375,-0.13942839205265045,-0.35503849387168884,0.2157914638519287
1725631153114909700,5.93890966796875,-0.19992674887180328,-0.38250863552093506,0.23155465722084045
1725631153124862700,5.94886279296875,-0.26989784836769104,-0.2617553174495697,0.24607820808887482
1725631153134815700,5.958815673828125,-0.3159749507904053,-0.10300740599632263,0.3346746265888214
1725631153144768800,5.968768798828125,-0.3280097544193268,-0.036895763128995895,0.44396117329597473
1725631153154721500,5.978721435546875,-0.37839680910110474,0.1313820332288742,0.5038396120071411
1725631153164674600,5.988674560546875,-0.4072723984718323,0.20394624769687653,0.5277382731437683
1725631153174627600,5.998627685546875,-0.4337492287158966,0.26976609230041504,0.559902548789978
1725631153184580600,6.00858056640625,-0.4174230098724365,0.1953142285346985,0.5237336158752441
1725631153194533600,6.01853369140625,-0.48058295249938965,0.19627536833286285,0.37975507974624634
1725631153204486700,6.028486572265625,-0.5064595341682434,0.18929682672023773,0.2972668707370758
1725631153214439700,6.038439697265625,-0.569795548915863,0.13330169022083282,0.19913050532341003
1725631153224392700,6.048392822265625,-0.6242470741271973,0.25651630759239197,0.2067364901304245
1725631153234346800,6.0583466796875,-0.6801891326904297,0.430976927280426,0.30251777172088623
1725631153244299800,6.0682998046875,-0.7182859182357788,0.49367013573646545,0.35195377469062805
1725631153254252800,6.078252685546875,-0.731478214263916,0.4302951991558075,0.3109128177165985
1725631153264205600,6.08820556640625,-0.7533352971076965,0.40923118591308594,0.32265281677246094
1725631153274158600,6.09815869140625,-0.7754329442977905,0.3980565071105957,0.3132595717906952
1725631153284111600,6.108111572265625,-0.7862206101417542,0.3681236207485199,0.3209651708602905
1725631153294064400,6.118064453125,-0.79756098985672,0.4263550639152527,0.3812589645385742
1725631153304017400,6.128017333984375,-0.8126803040504456,0.5007361173629761,0.4145548641681671
1725631153313970400,6.137970458984375,-0.8089814186096191,0.5844647288322449,0.4176230728626251
1725631153323923500,6.14792333984375,-0.8087632656097412,0.6453483700752258,0.37609559297561646
1725631153333876500,6.15787646484375,-0.7783287167549133,0.703220784664154,0.3342869281768799
1725631153343829500,6.16782958984375,-0.783571183681488,0.751956582069397,0.3164528012275696
1725631153353782500,6.177782470703125,-0.7630694508552551,0.811100959777832,0.33352020382881165
1725631153363735600,6.187735595703125,-0.7465136647224426,0.8267712593078613,0.33648934960365295
1725631153373688300,6.197688232421875,-0.7536336779594421,0.8176366090774536,0.3298839330673218
1725631153383641300,6.207641357421875,-0.7430156469345093,0.7679955363273621,0.3163833022117615
1725631153393594400,6.217594482421875,-0.7260212898254395,0.7241050004959106,0.2805858552455902
1725631153403547400,6.22754736328125,-0.6949957013130188,0.6633484363555908,0.20350199937820435
1725631153413500400,6.23750048828125,-0.6020122766494751,0.6452955603599548,0.22207295894622803
1725631153423453400,6.247453369140625,-0.5152462124824524,0.645579993724823,0.21211780607700348
1725631153433407200,6.2574072265625,-0.4101709723472595,0.4800000488758087,0.1360001415014267
1725631153443360300,6.2673603515625,-0.3047233819961548,0.3768494129180908,0.12612541019916534
1725631153453313300,6.277313232421875,-0.24010920524597168,0.33200621604919434,0.15339332818984985
1725631153463266300,6.287266357421875,-0.2208729237318039,0.2715343236923218,0.16160517930984497
1725631153473219300,6.29721923828125,-0.21903158724308014,0.20840755105018616,0.1762344241142273
1725631153483172400,6.30717236328125,-0.2301958203315735,0.2157655954360962,0.19661986827850342
1725631153493125000,6.317125,-0.21670056879520416,0.19598810374736786,0.17033950984477997
1725631153503078100,6.327078125,-0.1719330996274948,0.11292305588722229,0.14220134913921356
1725631153513031200,6.33703125,-0.1257125586271286,0.07974492013454437,0.13484597206115723
1725631153522984200,6.346984130859375,-0.09718504548072815,0.04073067009449005,0.11078804731369019
1725631153532937200,6.356937255859375,-0.07139981538057327,-0.03611207753419876,0.06716007739305496
1725631153542890200,6.36689013671875,-0.02982601337134838,-0.07138484716415405,0.02172255329787731
1725631153552843300,6.37684326171875,-0.001322481781244278,-0.11363012343645096,-0.04571564123034477
1725631153562796300,6.38679638671875,0.031108692288398743,-0.17026250064373016,-0.11593201011419296
1725631153572749300,6.396749267578125,0.07760695368051529,-0.17857210338115692,-0.10588870197534561
1725631153582702300,6.406702392578125,0.1208987683057785,-0.22160585224628448,-0.14538869261741638
1725631153592655400,6.4166552734375,0.14803911745548248,-0.2513997554779053,-0.18609052896499634
1725631153602608000,6.426608154296875,0.17842738330364227,-0.24138998985290527,-0.20244073867797852
1725631153612561200,6.43656103515625,0.17949478328227997,-0.295659601688385,-0.23293553292751312
1725631153622514200,6.44651416015625,0.18774019181728363,-0.33599185943603516,-0.23873881995677948
1725631153632468200,6.45646826171875,0.21131478250026703,-0.37703588604927063,-0.24786171317100525
1725631153642421200,6.466421142578125,0.2255917191505432,-0.3898470103740692,-0.2422666847705841
1725631153652374300,6.476374267578125,0.2620887756347656,-0.4052886664867401,-0.21489650011062622
1725631153662327300,6.486327392578125,0.303643137216568,-0.3843306601047516,-0.20241427421569824
1725631153672280300,6.4962802734375,0.33485954999923706,-0.3671287000179291,-0.19767707586288452
1725631153682233300,6.5062333984375,0.37240877747535706,-0.28644612431526184,-0.18035614490509033
1725631153692186400,6.516186279296875,0.40022265911102295,-0.2821427881717682,-0.22857756912708282
1725631153702139400,6.526139404296875,0.43691834807395935,-0.2987577021121979,-0.2533414959907532
1725631153712092400,6.536092529296875,0.4898565411567688,-0.26507917046546936,-0.25988855957984924
1725631153722045400,6.54604541015625,0.530047595500946,-0.2282031774520874,-0.26665592193603516
1725631153731998200,6.555998291015625,0.5681388974189758,-0.19863201677799225,-0.2543880045413971
1725631153741951200,6.565951171875,0.5933254957199097,-0.18125435709953308,-0.2397928088903427
1725631153751904300,6.575904296875,0.603478729724884,-0.21474352478981018,-0.2408408522605896
1725631153761857300,6.585857177734375,0.6105228066444397,-0.2310979962348938,-0.22006607055664062
1725631153771810300,6.595810302734375,0.6252321600914001,-0.25109440088272095,-0.18625213205814362
1725631153781763300,6.605763427734375,0.6370038390159607,-0.26464563608169556,-0.14604853093624115
1725631153791716400,6.61571630859375,0.6590448617935181,-0.26880258321762085,-0.10934772342443466
1725631153801669400,6.62566943359375,0.6535890698432922,-0.2793353796005249,-0.11292674392461777
1725631153811622400,6.635622314453125,0.6433331370353699,-0.28232258558273315,-0.10629501193761826
1725631153821575400,6.645575439453125,0.6557543873786926,-0.28338998556137085,-0.09987866133451462
1725631153831529500,6.655529541015625,0.6645951271057129,-0.2521931827068329,-0.06871705502271652
1725631153841482500,6.665482421875,0.6732456088066101,-0.2500045895576477,-0.05402280017733574
1725631153851435500,6.675435546875,0.6707656979560852,-0.26278382539749146,-0.07583130896091461
1725631153861388300,6.68538818359375,0.6748877167701721,-0.2353396862745285,-0.10645073652267456
1725631153871341300,6.69534130859375,0.6623052358627319,-0.1996568888425827,-0.1625257134437561
1725631153881294300,6.70529443359375,0.6130412817001343,-0.21067145466804504,-0.23739169538021088
1725631153891247400,6.715247314453125,0.6014998555183411,-0.15376126766204834,-0.2806873321533203
1725631153901200400,6.725200439453125,0.5982319116592407,-0.13775594532489777,-0.3179343044757843
1725631153911153400,6.7351533203125,0.6280320286750793,-0.06385162472724915,-0.2946801781654358
1725631153921106400,6.7451064453125,0.6619159579277039,-0.01122196577489376,-0.27321988344192505
1725631153931059500,6.7550595703125,0.701714277267456,0.01754867658019066,-0.2597825527191162
1725631153941012500,6.765012451171875,0.7070818543434143,0.00715196318924427,-0.28713828325271606
1725631153950965500,6.774965576171875,0.6943204402923584,-0.003505515167489648,-0.3063802421092987
1725631153960918500,6.78491845703125,0.6699886918067932,0.03130599483847618,-0.3220776915550232
1725631153970871300,6.794871337890625,0.6304100751876831,0.09163561463356018,-0.30680498480796814
1725631153980824300,6.80482421875,0.5757127404212952,0.15819279849529266,-0.29357650876045227
1725631153990777300,6.81477734375,0.5068305134773254,0.2153773456811905,-0.29938241839408875
1725631154000730400,6.82473046875,0.437081515789032,0.24249151349067688,-0.303505539894104
1725631154010683400,6.834683349609375,0.3857744336128235,0.28346696496009827,-0.2961943447589874
1725631154020637200,6.84463720703125,0.34585657715797424,0.256815642118454,-0.3370285928249359
1725631154030590200,6.854590087890625,0.3183678686618805,0.2494516223669052,-0.3136817216873169
1725631154040543200,6.864543212890625,0.2801307439804077,0.22088389098644257,-0.3028724789619446
1725631154050496300,6.874496337890625,0.2405751645565033,0.19708767533302307,-0.24723407626152039
1725631154060449300,6.88444921875,0.1871228665113449,0.21437638998031616,-0.18166758120059967
1725631154070402300,6.89440234375,0.13088452816009521,0.2173328995704651,-0.14250421524047852
1725631154080355300,6.904355224609375,0.10516158491373062,0.20674923062324524,-0.10481701791286469
1725631154090308400,6.914308349609375,0.10955837368965149,0.20876453816890717,-0.09088834375143051
1725631154100261000,6.92426123046875,0.11894894391298294,0.29622408747673035,-0.05697990953922272
1725631154110214100,6.934214111328125,0.10905638337135315,0.2544002830982208,-0.019336625933647156
1725631154120167200,6.944167236328125,0.09206408262252808,0.14048035442829132,-0.06027473881840706
1725631154130120200,6.9541201171875,0.05895914509892464,0.27515658736228943,-0.1063179299235344
1725631154140073200,6.9640732421875,0.11675772070884705,0.11386329680681229,-0.11748376488685608
1725631154150026200,6.974026123046875,0.10315529257059097,0.03875866159796715,-0.09390038251876831
1725631154159979300,6.983979248046875,0.09936534613370895,0.16170428693294525,0.020348696038126945
1725631154169932300,6.993932373046875,0.05205032229423523,0.21600186824798584,0.07422308623790741
1725631154179885300,7.00388525390625,0.012266159057617188,0.2407628744840622,0.1492435336112976
1725631154189838300,7.01383837890625,-0.05694609135389328,0.26387929916381836,0.1460248827934265
1725631154199791400,7.023791259765625,-0.07250960171222687,0.23450596630573273,0.18811587989330292
1725631154209744100,7.033744140625,-0.09445349127054214,0.18900103867053986,0.21162329614162445
1725631154219698400,7.043698486328125,-0.08917723596096039,0.16803184151649475,0.20576007664203644
1725631154229651200,7.053651123046875,-0.09416516125202179,0.17444142699241638,0.1927364319562912
1725631154239604200,7.063604248046875,-0.13514508306980133,0.1463456153869629,0.16564461588859558
1725631154249557200,7.07355712890625,-0.13533183932304382,0.20160099864006042,0.2133021056652069
1725631154259510300,7.08351025390625,-0.15459661185741425,0.21247893571853638,0.23187792301177979
1725631154269463300,7.09346337890625,-0.16220608353614807,0.20076468586921692,0.26122888922691345
1725631154279416300,7.103416259765625,-0.16213923692703247,0.1835542768239975,0.23844099044799805
1725631154289369300,7.113369384765625,-0.18234139680862427,0.12918193638324738,0.21819180250167847
1725631154299322400,7.123322265625,-0.20102719962596893,0.14535051584243774,0.21547085046768188
1725631154309275400,7.133275390625,-0.22176054120063782,0.11318615078926086,0.12373523414134979
1725631154319228400,7.143228515625,-0.2439497411251068,-0.04577687382698059,0.019335325807332993
1725631154329181400,7.153181396484375,-0.23146553337574005,-0.12490345537662506,-0.08827897161245346
1725631154339134500,7.163134521484375,-0.17814505100250244,-0.16891804337501526,-0.1378590315580368
1725631154349087500,7.17308740234375,-0.17968565225601196,-0.11074671894311905,-0.17341963946819305
1725631154359040300,7.183040283203125,-0.2532344460487366,-0.08213771134614944,-0.21163412928581238
1725631154368993300,7.1929931640625,-0.25083687901496887,-0.04572507366538048,-0.1409604251384735
1725631154378946300,7.2029462890625,-0.2737981379032135,-0.07880578935146332,-0.11516078561544418
1725631154388899300,7.2128994140625,-0.2796817123889923,-0.03634870424866676,-0.02688617631793022
1725631154398852400,7.222852294921875,-0.27908462285995483,-0.017382200807332993,0.023385249078273773
1725631154408805400,7.232805419921875,-0.2610783278942108,-0.06838073581457138,0.032347362488508224
1725631154418758400,7.24275830078125,-0.2415032982826233,-0.12830425798892975,0.011535556986927986
1725631154428712400,7.25271240234375,-0.22885718941688538,-0.19314362108707428,-0.014110822230577469
1725631154438665500,7.26266552734375,-0.2362184375524521,-0.175174742937088,0.01850251480937004
1725631154448618500,7.272618408203125,-0.24844220280647278,-0.16691794991493225,0.05170510709285736
1725631154458571500,7.282571533203125,-0.2428218573331833,-0.19130584597587585,0.11620952934026718
1725631154468524500,7.292524658203125,-0.23735401034355164,-0.23990754783153534,0.16953043639659882
1725631154478477600,7.3024775390625,-0.22218944132328033,-0.2653583288192749,0.18497171998023987
1725631154488430300,7.312430419921875,-0.1821163445711136,-0.28826186060905457,0.18837174773216248
1725631154498383400,7.32238330078125,-0.127431258559227,-0.32068052887916565,0.16405655443668365
1725631154508336400,7.33233642578125,-0.10038720071315765,-0.4039227068424225,0.09123029559850693
1725631154518289400,7.342289306640625,-0.06725215166807175,-0.35946470499038696,0.0837974101305008
1725631154528242400,7.352242431640625,-0.06944864988327026,-0.33175793290138245,0.0612097904086113
1725631154538195500,7.362195556640625,-0.06797325611114502,-0.250386118888855,0.10753121227025986
1725631154548148500,7.3721484375,-0.07058890163898468,-0.2207247018814087,0.1749236136674881
1725631154558101500,7.3821015625,-0.07471094280481339,-0.23866374790668488,0.18406037986278534
1725631154568054500,7.392054443359375,-0.09082922339439392,-0.2930375039577484,0.15838168561458588
1725631154578007600,7.402007568359375,-0.11392548680305481,-0.30530214309692383,0.1325990855693817
1725631154587960300,7.411960205078125,-0.14153499901294708,-0.33620485663414,0.10989221185445786
1725631154597913300,7.421913330078125,-0.18552376329898834,-0.3737146854400635,0.06966622918844223
1725631154607866400,7.431866455078125,-0.23804326355457306,-0.36692577600479126,0.06944295018911362
1725631154617819400,7.4418193359375,-0.29808366298675537,-0.32049596309661865,0.09482047706842422
1725631154627773200,7.451773193359375,-0.3623845875263214,-0.29500314593315125,0.13506664335727692
1725631154637726200,7.461726318359375,-0.41621825098991394,-0.2548312246799469,0.18579959869384766
1725631154647679200,7.47167919921875,-0.44683876633644104,-0.2766220271587372,0.21934880316257477
1725631154657632300,7.48163232421875,-0.4529501795768738,-0.28036215901374817,0.26048851013183594
1725631154667585300,7.491585205078125,-0.4450600743293762,-0.23791320621967316,0.3092174828052521
1725631154677538300,7.501538330078125,-0.4381299912929535,-0.15924528241157532,0.3031121790409088
1725631154687491300,7.5114912109375,-0.42337197065353394,-0.3153912127017975,0.2169691026210785
1725631154697444400,7.5214443359375,-0.420529842376709,-0.25120556354522705,0.12205776572227478
1725631154707397400,7.5313974609375,-0.3982661962509155,-0.21169845759868622,0.13898298144340515
1725631154717350100,7.54135009765625,-0.3655764162540436,-0.10043957084417343,0.14993976056575775
1725631154727303200,7.55130322265625,-0.3433738946914673,-0.18091723322868347,0.15198098123073578
1725631154737256200,7.561256103515625,-0.3348328769207001,-0.012802260927855968,0.19015899300575256
1725631154747209200,7.571209228515625,-0.323284775018692,-0.017505019903182983,0.24448882043361664
1725631154757162200,7.581162353515625,-0.34662872552871704,0.22947494685649872,0.2568536102771759
1725631154767115300,7.591115234375,-0.35810649394989014,0.17998594045639038,0.2868610918521881
1725631154777068300,7.601068359375,-0.38999706506729126,0.19880570471286774,0.2570461928844452
1725631154787021300,7.611021240234375,-0.3733706474304199,0.010613664984703064,0.2536652982234955
1725631154796974300,7.620974365234375,-0.39421093463897705,0.1412225365638733,0.20329132676124573
1725631154806927400,7.63092724609375,-0.3946823477745056,0.18894071877002716,0.20843707025051117
1725631154816880400,7.64088037109375,-0.453452467918396,0.2322530299425125,0.17789326608181
1725631154826834400,7.65083447265625,-0.46105295419692993,0.238771453499794,0.15413570404052734
1725631154836787500,7.660787353515625,-0.48153266310691833,0.3082493245601654,0.13883903622627258
1725631154846740200,7.670740234375,-0.49179139733314514,0.40398624539375305,0.18538719415664673
1725631154856693200,7.680693359375,-0.5018389225006104,0.45244938135147095,0.14451086521148682
1725631154866646300,7.690646240234375,-0.5315647721290588,0.3762592077255249,0.1143970713019371
1725631154876599300,7.700599365234375,-0.5474686026573181,0.3849030137062073,0.09388380497694016
1725631154886552300,7.71055224609375,-0.5717765092849731,0.49183663725852966,0.1330336630344391
1725631154896505300,7.72050537109375,-0.632522702217102,0.4785173833370209,0.09552890807390213
1725631154906458400,7.730458251953125,-0.6690810918807983,0.37762776017189026,0.06813248246908188
1725631154916411400,7.740411376953125,-0.676365077495575,0.35838109254837036,0.07151789218187332
1725631154926364400,7.750364501953125,-0.6710081696510315,0.4329865574836731,0.14137710630893707
1725631154936317400,7.7603173828125,-0.663276731967926,0.4386252760887146,0.1631881296634674
1725631154946270500,7.7702705078125,-0.6515069603919983,0.4248519539833069,0.1914213001728058
1725631154956223200,7.78022314453125,-0.6313816905021667,0.3893299102783203,0.20507240295410156
1725631154966176300,7.79017626953125,-0.5941429734230042,0.34312736988067627,0.20108969509601593
1725631154976129300,7.80012939453125,-0.5280777215957642,0.2777678072452545,0.20836465060710907
1725631154986082300,7.810082275390625,-0.47813671827316284,0.3077682852745056,0.25597137212753296
1725631154996035300,7.820035400390625,-0.41703367233276367,0.3261067867279053,0.30622363090515137
1725631155005988400,7.82998828125,-0.3766005039215088,0.3255123496055603,0.34309709072113037
1725631155015941400,7.83994140625,-0.32749953866004944,0.33343711495399475,0.3734475374221802
1725631155025894400,7.849894287109375,-0.26187846064567566,0.29459261894226074,0.34768790006637573
1725631155035848400,7.859848388671875,-0.17703519761562347,0.23226161301136017,0.30138325691223145
1725631155045801500,7.869801513671875,-0.10630729794502258,0.21957018971443176,0.29048076272010803
1725631155055754500,7.87975439453125,-0.04248544201254845,0.1980784684419632,0.2529946565628052
1725631155065707500,7.88970751953125,-0.02959585189819336,0.12655428051948547,0.20440229773521423
1725631155075660500,7.89966064453125,-0.001947181299328804,0.08095937222242355,0.1549130380153656
1725631155085613300,7.90961328125,-0.017199713736772537,0.04936724156141281,0.12153629213571548
1725631155095566300,7.91956640625,-0.03133950009942055,-0.014218921773135662,0.09390866011381149
1725631155105519400,7.929519287109375,-0.04840574041008949,-0.04723614081740379,0.08935599029064178
1725631155115472400,7.939472412109375,-0.04959537461400032,-0.08688768744468689,0.061213571578264236
1725631155125425400,7.94942529296875,-0.059586238116025925,-0.15962135791778564,0.038680534809827805
1725631155135378400,7.95937841796875,-0.051335498690605164,-0.18350937962532043,0.03637769818305969
1725631155145331500,7.96933154296875,-0.0397983118891716,-0.2338234782218933,0.0219026617705822
1725631155155284500,7.979284423828125,-0.003663741983473301,-0.26821261644363403,0.025530153885483742
1725631155165237500,7.989237548828125,0.05695154145359993,-0.3080234229564667,0.03056505136191845
1725631155175190500,7.9991904296875,0.1164201945066452,-0.2555258572101593,0.07222913950681686
1725631155185143600,8.0091435546875,0.15781451761722565,-0.24047881364822388,0.0885125994682312
1725631155195096300,8.019096435546874,0.17742842435836792,-0.3071100413799286,0.06549862772226334
1725631155205049300,8.02904931640625,0.21909649670124054,-0.320606529712677,0.06393437087535858
1725631155215002400,8.03900244140625,0.27396321296691895,-0.2984897792339325,0.0636637955904007
1725631155224955400,8.048955322265625,0.3246711194515228,-0.3133178651332855,0.05521615967154503
1725631155234908400,8.058908447265624,0.38901230692863464,-0.28041931986808777,0.08538950979709625
1725631155244862200,8.0688623046875,0.44951334595680237,-0.2843421697616577,0.07074471563100815
1725631155254815200,8.078815185546874,0.510692834854126,-0.32363924384117126,0.048757921904325485
1725631155264768300,8.088768310546875,0.5696739554405212,-0.4180804491043091,-0.0004434894071891904
1725631155274721300,8.09872119140625,0.6330585479736328,-0.42823028564453125,-0.017657095566391945
1725631155284674300,8.10867431640625,0.6729356646537781,-0.40910059213638306,-0.043848637491464615
1725631155294627600,8.118627685546874,0.6762515306472778,-0.4054265022277832,-0.08144288510084152
1725631155304580400,8.128580322265625,0.649341881275177,-0.40476399660110474,-0.10009466111660004
1725631155314533400,8.138533447265624,0.6178308725357056,-0.41384458541870117,-0.12343726307153702
1725631155324486400,8.148486328125,0.5860201716423035,-0.4470536708831787,-0.17656412720680237
1725631155334439400,8.158439453125,0.5896937847137451,-0.4544532597064972,-0.21287420392036438
1725631155344392400,8.168392333984375,0.6017350554466248,-0.4693858325481415,-0.25346052646636963
1725631155354345500,8.178345458984374,0.6194046139717102,-0.470989853143692,-0.28620967268943787
1725631155364298500,8.188298583984375,0.6423364281654358,-0.4416522979736328,-0.31220507621765137
1725631155374251500,8.19825146484375,0.6293082237243652,-0.42173638939857483,-0.35324862599372864
1725631155384204500,8.20820458984375,0.6032275557518005,-0.3522367775440216,-0.3768089711666107
1725631155394157600,8.218157470703124,0.5673854351043701,-0.27500617504119873,-0.38675934076309204
1725631155404110600,8.228110595703125,0.5348264575004578,-0.18169619143009186,-0.3767886459827423
1725631155414063400,8.2380634765625,0.5303099751472473,-0.1771019846200943,-0.4048170745372772
1725631155424016400,8.248016357421875,0.5589511394500732,-0.14325477182865143,-0.40480953454971313
1725631155433970400,8.257970458984374,0.5872227549552917,-0.13103193044662476,-0.4314720332622528
1725631155443923500,8.26792333984375,0.6178025603294373,-0.0967097207903862,-0.4418756365776062
1725631155453876500,8.27787646484375,0.656073808670044,-0.015500618144869804,-0.4218822419643402
1725631155463829500,8.28782958984375,0.6520214080810547,0.026348363608121872,-0.43867936730384827
1725631155473782500,8.297782470703124,0.6370674967765808,0.10926641523838043,-0.46791979670524597
1725631155483735600,8.307735595703125,0.635726809501648,0.19028964638710022,-0.47386807203292847
1725631155493688600,8.3176884765625,0.6333773732185364,0.16156238317489624,-0.5175830721855164
1725631155503641600,8.3276416015625,0.6538816094398499,0.1278757005929947,-0.5511513352394104
1725631155513594600,8.3375947265625,0.690396249294281,0.17460831999778748,-0.5337409377098083
1725631155523547600,8.347547607421875,0.701313853263855,0.31425678730010986,-0.5177978873252869
1725631155533500700,8.357500732421874,0.6832517385482788,0.457477331161499,-0.5074360966682434
1725631155543453400,8.367453369140625,0.6278064250946045,0.45979711413383484,-0.5629671812057495
1725631155553406500,8.377406494140626,0.5809968709945679,0.46821191906929016,-0.5643941164016724
1725631155563359500,8.387359375,0.5490098595619202,0.4638277590274811,-0.5772596001625061
1725631155573312500,8.3973125,0.5227481126785278,0.44689643383026123,-0.5753862857818604
1725631155583265500,8.407265625,0.49631035327911377,0.38248297572135925,-0.5857164859771729
1725631155593218600,8.417218505859376,0.46457770466804504,0.3389187157154083,-0.5873208045959473
1725631155603171600,8.427171630859375,0.4443417489528656,0.4043254554271698,-0.5154188871383667
1725631155613124600,8.43712451171875,0.4134218990802765,0.44054871797561646,-0.47971150279045105
1725631155623077600,8.44707763671875,0.37738052010536194,0.4755710959434509,-0.42202797532081604
1725631155633030700,8.45703076171875,0.3335736393928528,0.42097148299217224,-0.3871901035308838
1725631155642984700,8.466984619140625,0.27726632356643677,0.2768721580505371,-0.38088059425354004
1725631155652937700,8.476937744140624,0.24312032759189606,0.23427438735961914,-0.37096989154815674
1725631155662890800,8.486890869140625,0.2223181426525116,0.22420567274093628,-0.34112271666526794
1725631155672843500,8.496843505859376,0.19937580823898315,0.18917471170425415,-0.2976527214050293
1725631155682796500,8.506796630859375,0.16933995485305786,0.0907733365893364,-0.22844305634498596
1725631155692749600,8.51674951171875,0.18114174902439117,0.11785821616649628,-0.11001788824796677
1725631155702702600,8.52670263671875,0.15511226654052734,0.20852705836296082,-0.004912535194307566
1725631155712655600,8.536655517578126,0.1839902549982071,0.16282561421394348,0.06682849675416946
1725631155722608600,8.546608642578125,0.1332545131444931,0.12903860211372375,0.07783766835927963
1725631155732561700,8.556561767578126,0.10688602924346924,0.13073290884494781,0.07779133319854736
1725631155742514700,8.5665146484375,0.10463744401931763,-0.01819835789501667,0.12788602709770203
1725631155752467700,8.5764677734375,0.12555177509784698,-0.022320399060845375,0.14636756479740143
1725631155762420700,8.586420654296875,0.1352963000535965,0.013835291378200054,0.0966639593243599
1725631155772373800,8.596373779296876,0.16182458400726318,-0.09525097906589508,0.04512699693441391
1725631155782326500,8.606326416015625,0.1282285451889038,-0.10161345452070236,0.0035180675331503153
1725631155792279600,8.616279541015626,0.09416113793849945,-0.029327543452382088,-0.0010780156590044498
1725631155802232600,8.626232666015625,0.06902612745761871,-0.03278676047921181,-0.018366824835538864
1725631155812185600,8.636185546875,0.014513347297906876,-0.09561339765787125,-0.03188156709074974
1725631155822138600,8.646138671875,-0.03618991747498512,0.011697364039719105,-0.03244129195809364
1725631155832091600,8.656091552734376,-0.026762325316667557,-0.12606583535671234,0.024425188079476357
1725631155842045400,8.66604541015625,-0.08944153040647507,-0.11579254269599915,0.07348740845918655
1725631155851998500,8.67599853515625,-0.1439439207315445,0.04765550419688225,0.1096547394990921
1725631155861951500,8.685951416015625,-0.11494378745555878,0.03673722594976425,0.13714493811130524
1725631155871904500,8.695904541015626,-0.10481739044189453,-0.06629647314548492,0.1306295096874237
1725631155881857500,8.705857421875,-0.07182495296001434,-0.12243110686540604,0.06989939510822296
1725631155891810600,8.715810546875,-0.04961365833878517,-0.1573544591665268,0.04261744022369385
1725631155901763600,8.725763671875,-0.04503444582223892,-0.18431642651557922,0.027248326689004898
1725631155911716400,8.73571630859375,-0.0618847981095314,-0.17064055800437927,0.059057656675577164
1725631155921669400,8.74566943359375,-0.07355078309774399,-0.16937023401260376,0.08083085715770721
1725631155931622400,8.755622314453126,-0.07238591462373734,-0.15399447083473206,0.109716035425663
1725631155941575400,8.765575439453125,-0.06017633527517319,-0.19747397303581238,0.10456522554159164
1725631155951528400,8.775528564453126,-0.029838405549526215,-0.2632306218147278,0.05781342834234238
1725631155961481500,8.7854814453125,-0.0026657169219106436,-0.25592881441116333,0.03580855205655098
1725631155971434500,8.7954345703125,-0.020143777132034302,-0.22046242654323578,0.011119449511170387
1725631155981387500,8.805387451171875,-0.049100201576948166,-0.1334829479455948,0.024664802476763725
1725631155991340500,8.815340576171875,-0.10126060992479324,-0.04577707499265671,0.07267121225595474
1725631156001293600,8.82529345703125,-0.13279981911182404,-0.031075216829776764,0.09026249498128891
1725631156011246600,8.83524658203125,-0.13590160012245178,-0.027238665148615837,0.12397518754005432
1725631156021199400,8.845199462890625,-0.1321328729391098,-0.043879155069589615,0.13891679048538208
1725631156031152400,8.85515234375,-0.13009794056415558,-0.08668679744005203,0.11434540897607803
1725631156041106400,8.8651064453125,-0.10865634679794312,-0.10477451980113983,0.10760281980037689
1725631156051059500,8.8750595703125,-0.09784817695617676,-0.14166036248207092,0.0863739624619484
1725631156061012500,8.885012451171875,-0.08879513293504715,-0.16655559837818146,0.07865110784769058
1725631156070965500,8.894965576171876,-0.10546731948852539,-0.198640838265419,0.04027974605560303
1725631156080918500,8.90491845703125,-0.11068108677864075,-0.21109069883823395,0.029352786019444466
1725631156090871600,8.91487158203125,-0.11164461821317673,-0.20246152579784393,0.06756222993135452
1725631156100824600,8.924824462890625,-0.11279654502868652,-0.24294212460517883,0.041927482932806015
1725631156110777600,8.934777587890625,-0.10266774147748947,-0.2849542796611786,0.036505285650491714
1725631156120730600,8.944730712890625,-0.10418419539928436,-0.27118897438049316,0.049009885638952255
1725631156130683600,8.95468359375,-0.09213738143444061,-0.3000302314758301,0.06132647395133972
1725631156140636700,8.96463671875,-0.062004655599594116,-0.3489593267440796,0.05194094404578209
1725631156150589400,8.97458935546875,-0.040098559111356735,-0.44257795810699463,0.023704780265688896
1725631156160542500,8.98454248046875,-0.06189601495862007,-0.5120028853416443,-0.018073590472340584
1725631156170495500,8.99449560546875,-0.11885596811771393,-0.5038813352584839,-0.03158966451883316
1725631156180448500,9.004448486328124,-0.1936841458082199,-0.38628867268562317,0.00719048734754324
1725631156190401500,9.014401611328125,-0.26958343386650085,-0.3229573667049408,0.046005796641111374
1725631156200354600,9.0243544921875,-0.3368115723133087,-0.33032092452049255,0.06909029930830002
1725631156210307600,9.0343076171875,-0.3950354754924774,-0.3189431130886078,0.1162564754486084
1725631156220260600,9.044260498046874,-0.4277375638484955,-0.24019336700439453,0.17373210191726685
1725631156230213600,9.054213623046875,-0.4384847581386566,-0.17523354291915894,0.22745870053768158
1725631156240167700,9.064167724609375,-0.4604911804199219,-0.21075281500816345,0.23180393874645233
1725631156250120700,9.07412060546875,-0.4695592224597931,-0.2571421265602112,0.21488407254219055
1725631156260073700,9.08407373046875,-0.4550195634365082,-0.2650642693042755,0.2223925143480301
1725631156270026800,9.09402685546875,-0.4689420461654663,-0.2657124996185303,0.2103278636932373
1725631156279979500,9.1039794921875,-0.47397878766059875,-0.19444401562213898,0.24849432706832886
1725631156289932800,9.113932861328125,-0.46853768825531006,-0.08804753422737122,0.28804412484169006
1725631156299885800,9.1238857421875,-0.45749133825302124,-0.00032265493064187467,0.3067745268344879
1725631156309838800,9.1338388671875,-0.4524688720703125,-0.03165074810385704,0.2869992256164551
1725631156319791900,9.1437919921875,-0.3633752763271332,-0.032489705830812454,0.3439495861530304
1725631156329744600,9.15374462890625,-0.24621455371379852,-0.0033270251005887985,0.36635687947273254
1725631156339697700,9.16369775390625,-0.1872703582048416,-0.19511353969573975,0.28155842423439026
1725631156349650700,9.173650634765625,-0.2372208684682846,-0.18243183195590973,0.14740939438343048
1725631156359603700,9.183603759765624,-0.35107162594795227,-0.1016901433467865,0.09604901820421219
1725631156369556700,9.193556640625,-0.46939587593078613,0.08688376098871231,0.1629476249217987
1725631156379509800,9.203509765625,-0.5470425486564636,0.28268104791641235,0.3053132891654968
1725631156389462800,9.213462890625,-0.5543146133422852,0.3353506624698639,0.39691537618637085
1725631156399415800,9.223415771484374,-0.5367351770401001,0.35018888115882874,0.4413491487503052
1725631156409368800,9.233368896484375,-0.534115731716156,0.3221513628959656,0.38517722487449646
1725631156419321900,9.24332177734375,-0.5254955291748047,0.2787044048309326,0.3450506031513214
1725631156429275000,9.25327490234375,-0.5653484463691711,0.2904401421546936,0.312467098236084
1725631156439227600,9.2632275390625,-0.6038109064102173,0.28176817297935486,0.28713154792785645
1725631156449181700,9.273181640625,-0.6321594715118408,0.2864103317260742,0.27730369567871094
1725631156459134500,9.283134521484374,-0.6358476281166077,0.33776822686195374,0.30236080288887024
1725631156469087500,9.29308740234375,-0.6132837533950806,0.37382638454437256,0.2812674939632416
1725631156479040500,9.30304052734375,-0.6075049638748169,0.34569981694221497,0.23654404282569885
1725631156488993500,9.31299365234375,-0.6031720042228699,0.39357200264930725,0.18301130831241608
1725631156498946600,9.322946533203124,-0.5892144441604614,0.4478416442871094,0.15753795206546783
1725631156508899600,9.332899658203125,-0.5796278715133667,0.4460224211215973,0.16209328174591064
1725631156518852600,9.3428525390625,-0.5730879306793213,0.42098119854927063,0.14379596710205078
1725631156528805600,9.3528056640625,-0.553536057472229,0.4137949049472809,0.1327715516090393
1725631156538758700,9.362758544921874,-0.5261971950531006,0.45787474513053894,0.13605153560638428
1725631156548711700,9.372711669921875,-0.5077555775642395,0.5522925853729248,0.1259445697069168
1725631156558664700,9.382664794921874,-0.5061140060424805,0.5907987952232361,0.11934637278318405
1725631156568617500,9.392617431640625,-0.483915239572525,0.629875898361206,0.060934197157621384
1725631156578570500,9.402570556640624,-0.424984872341156,0.705980122089386,0.06617765873670578
1725631156588523500,9.4125234375,-0.3664182424545288,0.8491045236587524,0.09348277747631073
1725631156598476500,9.4224765625,-0.30362457036972046,0.8491201996803284,0.07913148403167725
1725631156608429600,9.4324296875,-0.2254280149936676,0.774199366569519,0.04528111219406128
1725631156618382600,9.442382568359376,-0.1520826667547226,0.7939692139625549,0.06363461166620255
1725631156628335600,9.452335693359375,-0.10091269016265869,0.7879815697669983,0.04379832744598389
1725631156638288600,9.46228857421875,-0.06414997577667236,0.6972500681877136,0.005936686880886555
1725631156648242700,9.47224267578125,-0.062104400247335434,0.6225278377532959,0.05112919956445694
1725631156658195700,9.48219580078125,-0.05500160902738571,0.5608212947845459,0.09701672196388245
1725631156668148700,9.492148681640625,-0.03439486771821976,0.5117595195770264,0.17940959334373474
1725631156678101800,9.502101806640624,-0.028837822377681732,0.46515315771102905,0.2489517629146576
1725631156688054800,9.5120546875,-0.03964439779520035,0.3627831041812897,0.2681281268596649
1725631156698007600,9.522007568359374,-0.04103546217083931,0.22699220478534698,0.2493482083082199
1725631156707960600,9.531960693359375,-0.01798074319958687,0.17316465079784393,0.25308144092559814
1725631156717913600,9.54191357421875,-0.02204900234937668,0.10287702828645706,0.19320642948150635
1725631156727866600,9.55186669921875,-0.018728040158748627,0.025136956945061684,0.15077508985996246
1725631156737819600,9.561819580078126,-0.0011651667300611734,-0.012253733351826668,0.14934095740318298
1725631156747772700,9.571772705078125,0.015126721933484077,-0.021216867491602898,0.14999902248382568
1725631156757725700,9.5817255859375,0.018205758184194565,-0.06094876676797867,0.11020708829164505
1725631156767678700,9.5916787109375,0.00854833610355854,-0.23750729858875275,0.05123671889305115
1725631156777631700,9.6016318359375,0.05632029101252556,-0.2983439266681671,0.043707773089408875
1725631156787584800,9.611584716796875,0.10942372679710388,-0.26360833644866943,0.06165960803627968
1725631156797537800,9.621537841796876,0.16445167362689972,-0.2913113832473755,0.012594104744493961
1725631156807490600,9.631490478515625,0.22921203076839447,-0.4404185712337494,-0.04249977320432663
1725631156817443600,9.641443603515626,0.3030196726322174,-0.5144128203392029,-0.06543261557817459
1725631156827396600,9.651396728515625,0.34742841124534607,-0.5316245555877686,-0.10283990204334259
1725631156837349600,9.661349609375,0.3699781000614166,-0.5105808973312378,-0.1357661634683609
1725631156847302700,9.671302734375,0.4032430946826935,-0.5655695796012878,-0.1992226392030716
1725631156857256700,9.681256591796876,0.43904003500938416,-0.5289096832275391,-0.20722220838069916
1725631156867209700,9.691209716796875,0.46816277503967285,-0.5270739793777466,-0.21638667583465576
1725631156877162800,9.701162841796876,0.47945573925971985,-0.5251666307449341,-0.2860877513885498
1725631156887115800,9.71111572265625,0.48386991024017334,-0.5772596597671509,-0.3267536759376526
1725631156897068800,9.72106884765625,0.49755921959877014,-0.5192619562149048,-0.27473413944244385
1725631156907021800,9.731021728515625,0.509857714176178,-0.4507409632205963,-0.23416753113269806
1725631156916974800,9.740974853515626,0.518426775932312,-0.41341060400009155,-0.1991683393716812
1725631156926928000,9.750927978515625,0.5424301028251648,-0.38404205441474915,-0.17617647349834442
1725631156936880600,9.760880615234376,0.5688256025314331,-0.3247257173061371,-0.15765446424484253
1725631156946833700,9.770833740234375,0.6035894751548767,-0.3334353268146515,-0.2151063084602356
1725631156956786700,9.78078662109375,0.6718007922172546,-0.37904858589172363,-0.2719770669937134
1725631156966739700,9.79073974609375,0.7424696683883667,-0.37026548385620117,-0.3010113835334778
1725631156976692700,9.800692626953126,0.8185883164405823,-0.31697967648506165,-0.32157912850379944
1725631156986645800,9.810645751953125,0.9158336520195007,-0.318371444940567,-0.35642099380493164
1725631156996598800,9.820598876953126,0.9687861800193787,-0.40653711557388306,-0.41254663467407227
1725631157006551800,9.8305517578125,0.9807035326957703,-0.39313820004463196,-0.4251527190208435
1725631157016504800,9.8405048828125,0.9190517663955688,-0.2683528661727905,-0.43342843651771545
1725631157026457900,9.850457763671875,0.7923704981803894,-0.15350431203842163,-0.4390788674354553
1725631157036411000,9.860410888671876,0.6732594966888428,-0.03934687748551369,-0.4343642294406891
1725631157046363600,9.87036376953125,0.5894061326980591,0.07925567030906677,-0.43352481722831726
1725631157056317700,9.880317626953126,0.566170334815979,0.08359648287296295,-0.451078861951828
1725631157066270500,9.8902705078125,0.5740280151367188,0.039775505661964417,-0.4395526945590973
1725631157076223500,9.900223388671876,0.6005253791809082,0.03462175652384758,-0.42701825499534607
1725631157086176500,9.910176513671875,0.5970678329467773,0.17407125234603882,-0.430681437253952
1725631157096129500,9.920129638671876,0.5626758337020874,0.2537134885787964,-0.49000251293182373
1725631157106082600,9.93008251953125,0.5284917950630188,0.2035834938287735,-0.5578287243843079
1725631157116035600,9.94003564453125,0.5313939452171326,0.14233601093292236,-0.5555404424667358
1725631157125988600,9.949988525390625,0.5401411056518555,0.1429559886455536,-0.5869148373603821
1725631157135941600,9.959941650390626,0.5267655253410339,0.09947214275598526,-0.6364545226097107
1725631157145894700,9.969894775390625,0.519057035446167,0.08373552560806274,-0.6179852485656738
1725631157155847700,9.97984765625,0.4890160858631134,0.16133122146129608,-0.5925334095954895
1725631157165800700,9.98980078125,0.4359712600708008,0.2795276343822479,-0.5639150738716125
1725631157175753500,9.99975341796875,0.3732437491416931,0.3189629018306732,-0.5168497562408447
1725631157185706500,10.00970654296875,0.3060961365699768,0.2802272140979767,-0.42955905199050903
1725631157195659500,10.019659423828125,0.2482963502407074,0.24324911832809448,-0.347224622964859
1725631157205612500,10.029612548828124,0.1609143167734146,0.09446416795253754,-0.3539097011089325
1725631157215565600,10.039565673828125,0.15089590847492218,0.036218803375959396,-0.36671698093414307
1725631157225518600,10.0495185546875,0.12240222096443176,-0.04623718932271004,-0.3928050398826599
1725631157235471600,10.0594716796875,0.11040013283491135,0.0287549439817667,-0.3693767189979553
1725631157245424600,10.069424560546874,0.07436943054199219,0.09242047369480133,-0.3495161831378937
1725631157255378700,10.079378662109375,0.022997021675109863,0.24112369120121002,-0.2725028991699219
1725631157265331700,10.089331787109375,0.06142616644501686,0.20137068629264832,-0.19727817177772522
1725631157275284700,10.09928466796875,0.009093204513192177,0.2896152138710022,-0.23388178646564484
1725631157285237800,10.10923779296875,0.025617852807044983,0.1785763055086136,-0.2864272892475128
1725631157295191000,10.11919091796875,0.05577055364847183,0.19769445061683655,-0.3118162751197815
1725631157305143800,10.129143798828125,0.0890057384967804,0.061895061284303665,-0.2601972818374634
1725631157315096800,10.139096923828125,0.13343322277069092,-0.0931670293211937,-0.058599803596735
1725631157325049900,10.1490498046875,0.18590228259563446,-0.13423830270767212,0.1315685361623764
1725631157335003000,10.1590029296875,0.23347285389900208,-0.1602802723646164,0.21315668523311615
1725631157344956000,10.168955810546874,0.2617662847042084,-0.18626286089420319,0.24039709568023682
1725631157354909000,10.178908935546875,0.23098339140415192,-0.22707967460155487,0.22792261838912964
1725631157364862000,10.188862060546874,0.1931161731481552,-0.2505386471748352,0.17072351276874542
1725631157374815000,10.19881494140625,0.17856629192829132,-0.29691585898399353,0.11827580630779266
1725631157384768000,10.20876806640625,0.18543298542499542,-0.3268364667892456,0.04724078252911568
1725631157394721000,10.218720947265625,0.16092829406261444,-0.37074458599090576,-0.012804137542843819
1725631157404674000,10.228674072265624,0.13645704090595245,-0.39454180002212524,-0.05473853647708893
1725631157414626800,10.238626708984375,0.12372013926506042,-0.3928086757659912,-0.059860724955797195
1725631157424579800,10.248579833984374,0.12281812727451324,-0.2221221625804901,0.016492905095219612
1725631157434532900,10.258532958984375,0.06897900253534317,-0.17623953521251678,0.06466320157051086
1725631157444486000,10.26848583984375,0.02787763997912407,-0.0691695287823677,0.1601809412240982
1725631157454440000,10.27843994140625,-0.0057184514589607716,0.015015405602753162,0.24315135180950165
1725631157464393000,10.28839306640625,-0.04734525829553604,-0.026201538741588593,0.18052180111408234
1725631157474346000,10.298345947265625,-0.0833142027258873,-0.07020945101976395,0.08216089755296707
1725631157484299000,10.308299072265624,-0.12968569993972778,-0.09417230635881424,0.03383651003241539
1725631157494252000,10.318251953125,-0.197981059551239,-0.10056360065937042,0.009788678027689457
1725631157504205000,10.328205078125,-0.26016879081726074,-0.0046860696747899055,0.060294460505247116
1725631157514158000,10.338157958984375,-0.3092961013317108,0.049581754952669144,0.09629347920417786
1725631157524111000,10.348111083984374,-0.3543650209903717,0.10713239759206772,0.14290626347064972
1725631157534064000,10.358064208984375,-0.39550209045410156,0.07245172560214996,0.1483834981918335
1725631157544017000,10.368016845703124,-0.3706209659576416,0.015212402679026127,0.1365201771259308
1725631157553970000,10.377969970703125,-0.36704790592193604,0.006850976962596178,0.16412128508090973
1725631157563923000,10.3879228515625,-0.34536340832710266,-0.07647427171468735,0.16496017575263977
1725631157573876000,10.3978759765625,-0.31430748105049133,-0.2034609168767929,0.11616671085357666
1725631157583829000,10.4078291015625,-0.296889066696167,-0.2951743006706238,0.06959787756204605
1725631157593782000,10.417781982421875,-0.2930932641029358,-0.32968923449516296,0.031152309849858284
1725631157603735000,10.427735107421874,-0.2901003956794739,-0.2971595227718353,0.03769037127494812
1725631157613688000,10.43768798828125,-0.24639467895030975,-0.2188309282064438,0.07837409526109695
1725631157623641000,10.44764111328125,-0.21846185624599457,-0.1542908251285553,0.14666368067264557
1725631157633594000,10.457593994140625,-0.20192387700080872,-0.12081336975097656,0.1765929013490677
1725631157643547100,10.467547119140624,-0.18113897740840912,-0.10710368305444717,0.19687074422836304
1725631157653501000,10.4775009765625,-0.15552540123462677,-0.09368976205587387,0.2480640411376953
1725631157663454000,10.487453857421874,-0.13811525702476501,-0.09902540594339371,0.27269721031188965
1725631157673406700,10.49740673828125,-0.1370714008808136,-0.09662974625825882,0.27918919920921326
1725631157683359700,10.50735986328125,-0.150526762008667,-0.06141875684261322,0.24704642593860626
1725631157693312800,10.517312744140625,-0.17802126705646515,-0.0023979151155799627,0.21085390448570251
1725631157703265800,10.527265869140624,-0.20724786818027496,0.06641417741775513,0.17667755484580994
1725631157713218800,10.53721875,-0.2504863440990448,0.14626173675060272,0.13678105175495148
1725631157723171800,10.547171875,-0.31176117062568665,0.21004551649093628,0.07828070968389511
1725631157733124900,10.557124755859375,-0.3922525942325592,0.2058621346950531,0.049625214189291
1725631157743078000,10.567077880859374,-0.46202847361564636,0.27291786670684814,0.07030119746923447
1725631157753031000,10.577031005859375,-0.492470920085907,0.3373311758041382,0.07745528966188431
1725631157762984000,10.58698388671875,-0.4892762005329132,0.1843792051076889,0.04051751643419266
1725631157772937000,10.59693701171875,-0.5090120434761047,0.16821087896823883,-0.00388510269112885
1725631157782889700,10.6068896484375,-0.48809507489204407,0.01988985389471054,-0.012552094645798206
1725631157792842800,10.6168427734375,-0.5183886289596558,0.09677077829837799,-0.07612942904233932
1725631157802795800,10.626795654296876,-0.5185700058937073,0.09130703657865524,-0.0684795007109642
1725631157812748800,10.636748779296875,-0.5179231762886047,0.1531812697649002,-0.051817432045936584
1725631157822701800,10.646701904296876,-0.5041412711143494,0.09155731648206711,-0.0332552008330822
1725631157832654800,10.65665478515625,-0.48072564601898193,0.10460992902517319,-0.020288612693548203
1725631157842607900,10.66660791015625,-0.4175480008125305,0.058868538588285446,0.014709318988025188
1725631157852562000,10.67656201171875,-0.3645686209201813,0.09025083482265472,0.05884192883968353
1725631157862515000,10.686514892578124,-0.35470399260520935,0.1334446519613266,0.08555902540683746
1725631157872468000,10.696468017578125,-0.3888069987297058,0.07950973510742188,0.07337486743927002
1725631157882421000,10.7064208984375,-0.4465930759906769,0.13871926069259644,0.07323744893074036
1725631157892374000,10.7163740234375,-0.48446914553642273,0.2270788997411728,0.15297888219356537
1725631157902327000,10.7263271484375,-0.5120174288749695,0.27391645312309265,0.24345524609088898
1725631157912279800,10.73627978515625,-0.5365915298461914,0.22917817533016205,0.28442180156707764
1725631157922232800,10.74623291015625,-0.5509272813796997,0.17193858325481415,0.32905879616737366
1725631157932185900,10.756185791015625,-0.552431046962738,0.1603359431028366,0.37654781341552734
1725631157942139000,10.766138916015626,-0.5498693585395813,0.19113938510417938,0.4169897735118866
1725631157952092000,10.776091796875,-0.5884895324707031,0.19696524739265442,0.39346808195114136
1725631157962045000,10.786044921875,-0.6240160465240479,0.1965484619140625,0.3781554400920868
1725631157971998000,10.795998046875,-0.6450592875480652,0.2257366180419922,0.3959592580795288
1725631157981951000,10.805950927734376,-0.6446701884269714,0.25866925716400146,0.4308035373687744
1725631157991904000,10.815904052734375,-0.6462817192077637,0.2786785364151001,0.4597378075122833
1725631158001857000,10.82585693359375,-0.6631949543952942,0.2368493378162384,0.45300477743148804
1725631158011809800,10.835809814453125,-0.6698577404022217,0.1820579320192337,0.45682284235954285
1725631158021762800,10.8457626953125,-0.691807210445404,0.17326736450195312,0.46925023198127747
1725631158031715800,10.8557158203125,-0.723078727722168,0.14418749511241913,0.4505713880062103
1725631158041668900,10.8656689453125,-0.7523471117019653,0.09050776064395905,0.4163780212402344
1725631158051623000,10.875622802734375,-0.7672939896583557,0.09432462602853775,0.4186771810054779
1725631158061576000,10.885575927734376,-0.7661741375923157,0.07073114812374115,0.3897310197353363
1725631158071529000,10.895529052734375,-0.7607188820838928,0.052319083362817764,0.3598632514476776
1725631158081482000,10.90548193359375,-0.734703004360199,0.08682645857334137,0.36620956659317017
1725631158091435000,10.91543505859375,-0.6919835209846497,0.1388656198978424,0.37979549169540405
1725631158101388000,10.925387939453126,-0.6455486416816711,0.15291672945022583,0.3624007999897003
1725631158111341000,10.935341064453125,-0.5653876662254333,0.19700521230697632,0.3723445236682892
1725631158121294000,10.945294189453126,-0.4756505489349365,0.18341989815235138,0.35259321331977844
1725631158131247000,10.9552470703125,-0.3994874656200409,0.14446847140789032,0.31402894854545593
1725631158141200000,10.965199951171876,-0.3473217487335205,0.15278738737106323,0.30029982328414917
1725631158151153000,10.97515283203125,-0.29762834310531616,0.14937420189380646,0.28407907485961914
1725631158161106000,10.98510595703125,-0.2335931807756424,0.18345120549201965,0.31457385420799255
1725631158171059000,10.995058837890625,-0.18913976848125458,0.21450868248939514,0.33893272280693054
1725631158181012000,11.005011962890626,-0.13959698379039764,0.16192057728767395,0.3131248354911804
1725631158190965000,11.014965087890625,-0.09063741564750671,0.09175968915224075,0.2781117558479309
1725631158200918000,11.02491796875,-0.051832493394613266,0.03768206760287285,0.25382131338119507
1725631158210871000,11.03487109375,-0.044395335018634796,0.011799687519669533,0.2381601184606552
1725631158220824000,11.044823974609375,-0.04627499356865883,-0.019912702962756157,0.21597304940223694
1725631158230777000,11.054777099609375,-0.053650759160518646,-0.08901605010032654,0.1947455108165741
1725631158240730000,11.064730224609375,-0.033637635409832,-0.1074051782488823,0.1874343454837799
1725631158250683000,11.074682861328125,-0.014867003075778484,-0.14654681086540222,0.1507895290851593
1725631158260637000,11.084636962890626,0.01070200651884079,-0.1799660176038742,0.10132530331611633
1725631158270590000,11.09458984375,0.034043073654174805,-0.2576637864112854,0.07106934487819672
1725631158280543000,11.10454296875,0.054937705397605896,-0.2386525571346283,0.06188835948705673
1725631158290496000,11.11449609375,0.08150209486484528,-0.2520758807659149,-0.00593840004876256
1725631158300448500,11.124448486328125,0.09469859302043915,-0.24031881988048553,-0.06106050685048103
1725631158310401500,11.134401611328125,0.12662959098815918,-0.2597663700580597,-0.08337529003620148
1725631158320354600,11.1443544921875,0.15186063945293427,-0.2638833224773407,-0.11082741618156433
1725631158330307600,11.1543076171875,0.19965864717960358,-0.2979283630847931,-0.13906043767929077
1725631158340260600,11.164260498046875,0.2570020854473114,-0.2724214196205139,-0.1487431526184082
1725631158350213600,11.174213623046874,0.29850250482559204,-0.3356229364871979,-0.19190768897533417
1725631158360166700,11.184166748046875,0.3195428252220154,-0.32249781489372253,-0.2129807472229004
1725631158370119400,11.194119384765624,0.33304667472839355,-0.33323970437049866,-0.239938884973526
1725631158380072400,11.204072509765625,0.3407520055770874,-0.328402578830719,-0.2656756639480591
1725631158390025500,11.214025390625,0.3871235251426697,-0.41827285289764404,-0.2730023264884949
1725631158399978500,11.223978515625,0.4126475155353546,-0.3273022174835205,-0.3075981140136719
1725631158409931500,11.233931640625,0.44652751088142395,-0.3036593198776245,-0.30154046416282654
1725631158419884500,11.243884521484375,0.4681268036365509,-0.3029852509498596,-0.3307769298553467
1725631158429837600,11.253837646484374,0.5028568506240845,-0.28247225284576416,-0.34112516045570374
1725631158439790600,11.26379052734375,0.5155076384544373,-0.21481412649154663,-0.3450559973716736
1725631158449743600,11.27374365234375,0.5139707326889038,-0.16372235119342804,-0.3562016487121582
1725631158459697400,11.283697509765625,0.5142266750335693,-0.1901659369468689,-0.40701237320899963
1725631158469650400,11.293650390625,0.552225649356842,-0.17596562206745148,-0.4360678791999817
1725631158479603500,11.303603515625,0.5969718098640442,-0.1485198736190796,-0.4359770715236664
1725631158489556500,11.313556396484374,0.6142860054969788,-0.14661718904972076,-0.4487115442752838
1725631158499509200,11.32350927734375,0.61749267578125,-0.17259952425956726,-0.4872434735298157
1725631158509462300,11.333462158203124,0.6144774556159973,-0.2163589894771576,-0.5309402942657471
1725631158519415300,11.343415283203125,0.6095759272575378,-0.13291096687316895,-0.5088728070259094
1725631158529368300,11.353368408203124,0.6122065186500549,-0.03958611562848091,-0.49615707993507385
1725631158539321300,11.3633212890625,0.5934639573097229,-0.026308922097086906,-0.4912717938423157
1725631158549274400,11.3732744140625,0.6072162389755249,-0.04113977774977684,-0.4724391996860504
1725631158559227400,11.383227294921875,0.6327698230743408,-0.017872270196676254,-0.4620555341243744
1725631158569180400,11.393180419921874,0.6703798770904541,0.03176594898104668,-0.4474659562110901
1725631158579133400,11.403133544921875,0.688093900680542,-0.07862261682748795,-0.5535316467285156
1725631158589086500,11.41308642578125,0.7267569899559021,-0.1261662393808365,-0.6015771627426147
1725631158599039500,11.42303955078125,0.7516524791717529,-0.052724502980709076,-0.5524687170982361
1725631158608992300,11.4329921875,0.7693558931350708,-0.04351281374692917,-0.5299642086029053
1725631158618945300,11.4429453125,0.7841055393218994,-0.008086645044386387,-0.4874122440814972
1725631158628898300,11.452898193359376,0.783530056476593,0.041501015424728394,-0.4360937476158142
1725631158638851300,11.462851318359375,0.766357421875,0.059134602546691895,-0.3936256468296051
1725631158648804400,11.472804443359376,0.7301399111747742,0.03802213445305824,-0.3769625425338745
1725631158658758400,11.48275830078125,0.6996890306472778,0.01827559620141983,-0.39281874895095825
1725631158668711400,11.49271142578125,0.6886863708496094,-0.017762597650289536,-0.4263327419757843
1725631158678664400,11.50266455078125,0.6740522980690002,-0.08951747417449951,-0.46526920795440674
1725631158688617500,11.512617431640624,0.6355627179145813,-0.10256009548902512,-0.4734801948070526
1725631158698570500,11.522570556640625,0.5835825800895691,-0.0608707033097744,-0.4771825075149536
1725631158708522500,11.5325224609375,0.5381544232368469,0.02217096835374832,-0.4505784213542938
1725631158718476500,11.5424765625,0.48507097363471985,0.06581352651119232,-0.42531275749206543
1725631158728429600,11.5524296875,0.44035428762435913,0.09683984518051147,-0.3837008476257324
1725631158738382300,11.56238232421875,0.395348459482193,0.12399077415466309,-0.32073333859443665
1725631158748335400,11.57233544921875,0.3549745976924896,0.128536194562912,-0.27937471866607666
1725631158758288400,11.582288330078125,0.30581051111221313,0.1659940779209137,-0.17897513508796692
1725631158768241400,11.592241455078126,0.2597282826900482,0.17257697880268097,-0.11421927064657211
1725631158778194400,11.6021943359375,0.19244937598705292,0.18721264600753784,-0.056731484830379486
1725631158788147500,11.6121474609375,0.13877347111701965,0.24231372773647308,0.030046775937080383
1725631158798100500,11.6221005859375,0.11549770087003708,0.25798535346984863,0.07150979340076447
1725631158808053500,11.632053466796876,0.13892285525798798,0.33717963099479675,0.14863340556621552
1725631158818006500,11.642006591796875,0.14643722772598267,0.3270963728427887,0.18983037769794464
1725631158827959600,11.65195947265625,0.15291932225227356,0.30017948150634766,0.2212436944246292
1725631158837912600,11.66191259765625,0.19197137653827667,0.27681583166122437,0.2511533796787262
1725631158847865300,11.671865234375,0.21839778125286102,0.2058468461036682,0.2208498865365982
1725631158857818400,11.681818359375,0.22978545725345612,0.10836264491081238,0.19504331052303314
1725631158867771400,11.691771484375,0.22135379910469055,0.222496896982193,0.11895377188920975
1725631158877724400,11.701724365234375,0.241548553109169,0.08455714583396912,0.09354641288518906
1725631158887677400,11.711677490234376,0.19267034530639648,0.17166097462177277,0.06394962966442108
1725631158897630500,11.72163037109375,0.2434144765138626,0.01727486401796341,0.07711575925350189
1725631158907583500,11.73158349609375,0.23987257480621338,-0.042968545109033585,0.026884883642196655
1725631158917537500,11.74153759765625,0.19889716804027557,-0.014189360663294792,-0.0581170916557312
1725631158927490600,11.751490478515626,0.21644264459609985,-0.2129872739315033,-0.10840830951929092
1725631158937443600,11.761443603515625,0.16333042085170746,-0.2955207824707031,-0.11659007519483566
1725631158947396600,11.771396728515626,0.13449256122112274,-0.25839170813560486,-0.09430386871099472
1725631158957349600,11.781349609375,0.05483555048704147,-0.25733548402786255,-0.06954339146614075
1725631158967302700,11.791302734375,0.005361722782254219,-0.1675582081079483,0.02690473198890686
1725631158977255400,11.80125537109375,-0.03469408303499222,-0.15449592471122742,0.059845373034477234
1725631158987208400,11.81120849609375,-0.023383120074868202,-0.23161537945270538,0.06404922902584076
1725631158997161500,11.821161376953125,-0.017066102474927902,-0.216236412525177,0.07253219932317734
1725631159007114500,11.831114501953126,-0.012638863176107407,-0.1549685299396515,0.11821179836988449
1725631159017067500,11.841067626953125,-0.0289163701236248,-0.08045489341020584,0.16428981721401215
1725631159027020500,11.8510205078125,-0.021546244621276855,-0.03990388661623001,0.1975782811641693
1725631159036973600,11.8609736328125,-0.000024440698325634003,-0.006042592227458954,0.21824520826339722
1725631159046926600,11.870926513671876,0.04830532148480415,0.012878692708909512,0.1936759501695633
1725631159056879600,11.880879638671875,0.10919104516506195,-0.018346870318055153,0.12379593402147293
1725631159066832600,11.89083251953125,0.16418485343456268,-0.09319471567869186,0.02276170253753662
1725631159076786400,11.900786376953125,0.23165445029735565,-0.17207461595535278,-0.06540544331073761
1725631159086739500,11.910739501953126,0.274281769990921,-0.22857122123241425,-0.14924004673957825
1725631159096692500,11.9206923828125,0.318289190530777,-0.2257261723279953,-0.18232981860637665
1725631159106645200,11.930645263671876,0.33271366357803345,-0.24418534338474274,-0.21758858859539032
1725631159116598300,11.940598388671875,0.35280561447143555,-0.2646661400794983,-0.26130810379981995
1725631159126551300,11.95055126953125,0.3375858962535858,-0.2306019812822342,-0.30955010652542114
1725631159136504300,11.96050439453125,0.26425573229789734,-0.1602788120508194,-0.30178937315940857
1725631159146457300,11.970457275390626,0.16113175451755524,0.015795011073350906,-0.23460622131824493
1725631159156410400,11.980410400390625,0.0812252014875412,0.11661137640476227,-0.2011294811964035
1725631159166363400,11.99036328125,0.016710083931684494,0.11884555220603943,-0.2391081154346466
1725631159176316400,12.00031640625,-0.03724582865834236,0.10817133635282516,-0.27514976263046265
1725631159186269400,12.01026953125,-0.08859151601791382,0.09895523637533188,-0.29169848561286926
1725631159196222500,12.020222412109375,-0.15589891374111176,0.07402165234088898,-0.3045434355735779
1725631159206175200,12.03017529296875,-0.202988862991333,0.12116799503564835,-0.2761322855949402
1725631159216128300,12.040128173828125,-0.24477839469909668,0.17446663975715637,-0.2227550745010376
1725631159226081300,12.050081298828125,-0.26856693625450134,0.18333008885383606,-0.15596112608909607
1725631159236034300,12.060034423828125,-0.2946118712425232,0.19715401530265808,-0.1298038214445114
1725631159245987300,12.0699873046875,-0.32803669571876526,0.15136106312274933,-0.12767654657363892
1725631159255940400,12.0799404296875,-0.35485899448394775,0.2335028052330017,-0.0603606291115284
1725631159265893400,12.089893310546875,-0.3786567151546478,0.2977542579174042,0.044727589935064316
1725631159275847400,12.099847412109375,-0.4412687122821808,0.2460322082042694,0.0743882805109024
1725631159285800400,12.109800537109376,-0.4636041820049286,0.2416209727525711,0.11333371698856354
1725631159295753500,12.11975341796875,-0.45560377836227417,0.24825330078601837,0.17177492380142212
1725631159305706500,12.12970654296875,-0.4752776324748993,0.12226210534572601,0.20189982652664185
1725631159315659500,12.139659423828125,-0.52473384141922,0.01779189333319664,0.18534135818481445
1725631159325612500,12.149612548828125,-0.5973368883132935,-0.028831562027335167,0.2136581838130951
1725631159335565300,12.1595654296875,-0.6573142409324646,0.1412208527326584,0.3043143153190613
1725631159345518300,12.169518310546875,-0.7103824019432068,0.23751047253608704,0.4119741916656494
1725631159355471400,12.179471435546875,-0.7245128750801086,0.21981509029865265,0.4160778522491455
1725631159365424400,12.18942431640625,-0.7299289107322693,0.23191781342029572,0.4327448308467865
1725631159375377400,12.19937744140625,-0.7508965134620667,0.2527346611022949,0.4178558886051178
1725631159385330400,12.209330322265625,-0.7765673995018005,0.19653621315956116,0.4001445174217224
1725631159395283500,12.219283447265624,-0.7794803380966187,0.2706405222415924,0.44439825415611267
1725631159405236500,12.229236572265625,-0.7768751978874207,0.3377391993999481,0.47513753175735474
1725631159415189500,12.239189453125,-0.7962486147880554,0.3100433945655823,0.46464359760284424
1725631159425142500,12.249142578125,-0.8271357417106628,0.1174764409661293,0.35908782482147217
1725631159435095600,12.259095458984374,-0.85566645860672,0.0485176146030426,0.3274095356464386
1725631159445048300,12.26904833984375,-0.8633880615234375,0.1540752500295639,0.419899046421051
1725631159455002600,12.279002685546875,-0.8399293422698975,0.19200745224952698,0.5072712302207947
