time,seconds_elapsed,z,y,x
1725630284070380300,0.02438037109375,0.9554957212388515,-1.1586632551342249,-0.24327669531330465
1725630284080333300,0.034333251953125,0.6427022759765386,-0.7208633740216494,-0.23232743127569555
1725630284090286000,0.0442861328125,0.13015665822029113,-0.17086217809617518,-0.4076876514434814
1725630284100239000,0.054239013671875,-0.5703174232453108,0.006495207238197327,-0.6425989617325365
1725630284110193000,0.06419287109375,-1.4703560456782578,0.03144610862135887,-0.9462468313783406
1725630284120146000,0.07414599609375,-2.469014616817236,0.037249826464056966,-1.5247943228304386
1725630284130099000,0.084098876953125,-3.126189654782414,0.29985797584354873,-1.9452892872683702
1725630284140052000,0.094052001953125,-3.342275706961751,0.6857657571554183,-2.0811637386135757
1725630284150006000,0.104006103515625,-2.6213959663271904,1.0037988566368818,-1.619493737091869
1725630284159959000,0.113958984375,-1.3850620270133018,1.2542507042765616,-0.5295450486782938
1725630284169912000,0.123912109375,-0.39533436582684517,1.5062240623950958,0.2904013067175634
1725630284179865000,0.133864990234375,-0.20349895780682561,2.0515824009507893,0.6031598085306584
1725630284189819100,0.143819091796875,-0.6403121659696102,2.3639655118465424,0.839806564310193
1725630284199772200,0.153772216796875,-0.8794137675553559,2.089884951338172,0.85164576292485
1725630284209725200,0.16372509765625,-0.6807809544801712,1.8690578421115873,0.9894136268012225
1725630284219678200,0.17367822265625,-0.7388824303150177,1.9871376935690641,1.4630300867043435
1725630284229632300,0.18363232421875,0.4851742112278938,2.0387316872060297,0.5301744326230138
1725630284239585300,0.193585205078125,2.581505854487419,2.6983564564108846,-0.08179675113372505
1725630284249538300,0.203538330078125,4.074444903373718,4.33826535115242,1.2460912170879541
1725630284259491300,0.2134912109375,1.6642133149147034,2.320951715028286,0.3631650574974716
1725630284269445000,0.223445068359375,0.40979076120257374,1.9545459220439194,0.8413941257625818
1725630284279398100,0.233398193359375,1.555860492223501,3.9275533834517,-0.22458266236782073
1725630284289351200,0.24335107421875,2.3547218826830387,3.5314953795254227,-2.579633046352863
1725630284299305200,0.25330517578125,3.1666087589323517,3.416306573334336,-2.3814456389576195
1725630284309258200,0.26325830078125,2.38495101673007,1.2227508196413517,-0.23159984765350816
1725630284319211000,0.2732109375,0.5868763438582421,-5.824127593520283,2.597562963058054
1725630284329164000,0.2831640625,2.1646213356316086,-5.17833845744431,3.6134161223649977
1725630284339118000,0.2931181640625,4.572590239855646,1.9016244791954755,0.5308931753516197
1725630284349071000,0.303071044921875,3.0686499044835567,4.143510256293416,1.6342726424202323
1725630284359024000,0.313024169921875,1.7936930967867373,3.984157898727059,4.182075841531157
1725630284368977200,0.32297705078125,2.2148136457771064,4.150969340127706,4.936369775989651
1725630284378931000,0.332930908203125,1.8911258815348146,5.042725287383795,4.878516721957921
1725630284388884000,0.342884033203125,0.16452011559307575,6.589322861221432,3.606976152445376
1725630284398837000,0.3528369140625,-1.9386258838564157,6.543165505680442,0.7619194609008729
1725630284408790000,0.3627900390625,-2.594172443836927,5.415636224478483,-1.9985219880230725
1725630284418744000,0.372744140625,-0.9680208562910556,4.686956623747944,-2.5533470969736576
1725630284428697000,0.382697021484375,2.0715110902577636,4.824672903567552,-1.777487958047539
1725630284438650000,0.392650146484375,4.554062649518251,5.601052413105965,-1.8552336071595548
1725630284448603100,0.40260302734375,5.595004949635267,6.101446989819407,-2.324472582630813
1725630284458557200,0.41255712890625,3.655035249954462,8.092368878102302,-1.2957533658795057
1725630284468510200,0.42251025390625,1.1474983025193213,8.452476447725296,0.29147593194544313
1725630284478463200,0.432463134765625,0.912832637554407,9.634963061517476,0.048020226803421974
1725630284488416300,0.442416259765625,-0.35162907961308953,10.717561898624897,2.7016166272506115
1725630284498370000,0.4523701171875,1.0158598813086748,12.051125209069252,4.793039163419604
1725630284508323000,0.462322998046875,3.0220564956128597,12.687251029264926,3.618668928326666
1725630284518276000,0.472276123046875,4.244799716469645,11.76544598070383,3.647282443870604
1725630284528230100,0.482230224609375,6.555584257748722,12.465970915573834,2.608132580128312
1725630284538183200,0.49218310546875,6.872185278600454,12.798332400137186,3.2998253892451523
1725630284548136200,0.50213623046875,9.07692819674015,9.54241454167962,-2.7252777810841797
1725630284558089000,0.5120888671875,8.231455861753226,9.19912249777913,-9.944186831599474
1725630284568043300,0.522043212890625,0.3795458450645208,6.067676822164654,-13.506023573374748
1725630284577996000,0.53199609375,-1.6463614318817852,4.5446536006599665,-12.10595803849697
1725630284587949000,0.541948974609375,-3.412190954709053,3.6892362102419134,-11.17739124071598
1725630284597902000,0.551902099609375,-5.7221057274162765,4.248224430221319,-10.25091235512495
1725630284607856000,0.561856201171875,-6.2488020355999465,3.605086977697909,-7.807776860451698
1725630284617809200,0.57180908203125,-4.654519166001677,3.6505709640219806,-6.484118857949972
1725630284627762200,0.58176220703125,-3.986649423281848,2.8815672439485787,-6.916359935891628
1725630284637715200,0.591715087890625,-4.683923247401416,1.4303782555550335,-10.899100369036198
1725630284647669000,0.6016689453125,-7.531758609879017,-3.325837197858095,-16.805273208558557
1725630284657622000,0.6116220703125,-4.124416264244914,-12.143264563584326,-27.26638431138992
1725630284667575000,0.621574951171875,3.548324349251389,-15.619063190329074,-30.554107174909113
1725630284677528000,0.631528076171875,8.244863624858855,-16.474298209917546,-25.47785020480156
1725630284687482000,0.641482177734375,5.6315410748720165,-4.5203731458842755,-6.312518428707122
1725630284697435100,0.65143505859375,3.4819521809384226,-2.263286000262201,-2.477192662575841
1725630284707388200,0.66138818359375,1.5827544904984532,-4.904209381619095,-1.396249775981903
1725630284717342200,0.67134228515625,-0.08659984056651591,-1.450239432583749,2.6998481562733647
1725630284727295200,0.681295166015625,-0.12210823019072413,1.2146367790296673,3.765694011500478
1725630284737248300,0.691248291015625,-2.104171689235419,1.8346862014323473,4.5632226920515295
1725630284747201300,0.701201171875,-5.255764226952195,4.020121777033806,0.5215238739818334
1725630284757155000,0.711155029296875,-6.971340064835548,-0.14810557188689707,-6.156978907427192
1725630284767108000,0.721108154296875,-10.189640432560443,2.5173101534307003,-5.536911657106876
1725630284777061000,0.73106103515625,-12.349582085943222,5.867704869440198,0.3162204971015453
1725630284787014000,0.741013916015625,-10.432539672863482,5.045981074309349,1.901457305935025
1725630284796968200,0.75096826171875,-9.59349824770689,1.1068278539568186,-1.6010253295958041
1725630284806921000,0.7609208984375,-6.247241362154483,1.826877573508024,-4.207589052972197
1725630284816874000,0.7708740234375,-5.676043648943304,4.922856798943877,3.9151983442693945
1725630284826827000,0.780826904296875,-3.1564819171935317,2.2019424737662074,-3.2504917417556047
1725630284836781000,0.790781005859375,-5.607016289946436,-9.288107187655568,-21.884658539819718
1725630284846734000,0.800734130859375,-6.949070949882269,7.4458993585467335,10.999251180571317
1725630284856687000,0.81068701171875,-4.590128819155693,7.531576823571324,11.061286488723754
1725630284866640100,0.82064013671875,-9.196649970185756,-0.54031099203825,-6.990158162552118
1725630284876594200,0.83059423828125,-8.277833582046627,-4.724430906617641,-10.254557433629035
1725630284886547200,0.840547119140625,-7.160100887715816,0.20444880587756634,-1.4750927188113332
1725630284896500200,0.850500244140625,-3.020714725615084,0.9246019858032465,1.398769357587397
1725630284906453200,0.860453369140625,-1.9177648821353912,-5.951070550391077,-13.950682234340904
1725630284916407000,0.870406982421875,-5.231850267401337,-7.30983610663116,-14.923901828318833
1725630284926360000,0.880360107421875,-2.1096894297435878,4.136894053024053,9.089941407570242
1725630284936313000,0.89031298828125,-7.739888150095939,0.06438508614897727,1.9376026782885192
1725630284946267100,0.90026708984375,-7.8496859108984465,-2.6269606147170066,-2.1777780465856194
1725630284956220200,0.91022021484375,-5.219605702856183,-3.223050777122378,-1.9981758049339056
1725630284966173200,0.920173095703125,-2.3188544504880904,-2.8743758711397644,-0.5799965212166309
1725630284976126200,0.930126220703125,5.582668030631542,-4.234909606096148,-0.3282091871894896
1725630284986080300,0.940080322265625,-11.643396641093492,0.6625573155254125,3.9121664292275904
1725630284996033300,0.950033203125,-16.419522663635014,-0.3851157541513443,-0.026077275064587593
1725630285005986300,0.959986328125,1.3344301564067602,-7.90494076513052,-4.618585682833195
1725630285015939300,0.969939208984375,8.68191824056208,-12.705742963767051,-7.5887062395036216
1725630285025893000,0.97989306640625,17.74362840990424,-18.227162452709674,-13.329998313426971
1725630285035846100,0.98984619140625,7.56129216287732,-16.478308030080793,-13.766163871335982
1725630285045799200,0.999799072265625,0.9988315896183252,-11.61318621174693,-11.004458101564644
1725630285055752200,1.009752197265625,1.5258072992652654,-8.808876395002008,-7.313035779455304
1725630285065706200,1.019706298828125,2.9637825858205553,-8.003639624291658,-6.5736909923255435
1725630285075659300,1.0296591796875,5.306954315963387,-7.15205435938239,-4.452226076853275
1725630285085612300,1.0396123046875,6.945865431839227,-5.6551236105114215,-0.8294372190523892
1725630285095565300,1.0495654296875,5.152754518854618,-3.0169156255930663,1.8358286494657396
1725630285105519400,1.059519287109375,3.22267492954731,-0.7876461689621209,3.4913697053641077
1725630285115472400,1.069472412109375,4.814019407606125,-0.9541782088994979,2.740729032716155
1725630285125425400,1.07942529296875,3.5583372092217207,-0.31739597062170505,2.145418622511625
1725630285135379200,1.089379150390625,3.8620752413690087,-0.1458347043454647,2.159187181753665
1725630285145332200,1.099332275390625,-0.26084406231641766,1.2087485977739094,0.9152592801794409
1725630285155285200,1.10928515625,-7.62886172428131,3.935670054411888,-0.6154859138794243
1725630285165238300,1.11923828125,-8.20585731011629,3.1201188104361295,-3.9952386801898476
1725630285175192300,1.1291923828125,-6.7059425769984715,3.1712165449887513,-5.7276756365031
1725630285185145300,1.139145263671875,-3.2978561349987983,1.9575965417861938,-3.782448162424564
1725630285195098400,1.149098388671875,-1.4589409176945685,1.2206418646633623,-2.4177418179586527
1725630285205051400,1.159051513671875,-0.27386779454052446,0.4084779250383377,-0.5243726875416934
1725630285215005400,1.16900537109375,0.2551747845083475,0.6941396177470683,-0.08397986732646823
1725630285224958500,1.17895849609375,0.48492871203422544,1.6566829194098711,1.1913560028158128
1725630285234911500,1.188911376953125,-0.2199298681259155,2.211384255850315,1.3220645958304404
1725630285244864300,1.1988642578125,-0.1780500437736511,1.5749954008042812,-0.21091741736978292
1725630285254818600,1.208818603515625,0.3168734080523252,0.9174684806615113,-1.6052195664152502
1725630285264771300,1.218771240234375,-1.5062223088294266,0.2984574613958597,-0.8816475179567933
1725630285274724400,1.228724365234375,-0.08182254316210746,-1.114385721990466,-1.804199293231964
1725630285284677400,1.238677490234375,1.6684090130388736,-1.1514186908334494,-0.6310324425794184
1725630285294631200,1.248631103515625,0.8825199168771505,-1.9662486347973345,-1.2765255183182656
1725630285304584200,1.258584228515625,0.8968965250149369,-2.5854227356702086,-1.620226727541536
1725630285314537200,1.268537109375,0.6972849300354719,-2.710578809124231,-2.062172768548131
1725630285324491300,1.2784912109375,1.2964543537557125,-2.6937971856713294,-1.5748481012880802
1725630285334444300,1.2884443359375,1.2928694810062646,-1.8004279579997062,-0.6276257028758525
1725630285344397300,1.298397216796875,-2.5142750235185027,0.9244295518457889,-0.9272431479617953
1725630285354350300,1.308350341796875,-1.3504258901789783,2.730942967239022,0.13320669344067573
1725630285364304400,1.318304443359375,1.3493155908495187,3.997684904298186,0.9265718245714902
1725630285374257400,1.32825732421875,1.574779127705097,5.124900297245383,1.0521443698719144
1725630285384210400,1.33821044921875,0.9019660833641886,4.0088726532667875,1.0570043771237134
1725630285394163500,1.34816357421875,1.0410790782392025,2.1839228329509495,-0.7784028320595622
1725630285404117200,1.3581171875,0.8538859430670738,1.6609651267737149,-1.8532833498746155
1725630285414070300,1.3680703125,1.4736635627910495,-0.20760230147242545,-0.7738944147244096
1725630285424023300,1.378023193359375,1.2099943600513041,2.6229209839373824,0.9529390224933624
1725630285433977300,1.387977294921875,0.07655483189225197,3.489747072598338,0.041701837436854836
1725630285443930400,1.397930419921875,-0.1110743566095829,2.417697102034092,-0.8290405478850007
1725630285453883400,1.40788330078125,0.8807361022002994,0.3224211053073406,0.3059817194208503
1725630285463836400,1.41783642578125,0.13832739745527506,0.1664209807783365,0.4267719988808036
1725630285473790500,1.42779052734375,-0.8119960357122122,0.638673166590929,0.17921207329034805
1725630285483743500,1.437743408203125,-0.8812636332057416,0.03400982162952423,-1.0098246927976609
1725630285493696300,1.4476962890625,-0.73402914506495,-4.260128218504787,-1.343554250843823
1725630285503649300,1.457649169921875,-0.28556290850937366,-2.5981039380669593,-0.2843602547213435
1725630285513603300,1.467603271484375,-0.28839067928120493,-1.7301093901485203,-0.26564240250885485
1725630285523556400,1.477556396484375,-1.157595187511295,-2.3786112923145293,-0.4806421207562089
1725630285533509400,1.48750927734375,-0.8319399225883185,-2.9051731604635713,-0.23198855471014976
1725630285543462400,1.49746240234375,-0.0467762180916965,-0.9618950668871402,0.3539712588250637
1725630285553416200,1.507416259765625,0.6414040528595447,-1.5920535031110048,0.033656770408153534
1725630285563369200,1.517369140625,0.37838556911349297,-0.43922260739207264,-0.17897797227352857
1725630285573322200,1.527322265625,0.8945634058922529,-0.4745815055429935,-0.1436886322274804
1725630285583276300,1.5372763671875,0.854929899162054,1.270526131772995,0.1823535861864686
1725630285593229300,1.547229248046875,-0.4938565532468259,1.1030255390644073,-0.7419485398873686
1725630285603182300,1.557182373046875,-1.0401911894887685,0.8744301339238881,-0.6999845443829894
1725630285613135400,1.56713525390625,-0.6945604735076427,0.2841799297183752,-1.349854227770865
1725630285623089400,1.57708935546875,0.299460208697617,1.373194479086995,-0.7311044897899032
1725630285633042400,1.58704248046875,0.43502223309278487,2.1531863339036703,-0.6459642003819346
1725630285642995500,1.596995361328125,-0.2290738363072276,2.541438047993183,-0.6662897800520062
1725630285652949200,1.60694921875,0.06579319938123226,2.213003381484747,-1.285179511025548
1725630285662902300,1.61690234375,0.8910144812390207,2.2193729165166616,-0.6812173000708222
1725630285672855300,1.626855224609375,0.791733292145282,2.443237786003947,0.15219517928808926
1725630285682808300,1.636808349609375,0.04414104728251696,1.9680916323155164,0.6250204888135195
1725630285692762400,1.646762451171875,-0.4716225096069276,0.6853846488833427,0.5597101045131683
1725630285702715400,1.65671533203125,0.32339024260044097,-0.30861995896995065,0.9335203285351396
1725630285712668400,1.66666845703125,0.7206479777052998,-0.6867524301052093,0.6361711206421256
1725630285722621400,1.676621337890625,-0.1948947955906391,0.8319038283616303,0.9578943068131804
1725630285732575500,1.686575439453125,-0.42668490511924023,1.8799276111721992,0.441447005443275
1725630285742528500,1.696528564453125,-0.6169909116148948,3.7954572816014287,0.33611353057324883
1725630285752481300,1.706481201171875,-1.9566617451541124,0.6890911021858454,-0.4282932170987129
1725630285762435300,1.716435302734375,-0.6571645165711641,-0.6128086574941873,0.22377660668194294
1725630285772388000,1.72638818359375,-0.00456555434986949,-0.6057423723697662,0.4734601002976298
1725630285782341000,1.736341064453125,0.1465117268241942,0.27834230960607526,0.6782479288712143
1725630285792294100,1.746294189453125,0.6539198355615139,-1.3369511993169785,1.1607131734013556
1725630285802248200,1.756248291015625,-0.324176278411597,-1.1074252353280782,0.6620978813201188
1725630285812201200,1.766201171875,-0.3844102362304926,0.32156536526083945,-0.047858314239978786
1725630285822154200,1.776154296875,0.10681801433935761,0.2591530404895544,-0.9227553350232541
1725630285832107300,1.786107177734375,-0.17186273344084618,0.32188568325638767,-1.477112095809728
1725630285842061300,1.796061279296875,-0.9882932444691658,0.01256312897503376,-1.7445095252923666
1725630285852014300,1.806014404296875,-1.2775000624388455,-0.6459872889965772,-1.5885563086450099
1725630285861967400,1.81596728515625,-1.0885552612937985,-0.7233820788443088,-1.590392438030988
1725630285871921400,1.82592138671875,-0.7399982826024294,-0.22240473380684853,-1.8621344725891946
1725630285881874400,1.83587451171875,-0.7187702011346817,-0.07565466818213462,-1.8815081583619118
1725630285891827500,1.845827392578125,-0.6594665099032223,-0.11337269667983055,-2.039462339568138
1725630285901780500,1.855780517578125,-0.7771399725168943,-0.055556467527151106,-2.176523370349407
1725630285911734300,1.865734375,-0.906549611762166,-0.6600730974942446,-2.089996595019102
1725630285921687300,1.875687255859375,-0.6040466013025492,-0.9026976125091314,-1.8863944690987466
1725630285931640300,1.885640380859375,-0.7777385229319334,-0.7667384054899216,-1.8611008917577563
1725630285941594400,1.895594482421875,-0.7452589796096086,-0.7682727754503488,-1.6789735155425964
1725630285951547400,1.90554736328125,-0.9730185184478759,-0.5354629674851894,-1.5570746903188526
1725630285961500400,1.91550048828125,-0.33155952053070065,-0.49473698934316634,-1.408514214271307
1725630285971453400,1.925453369140625,-0.23073950449712574,0.1218622926056385,-1.476186797658354
1725630285981407500,1.935407470703125,-0.3936678208541125,0.05469605130553245,-1.6881427642956375
1725630285991360500,1.945360595703125,-0.6488719775874168,0.01720949347615242,-1.7680961525849996
1725630286001313300,1.955313232421875,-0.48482291357219215,0.12081482937932014,-1.6100792814061045
1725630286011266300,1.965266357421875,-0.6471580132763832,0.3660205930590629,-1.3856561935141682
1725630286021220000,1.97522021484375,-0.39687041628770525,0.21416063707470892,-1.3778101561889051
1725630286031173000,1.985173095703125,0.09595803602039814,-0.11040215643644333,-1.2241034032940863
1725630286041126100,1.995126220703125,0.12841777866370976,0.2014823572874069,-1.2131982706591486
1725630286051080200,2.005080078125,0.39941199052929877,0.058252867004275316,-1.225730127713084
1725630286061033200,2.015033203125,0.3781218766760081,0.003274491626024246,-1.2741549897946416
1725630286070986200,2.024986328125,0.5214958169311285,-0.4458037393480539,-0.8879476410143077
1725630286080939300,2.034939208984375,0.30771621506325897,-0.2819605001032352,-0.9670620942614973
1725630286090893300,2.044893310546875,-0.028715806874632835,-0.4500941300183534,-1.0261014354683458
1725630286100846300,2.054846435546875,0.009177651255205274,-0.4518599706470966,-1.4870713258966803
1725630286110799400,2.06479931640625,0.25376667127609254,-0.6584826134324073,-1.4324579844385386
1725630286120752000,2.074752197265625,0.337096111869812,-0.4469049785882234,-1.7078747619867325
1725630286130706400,2.08470654296875,-0.354763285985589,-0.23748364499509333,-1.8136543731890618
1725630286140659200,2.0946591796875,1.079339031593874,-1.1347621550649405,-0.5154001304045319
1725630286150612200,2.1046123046875,2.2735528349936005,-0.522509377887845,-0.42464346241950984
1725630286160566000,2.11456591796875,1.4969336714804171,0.23587094910144804,-0.5178510306879878
1725630286170519000,2.12451904296875,-0.20124547979161142,-0.008245265775918961,-0.670005293443799
1725630286180472000,2.13447216796875,0.8039058874327689,0.009476268875598907,0.04444967484027147
1725630286190425000,2.144425048828125,1.050218077984452,2.2092595187813044,0.2502520872838795
1725630286200379100,2.154379150390625,-0.7750064676195383,2.467404843533039,-0.04904372463226318
1725630286210332200,2.164332275390625,-0.9229571412056684,2.3052771760344504,0.27316972927376626
1725630286220285200,2.17428515625,0.8791383846800774,2.447233577641845,0.7995322754584252
1725630286230239200,2.1842392578125,1.833230157405138,1.8359160354882478,1.4500211136579513
1725630286240192300,2.194192138671875,0.8096469883680343,2.252149981480837,0.6555323853246867
1725630286250145300,2.204145263671875,-0.3216291512120515,1.4284481642752884,0.5846086911872029
1725630286260098300,2.214098388671875,0.5044008166801184,0.2547013217777014,0.927003932378441
1725630286270052000,2.224052001953125,1.4044769215792416,0.58898763692379,0.46278307733014223
1725630286280005000,2.234005126953125,1.5828279941260814,-0.03204524355828762,0.19918007169440388
1725630286289958100,2.243958251953125,1.2054530633598566,-0.1445849965453148,-0.1792953676596284
1725630286299911200,2.2539111328125,0.5641268249768764,0.3190846543610096,0.30893048622384667
1725630286309865200,2.263865234375,0.607548618074134,-0.9330553413718938,0.5592822344899178
1725630286319818200,2.273818359375,1.3323217859506606,-0.998962522521615,0.008150427099317311
1725630286329771300,2.283771240234375,1.1481763479113578,-0.7597147904634475,0.5078988148637116
1725630286339724300,2.293724365234375,1.7763427335351705,-1.8456711213052273,0.8087174524329602
1725630286349678300,2.30367822265625,1.208148878315091,-1.255562955918908,1.1381355770207942
1725630286359631400,2.31363134765625,0.7297809130359441,-1.0577701007992029,1.2231614462688565
1725630286369584000,2.323584228515625,0.48469263825602826,-1.334739953008294,1.4530341778688132
1725630286379538200,2.3335380859375,0.3751123195964843,-1.4575439103782175,1.3262332598172129
1725630286389491200,2.3434912109375,0.31860432349815965,-1.726117105641961,0.9721749072305857
1725630286399444200,2.3534443359375,0.17038579275608062,-1.5190104787319898,0.514073119584471
1725630286409397200,2.363397216796875,0.2596277453292161,-2.207266299137473,0.840874339672178
1725630286419351000,2.37335107421875,0.5034364286273718,-2.274181196025014,1.0293056383371353
1725630286429304000,2.383303955078125,0.1295218674480915,-1.250130409476161,1.4780220502614974
1725630286439257000,2.393257080078125,-0.9619522769670933,-1.6294728409230708,0.8277227432847023
1725630286449211100,2.403211181640625,-1.490231981884688,-0.40709202363789077,0.22381635417044163
1725630286459164200,2.4131640625,-0.32256782030165193,0.29396365710794925,0.7641090798996388
1725630286469117200,2.4231171875,0.3641174628514796,0.9377081356137991,0.7282524613596498
1725630286479070200,2.4330703125,-0.06385156379416584,1.6534738942354916,0.24371815547049044
1725630286489024300,2.443024169921875,-0.9129765760697424,1.8826982449293135,-0.11185367041900754
1725630286498977300,2.452977294921875,-1.5405894194640217,1.4078420140981673,-0.46286564104706046
1725630286508930300,2.462930419921875,-1.8017993924833833,1.1761766999930143,-0.8674787073507905
1725630286518883300,2.47288330078125,-2.108579130414128,1.9226158292979,-1.447391934198141
1725630286528837000,2.482837158203125,-2.126830826419592,1.833093963804841,-1.5875522461690008
1725630286538790100,2.4927900390625,-1.9611662169665096,1.423407832020521,-1.5289906054764986
1725630286548743200,2.5027431640625,-1.5182845025449991,0.9708628017187118,-1.4305672022558749
1725630286558697200,2.512697265625,-1.1089232918661087,0.9939625222772359,-1.3595423858314752
1725630286568650200,2.522650146484375,-0.83593987894468,1.0993114869773388,-1.674244441194087
1725630286578603300,2.532603271484375,-1.0878010088603942,1.5154635999053716,-1.810120499974489
1725630286588556300,2.542556396484375,-0.8757862247079611,1.5686854870051146,-1.855945847082138
1725630286598510300,2.55251025390625,-0.3353565747261047,1.5428408516526222,-1.2530968580663204
1725630286608463400,2.56246337890625,-0.013028992921113968,1.8378963956505059,-1.0588538043826818
1725630286618416400,2.57241650390625,-0.3135813077043742,1.8614169719696043,-0.4136120730563998
1725630286628369200,2.582369140625,-0.18459610441625118,1.353031981024146,-0.396654070123285
1725630286638323200,2.5923232421875,-1.0337755502928048,1.1722621568977831,-0.12451821394190192
1725630286648276000,2.60227587890625,-1.1851332558434455,0.39676176828145976,-0.232350812151283
1725630286658229000,2.61222900390625,-1.1316693766813724,-0.20464286714494226,-0.035844635841250416
1725630286668182000,2.62218212890625,-0.8989414017807692,-0.5303682746946812,-0.1665241488918662
1725630286678136000,2.632135986328125,-0.9863683408211916,-0.21447277176380156,-0.444143697181344
1725630286688089000,2.642089111328125,-1.4195190078884363,-0.03835691092312336,-0.8091849238142371
1725630286698042000,2.6520419921875,-1.546121773019433,-0.26213351760506626,-0.6176140119493008
1725630286707996200,2.66199609375,-1.6595558444976806,-0.04803133271932602,-0.4988116914361715
1725630286717949200,2.67194921875,-1.3709475769430397,-0.9922422743558883,-1.0014211677201093
1725630286727902200,2.681902099609375,-1.197983969588205,-0.9502034600496292,-1.5100401135519146
1725630286737855200,2.691855224609375,-1.09996205984056,-1.1022943021804095,-1.7190410297758876
1725630286747809300,2.701809326171875,-0.8680061652909964,-1.277329382047057,-1.7296766978196798
1725630286757762300,2.71176220703125,-0.7642126133393495,-0.8674901055276394,-1.8232621594898402
1725630286767715300,2.72171533203125,-1.1254793629348276,-1.0499404300868511,-1.5646503862701355
1725630286777668400,2.73166845703125,-1.1719004109133033,-1.3767992255806922,-0.749333097180724
1725630286787622100,2.7416220703125,-1.2123025639284402,-1.552175666230917,-0.03910392989814281
1725630286797575200,2.7515751953125,-1.0415588976453989,-2.03345345454216,0.40539603337496516
1725630286807528200,2.761528076171875,-1.1739601199220866,-2.2161808424770832,0.8263146300524473
1725630286817482200,2.771482177734375,-1.0984474905591457,-2.5101211187094448,0.9673822661265731
1725630286827435300,2.781435302734375,-1.0208459260929375,-2.41689864513278,1.0026333199888466
1725630286837388300,2.79138818359375,-1.10843580061011,-2.4083827457219362,1.4002569657966493
1725630286847341300,2.80134130859375,-1.0741220275979488,-2.1808581846833226,1.5913184668347238
1725630286857295400,2.81129541015625,-0.9335165291428565,-1.9617174211084842,1.9366826408341526
1725630286867248400,2.821248291015625,-0.7403962689440697,-1.7410703446239233,2.393262918001413
1725630286877201400,2.831201416015625,-0.27423078263401984,-1.2147498840153217,2.4591049249604344
1725630286887154200,2.841154296875,0.05080503521636128,-0.819047269397974,2.425337972176075
1725630286897108200,2.851108154296875,0.11676979177221655,-0.3716121294558048,2.394693535326421
1725630286907061000,2.86106103515625,0.23200725941061973,-0.3171446262091398,2.0810393815815447
1725630286917014000,2.871013916015625,0.3723182318985462,-0.4795815057873726,1.54988521720618
1725630286926967000,2.880967041015625,0.6024374856054783,-0.21188860048949718,0.8322486962765455
1725630286936921000,2.890921142578125,0.43741994188427924,-0.3350298269897699,0.36668168731629847
1725630286946874000,2.9008740234375,0.894526727143675,0.20959727468192577,-0.12268091551214456
1725630286956827100,2.9108271484375,1.1745669267088175,0.3325117066890001,-0.2578700149416923
1725630286966781200,2.92078125,0.9887474179774522,-0.13501929582059383,-0.07205693595111369
1725630286976734200,2.930734130859375,0.925830066293478,-0.46084582565724846,-0.20079145241379737
1725630286986687200,2.940687255859375,0.5882447096019983,0.38551615164577957,0.48517596479356284
1725630286996640300,2.95064013671875,0.001979191118478775,0.8775771997779607,0.5613584562420845
1725630287006594300,2.96059423828125,-0.399213837608695,0.8707827173322439,0.5837117423474788
1725630287016547300,2.97054736328125,0.43990372152402996,0.42059623285531994,0.6175786483749747
1725630287026499600,2.98049951171875,0.9562252045571803,0.8612228618264198,0.010379062934219837
1725630287036452600,2.99045263671875,-0.441736051517725,1.5958803679227829,-0.7740627570286392
1725630287046406400,3.000406494140625,-0.24061229840964077,1.4405477673918008,-0.6855342864871025
1725630287056359400,3.010359375,0.6990145303070545,1.4694541284024714,-0.2608458158820867
1725630287066312400,3.0203125,-0.8566236974678934,2.279538339143991,-0.6997367071017623
1725630287076265500,3.030265380859375,-1.8191075240284202,1.9479612829566,-0.9018681759476661
1725630287086219500,3.040219482421875,-0.5157125573545694,1.2011258478105067,-0.4397834561452269
1725630287096172500,3.050172607421875,0.5694263196244835,0.6097568687081336,0.08417056759297847
1725630287106125600,3.06012548828125,0.32160935053303835,0.13270108200609684,0.35025369960665703
1725630287116079600,3.07007958984375,0.398448260063678,-0.3929518546044826,0.5883019927471875
1725630287126032600,3.08003271484375,0.7163344984203577,-0.7193588146775961,0.9589350480377673
1725630287135985700,3.089985595703125,1.0897972241789102,-0.4405488875597715,1.791308247476816
1725630287145938700,3.099938720703125,1.3478551629081368,-1.4810428593873977,2.1092048610970378
1725630287155892700,3.109892822265625,1.6274682231023907,-1.8658067313611506,1.6780872342273592
1725630287165845800,3.119845703125,1.0657099538877606,-1.6103455311268566,1.1639996477261185
1725630287175798500,3.129798583984375,1.4405477673918008,-1.7105477805882692,1.0729691312357783
1725630287185751600,3.13975146484375,1.3484224414020776,-1.5895307066351174,0.6150017836242914
1725630287195705600,3.14970556640625,0.8170102106124162,-1.7942127367466687,0.13439181157201527
1725630287205658600,3.15965869140625,0.678464786492288,-2.4232126505851745,0.25447949572056533
1725630287215611600,3.169611572265625,-0.4477668561145663,-2.039579828467965,-0.7068830717250705
1725630287225564700,3.179564697265625,-1.2074039051666856,-1.080004144439101,-0.9713009008750318
1725630287235518700,3.189518798828125,-0.8855959633216262,-0.33046646459698675,-0.5719847719356417
1725630287245471700,3.1994716796875,-0.7716340685769915,0.47615854560136794,-0.8953940114974975
1725630287255424500,3.209424560546875,-0.808517399816215,1.4805881013572215,-1.787434913174808
1725630287265378800,3.21937890625,-0.9578492986276745,1.7149539065927266,-1.9616054851666092
1725630287275331800,3.229331787109375,-0.526666497567296,1.8929384839147327,-1.9874986358359454
1725630287285284600,3.23928466796875,-0.5808054995119571,2.2597294768244027,-1.9648297079101205
1725630287295237600,3.249237548828125,-0.6935606488153339,2.031428086194396,-1.2929571592897176
1725630287305191400,3.25919140625,-0.2908592613518238,1.559079454270005,-0.5708996070474386
1725630287315144400,3.26914453125,-0.2986240501344204,1.4521411745518444,-0.5902271155908704
1725630287325097500,3.279097412109375,-0.5234975121423602,1.683416028034687,-0.5339104773461818
1725630287335050500,3.289050537109375,-0.8704466172456741,1.7294652470260858,-0.2670207051247358
1725630287345004500,3.299004638671875,-1.1795457380346954,0.8324439265877008,0.07209960604906082
1725630287354957600,3.30895751953125,-1.2648800887100398,0.39626609371900556,0.1911249216631055
1725630287364910600,3.31891064453125,-1.246139001752436,1.188700666001439,0.12165595637857914
1725630287374863600,3.328863525390625,-0.5293873008333146,1.547370896297693,0.04543693231195211
1725630287384817700,3.338817626953125,0.23818521739318965,1.6022218459039925,0.22015432453155517
1725630287394770700,3.348770751953125,0.49309345991984005,1.24552554602921,0.06503156735897064
1725630287404723700,3.3587236328125,-0.17695055809915064,1.4661176774561404,-0.3776706988424062
1725630287414677500,3.368677490234375,-0.6908608883373439,1.4531751937747002,-0.6334191915854811
1725630287424630500,3.378630615234375,-0.8328945929646492,1.1509651018470526,-0.4025365522906184
1725630287434583600,3.38858349609375,-0.715571112832427,1.0861772801160812,-0.41707244264334437
1725630287444536600,3.39853662109375,-0.23007336873859166,1.0104448705226183,-0.6085118370831012
1725630287454490600,3.40849072265625,-0.21208032366931437,0.4595534477591514,-0.03432107953578233
1725630287464443600,3.418443603515625,-0.3124237351670861,0.21648235802054405,-0.12529402061998843
1725630287474396700,3.428396728515625,-0.8902917199224233,-0.5328156678467989,0.17287234887480735
1725630287484349700,3.438349609375,-1.4584206932127475,-1.138272793534398,0.28339140968918797
1725630287494303700,3.4483037109375,-1.814882015287876,-1.5987468632698059,0.5008759304895997
1725630287504256800,3.4582568359375,-1.3776830226778982,-2.1590660395920276,0.8180472985751926
1725630287514209500,3.46820947265625,-0.7701162113599479,-1.180405131343007,1.667168803719431
1725630287524162600,3.47816259765625,-0.06052841072082519,-2.039586842730641,1.2759030025057494
1725630287534116600,3.48811669921875,-0.4058649660609662,-2.5375901403933763,0.545885285039246
1725630287544069600,3.498069580078125,-1.6857513391144572,-3.585785772639513,-0.01967237645834684
1725630287554022700,3.508022705078125,-1.7051795315533875,-2.1661118664503096,0.13184329613298176
1725630287563975700,3.5179755859375,-0.9202220171533524,-1.5398767411500214,0.10992913209721446
1725630287573929500,3.527929443359375,-0.2400602174848318,-1.1376093611896037,-0.09168328131064772
1725630287583882500,3.537882568359375,-0.03915872882530093,-0.9454828612685203,-0.5312605473592877
1725630287593835500,3.54783544921875,-0.495461211964488,-1.371493520388007,-1.0067866402760148
1725630287603789600,3.55778955078125,-0.7033861695200204,-1.2217764216512441,-1.3460573197059333
1725630287613742600,3.56774267578125,-0.7606329282216727,-1.1045312674522398,-1.3201450259447096
1725630287623695600,3.577695556640625,-0.8350759555917233,-1.2814572756320237,-1.352677760758996
1725630287633648600,3.587648681640625,-0.5063642987728119,-1.1136281816214322,-1.3862839700236915
1725630287643602700,3.597602783203125,-0.32757651530914006,-1.1099848566830157,-1.3889923521995544
1725630287653555700,3.6075556640625,-0.23927571604363618,-1.1547545572578906,-1.4702831265725194
1725630287663508700,3.6175087890625,-0.10969313138425349,-1.0874410164415835,-1.392377902984619
1725630287673461800,3.627461669921875,-0.10841416095700114,-0.9864175137251615,-1.3223667936474084
1725630287683415600,3.63741552734375,0.04820668928623199,-0.6705009680062533,-1.2214927093390375
1725630287693368600,3.64736865234375,0.3038905923604965,-0.4408978471279144,-0.9457719073429703
1725630287703321600,3.657321533203125,0.4927437696993351,-0.06436755049228668,-1.070557247788459
1725630287713274600,3.667274658203125,0.7224643794775009,-0.07617313909828663,-0.8943533433381468
1725630287723228700,3.677228759765625,0.736554279628396,-0.19815292060375211,-0.3384577556118369
1725630287733181700,3.687181640625,0.47399110190179194,0.3042255234032869,0.013659765105322002
1725630287743134500,3.697134521484375,0.03245850053429603,0.949769160285592,-0.2171975936178118
1725630287753087500,3.70708740234375,-0.10269169165696948,0.9344722224324941,0.6123175129763782
1725630287763041800,3.717041748046875,0.36061672472152856,0.9556716623276471,0.43517457411028443
1725630287772994600,3.72699462890625,0.6134276661753654,0.8948381311804056,0.26965558367297054
1725630287782947600,3.736947509765625,0.7436831085950135,1.4289876779794692,-0.4082331564970314
1725630287792901600,3.746901611328125,-0.17648473068568854,1.647535151836276,-0.5022355284050106
1725630287802854700,3.756854736328125,-0.33553773997928943,1.6868407417863607,-0.7725606819026172
1725630287812807700,3.7668076171875,-0.7568238182622938,1.8570780659824608,-0.4171437543138861
1725630287822760700,3.7767607421875,-0.8197797483909874,1.3478823431760072,-0.7389206434335559
1725630287832714500,3.786714599609375,-0.44144722463898356,0.9256383431136608,-0.792920675298944
1725630287842667500,3.79666748046875,-0.10582768812775611,0.7588011827498674,-0.9961614205610007
1725630287852620500,3.80662060546875,0.036674583859369156,0.3399146764218807,-0.6515287026412785
1725630287862573600,3.816573486328125,0.05140161287002265,-0.0758253485739231,-0.3237638982184231
1725630287872527600,3.826527587890625,0.13803659781515598,-0.5237433035969734,0.1527396614283323
1725630287882480600,3.836480712890625,-0.05657930776886642,-1.0063660767763853,0.9001017507970333
1725630287892433700,3.84643359375,0.3916134456075728,-1.3761556669801474,1.27143520944193
1725630287902386700,3.85638671875,0.4360802907783538,-1.0004512997746466,1.2643297613509
1725630287912340700,3.8663408203125,1.2234008810479193,-1.2161492294192313,2.2970804255753756
1725630287922293800,3.876293701171875,1.7804010690152645,-0.392328169748187,2.5095173075973984
1725630287932246800,3.886246826171875,1.1507703829925506,-0.22039514755010603,2.382021539149433
1725630287942199800,3.89619970703125,0.6418050348758697,-1.2338584891110658,1.9511197469875214
1725630287952153600,3.906153564453125,1.0890204676527528,-1.5958973190575838,1.2928354326061904
1725630287962106600,3.916106689453125,0.8941928920794278,-1.062993388405442,0.6054737845614552
1725630287972059600,3.9260595703125,0.18260230025053023,-0.6952800199538469,0.1787149374231696
1725630287982013700,3.936013671875,0.19989764537923038,-0.925891441091895,0.02922667900621891
1725630287991966700,3.945966796875,-0.2001362033754587,-0.5106710560560226,-0.490277525716275
1725630288001919500,3.95591943359375,-0.6890887640982866,-0.13198445816934107,-0.5003751413606107
1725630288011872500,3.96587255859375,-0.1687660095345229,0.2910504000097513,-0.3907379779472947
1725630288021826600,3.97582666015625,0.5382107318233699,0.7226467503070831,-0.5346665564104914
1725630288031779300,3.985779296875,0.9008101182620972,0.9502209957063198,-0.751280431856215
1725630288041732400,3.995732421875,0.42619953275509176,1.246646659013629,-1.1276092145703733
1725630288051685400,4.005685302734375,-0.2101712021123618,1.268228376224637,-1.4329421146936714
1725630288061639400,4.015639404296875,-0.7488163798302412,1.1261042168349027,-1.213965017247945
1725630288071592400,4.025592529296875,-0.7736690815359354,1.3586965826570987,-1.0836373863749205
1725630288081545500,4.03554541015625,-0.6750549049835651,1.8199930746912956,-1.1022824656121433
1725630288091498500,4.04549853515625,-0.5279945313006639,2.109137348818779,-1.0461359232373535
1725630288101452300,4.055452392578125,-0.6720575497984885,2.5630256104230877,-1.0559870167747138
1725630288111405300,4.0654052734375,-0.9665244071882217,2.5359435422301293,-0.8728700450003146
1725630288121358300,4.0753583984375,-0.8643114754915237,2.1510545825719833,-0.697851624007523
1725630288131311400,4.085311279296875,-0.7704086184352635,2.0202613800138236,-0.6140238785028457
1725630288141265400,4.095265380859375,-0.5443278264641761,1.6007172865599393,-0.8779876802749931
1725630288151218400,4.105218505859375,-0.7895119628340005,0.9504203176707029,-1.2688823100887239
1725630288161171500,4.11517138671875,-0.6453513291805982,0.2591828511059284,-1.2989105147361755
1725630288171125500,4.12512548828125,-0.8171270419251173,0.0781523302167654,-1.5903282867535948
1725630288181078500,4.13507861328125,-0.7498906579982489,-0.11173311277925968,-1.136993567378819
1725630288191031300,4.14503125,-0.3648070525508374,-0.08733458458185195,-0.7778402297407389
1725630288200984300,4.154984375,-0.08056056040227413,-0.2473883684158325,0.17312413167878984
1725630288210938000,4.164938232421875,-0.06485745290108025,-0.4598258349597454,0.36879780268743634
1725630288220891100,4.17489111328125,-0.6720949591994285,-0.8592278886169195,0.24710633660405873
1725630288230844200,4.18484423828125,-0.935725364298746,-1.4492799399018286,-0.07408040460273622
1725630288240797200,4.194797119140625,-0.7003804848980159,-1.798915799871087,-0.32516178231760856
1725630288250751200,4.204751220703125,-0.6848456466358155,-1.4471616325736045,-0.5794828726060688
1725630288260704300,4.214704345703125,-0.1767214255183935,-1.2901368411719798,-0.5124887730024754
1725630288270657300,4.2246572265625,-0.2504172877829522,-1.000952235034108,-0.6641223728850484
1725630288280610300,4.2346103515625,-0.5903693736057728,-0.8850620025753975,-0.08957154985368251
1725630288290564400,4.244564453125,-1.2673188601642846,-1.1089788945108652,0.2534302789285779
1725630288300517400,4.254517333984375,-1.5111112499147652,-1.4396768297761677,0.769956490753591
1725630288310470400,4.264470458984375,-1.072337555333972,-1.4674983181595802,1.028421841239929
1725630288320423400,4.27442333984375,-0.5785854853749275,-1.4912889435917138,1.5430504027500749
1725630288330377200,4.284377197265625,-0.3123063923977315,-1.6237492025792597,2.137756125059724
1725630288340330200,4.294330322265625,0.01726217351146042,-1.6170108342349527,2.3074454599842427
1725630288350283300,4.304283203125,-0.2564642397969961,-1.3787427608639,2.347300208249688
1725630288360236300,4.314236328125,-0.4754064120598137,-1.2271171981573104,2.1724252873808143
1725630288370190300,4.3241904296875,-0.647897506532073,-1.2836375422805546,1.986151312880218
1725630288380143400,4.334143310546875,-0.22090134350657462,-0.8377706745684146,2.2191244947135447
1725630288390096400,4.344096435546875,0.9665677348732947,-0.35093525213003157,2.790358156020939
1725630288400050400,4.354050537109375,1.3583620900057256,0.4875625676691532,2.341684706455469
1725630288410003500,4.36400341796875,0.33268823229968547,0.7677829461067914,1.8060916828498244
1725630288419956200,4.373956298828125,0.01836114772930741,1.8847113383173941,0.9552546059593557
1725630288429909200,4.3839091796875,-0.6428207877896726,1.8905670786082744,0.41924277241975066
1725630288439863600,4.393863525390625,-1.0546176281176507,2.424464696472883,-0.2883595534905791
1725630288449816300,4.40381640625,-1.4156808910302816,2.403964929279685,-0.7152677459716796
1725630288459769300,4.413769287109375,-0.631973230560869,2.429695582863688,-0.3489256658732891
1725630288469722400,4.423722412109375,-0.37686274346038695,2.3195161292672157,-0.4943047354057431
1725630288479676200,4.43367626953125,-0.40054464782103893,2.200580537763238,-0.9031059010490775
1725630288489629200,4.443629150390625,0.08859627508074044,1.7020634453594683,-0.9927698053613304
1725630288499582200,4.453582275390625,0.7176157704025506,1.1849433592945338,-0.44833208878189323
1725630288509535200,4.46353515625,0.6502106057800352,0.8062935862869024,0.08412088323235511
1725630288519489300,4.4734892578125,0.4995413208849728,0.5310206011235714,0.6800465027257799
1725630288529442300,4.4834423828125,0.895516176572442,0.26615561272799965,1.1016548352330922
1725630288539395300,4.493395263671875,1.4416792556397615,-0.4079764052569866,1.536548473510146
1725630288549348400,4.503348388671875,1.3771060995727777,-0.7694359740108251,1.3802917438715696
1725630288559302400,4.513302490234375,0.5434603959798813,-0.5552198073565959,1.1116036900565027
1725630288569255400,4.52325537109375,0.5474878979302943,-0.9912363121837376,1.3216320496320724
1725630288579208400,4.53320849609375,0.900133899500966,-0.7435749720454216,1.4063774945035576
1725630288589161500,4.543161376953125,0.2955520953431725,-0.27785423382818697,0.43331016847789283
1725630288599115300,4.553115234375,0.3137035458445549,-0.535586886125803,0.13321575352996587
1725630288609068300,4.563068359375,1.2880305165424941,-0.3534662319123745,0.15772241827696562
1725630288619021300,4.573021240234375,1.325407184256613,-0.09814882406294345,-0.010801379999518393
1725630288628975400,4.582975341796875,0.6684890436619519,-0.30272096405923365,-0.18139555480927227
1725630288638928400,4.592928466796875,1.2270301043957472,-1.078072299593687,0.2763759779691696
1725630288648881400,4.60288134765625,1.7599273130461572,-1.2271283040732144,0.5509422761678695
1725630288658834200,4.612834228515625,1.1484282768458127,-1.3256471304923296,0.3012956074312329
1725630288668788500,4.62278857421875,0.9054968878388404,-1.7105325830191374,0.40829117029458284
1725630288678741200,4.6327412109375,0.9072335023730993,-1.8841402604311703,0.9202075502365827
1725630288688694300,4.6426943359375,-0.21988895159363744,-1.8474118274927138,0.6746046039327979
1725630288698647300,4.652647216796875,-0.5564011260956525,-1.6482237186223267,0.42397652294337745
1725630288708601300,4.662601318359375,-0.04120119443833828,-0.93328622751832,0.4351648564338684
1725630288718554400,4.672554443359375,-0.3354693874508142,0.6466010369807481,-0.5401306670352817
1725630288728507400,4.68250732421875,-1.5443042022034525,1.4923860911786555,-1.8247016907736657
1725630288738460400,4.69246044921875,-0.653195905201137,1.6079285331130027,-1.5200532657831907
1725630288748414200,4.702414306640625,-0.28578385778367515,1.9434101955235004,-1.0087804444417356
1725630288758367200,4.7123671875,-0.7881643476173281,2.3944079963833094,-1.8344956472963094
1725630288768320300,4.7223203125,-0.47752515777945514,1.7212579751729964,-2.2232509269937872
1725630288778273300,4.732273193359375,0.36888913423269987,1.300097678694129,-1.5324758172437547
1725630288788227300,4.742227294921875,0.6089566582411527,1.0184265169262885,-1.0185293927788734
1725630288798180400,4.752180419921875,-0.14881693502664564,0.2598439453631639,-0.7382061384886502
1725630288808133400,4.76213330078125,0.595081423754245,-0.7559954776793718,0.1585661756247282
1725630288818086400,4.77208642578125,0.5558522600412369,-0.8981441869884729,0.2928057192444801
1725630288828040400,4.78204052734375,0.07686886627748608,-0.7347562902957201,-0.2548857384338975
1725630288837993500,4.791993408203125,0.09488017765581608,-0.8404308336883782,-0.663539312300086
1725630288847946500,4.801946533203125,0.3542600126385689,-0.7526140185475348,-0.35319355245083567
1725630288857899500,4.8118994140625,-0.639584290086478,-0.14721476052701474,-0.14020751211345195
1725630288867853300,4.821853271484375,-1.7199503997057675,0.2552536949634552,-0.14012918618023396
1725630288877806300,4.831806396484375,-1.734224131990969,-0.20262159045040606,0.1606312914609909
1725630288887759000,4.841759033203125,-1.0517056861937046,-0.5058183553278446,0.20295038401335477
1725630288897712000,4.851712158203125,-0.9985662166804075,-0.1208861410498619,-0.016124036327004432
1725630288907666400,4.86166650390625,-1.320158616078645,0.2670394098252058,0.2664879134222865
1725630288917619200,4.871619140625,-1.0288150783412158,0.9268670081257819,1.0909916946604847
1725630288927572200,4.881572265625,-0.3365488532505929,1.6167238339871166,1.1175699049845338
1725630288937526300,4.8915263671875,-0.1415500127635896,1.5692320149719714,0.25732114888727664
1725630288947479300,4.901479248046875,-0.6468886217504739,1.3168132511734962,-0.04450169728845357
1725630288957432300,4.911432373046875,-0.8342997835874557,0.5773433763593435,0.17960954817533492
1725630288967385300,4.92138525390625,-0.8515437638550997,0.04254501026272774,0.351471550963819
1725630288977339400,4.93133935546875,-0.3740723820894956,-0.12832535113990307,0.6583128098234534
1725630288987292400,4.94129248046875,-0.49699806614294645,-0.4125818532258272,0.9071297497376799
1725630288997245200,4.9512451171875,-0.199120158200711,-1.019177627554536,1.0401692699179053
1725630289007198200,4.9611982421875,0.18245982303991912,-1.2285264804333447,1.254696840608865
1725630289017152300,4.97115234375,0.19610417138040065,-0.6133645378112793,1.0906349901773036
1725630289027105500,4.98110546875,0.1771399431914091,-0.40833588621914385,0.44952509795874357
1725630289037058300,4.991058349609375,-0.4282959935776889,-0.43394262116253374,0.10368673057630658
1725630289047011300,5.00101123046875,-0.6160181210599839,-0.6280494812458753,0.14477832716032862
1725630289056965400,5.01096533203125,-0.4125226703844964,-0.766910839447379,0.048505672232806676
1725630289066918400,5.02091845703125,-0.18120222419425844,-0.1007698202162981,0.23264701861888168
1725630289076871400,5.030871337890625,0.1867985828965902,-0.038228900629282,0.06477379320561885
1725630289086824400,5.040824462890625,-0.09840484465062618,0.23724866719543933,0.09977277200296521
1725630289096778500,5.050778564453125,0.023837971705198288,0.1944850457459688,-0.1782930587492883
1725630289106731500,5.0607314453125,-0.40708676294088364,0.133996967035532,-0.9016874125532806
1725630289116684500,5.0706845703125,-0.7158545328836887,0.5331821630716324,-0.8879166613541543
1725630289126637600,5.080637451171875,0.15805354992747306,0.9390040206432342,-0.542523845782131
1725630289136591400,5.09059130859375,0.6487023931741714,0.8182944052040576,-0.7501131416425109
1725630289146544400,5.10054443359375,0.54210138258636,1.315069622376561,-0.8653175837941467
1725630289156497400,5.110497314453125,-0.03636076866984367,0.6142150171607732,-1.3085375902593135
1725630289166450400,5.120450439453125,-0.7544803969413042,0.5073515562444925,-0.8209664008922875
1725630289176404500,5.130404541015625,-0.07486483297869563,0.48066287128329277,-0.3225553992114961
1725630289186357500,5.140357421875,0.552709285840392,0.8129138812094926,-0.14827362193018198
1725630289196310500,5.150310546875,0.3050556175518781,-0.1433680219709873,-0.4213610797479748
1725630289206264600,5.1602646484375,-0.0419270975600928,0.3328378699034452,0.011413812809437512
1725630289216217600,5.170217529296875,0.7994640325278043,-0.3508592642843723,-0.052798108729720114
1725630289226170600,5.180170654296875,0.8368545826368033,-0.18559563684761524,0.22349135999977587
1725630289236123600,5.19012353515625,0.24474969047531484,0.17338439005017278,0.4291068715691566
1725630289246077400,5.200077392578125,0.5738748234659433,-0.43974283187389374,0.8138922247223556
1725630289256030500,5.210030517578125,1.102742630469799,-0.6716770260483026,1.0796915713585913
1725630289265983200,5.219983154296875,1.0154178366295992,-0.34616613803207874,0.708638975481689
1725630289275936300,5.229936279296875,0.4871503336064517,-0.6009352643489837,0.6691722036205232
1725630289285890300,5.239890380859375,0.79120999892354,-0.6164718561768532,0.6206817289568484
1725630289295843300,5.24984326171875,0.9558528641134499,-0.35501053874492644,0.6092723000615835
1725630289305796400,5.25979638671875,0.9069313045561314,-0.04908697925209999,0.45822234528586264
1725630289315749400,5.269749267578125,0.6488790649153292,-0.22122516863346098,-0.2830474185571074
1725630289325703400,5.279703369140625,0.9300865546941757,-0.6589882248669863,-0.7976477768860757
1725630289335656400,5.289656494140625,0.7128618538737297,-0.3216255710154772,-0.6871927212186157
1725630289345609500,5.299609375,1.3375865746110678,-0.32567046249210835,-0.5621750333219766
1725630289355562500,5.3095625,0.9855606046348809,-0.1341138714134693,-0.561726705032587
1725630289365516500,5.3195166015625,0.708966161609441,-0.630750556898117,-0.5700698782250285
1725630289375469600,5.329469482421875,0.8237322854090482,-0.7104319963783026,-0.2099465265110135
1725630289385422600,5.339422607421875,0.6815957779943943,-0.40984804434776306,-0.3129711399167776
1725630289395375600,5.349375732421875,0.6593067892968654,-1.0116285273492336,-0.37321284265071153
1725630289405329400,5.359329345703125,0.6598626696139573,-1.166630288490653,-0.6086264033734798
1725630289415282400,5.369282470703125,0.15244389335215092,-0.7609557304352521,-0.5794315808102488
1725630289425235500,5.3792353515625,-0.5495213034540415,-0.7093477082729339,-0.4655896591834724
1725630289435188500,5.3891884765625,-0.5358354540593921,-1.0283481914818287,-0.6376042221851647
1725630289445142500,5.399142578125,-0.6299754808723926,-0.4571422949641943,-0.824006353110075
1725630289455095600,5.409095458984375,-0.7730601558573543,0.4675619821697473,-0.3654750880055129
1725630289465048600,5.419048583984375,-0.38809623126685616,1.5166940184831619,0.203861945900321
1725630289475001300,5.42900146484375,0.3331885830372572,1.6206506520420312,0.43046267009228467
1725630289484955600,5.43895556640625,0.14157251685634253,1.6182137802839278,0.6717690882459283
1725630289494908400,5.448908447265625,-0.43232919461652636,1.496288943836093,0.023212094891816377
1725630289504861400,5.458861328125,-1.0352566556960343,0.9313543826729058,-0.7706520718023181
1725630289514814500,5.468814453125,-0.7905471511006354,0.5531996997058392,-0.6814759510070085
1725630289524768300,5.478768310546875,-0.002467266896367073,0.7092208670228719,-0.5477234602518379
1725630289534721300,5.48872119140625,-0.35459603965990244,1.6624761158585548,-1.0366444567926227
1725630289544674300,5.49867431640625,-1.3837578125469385,1.7243740613669156,-1.556873176397383
1725630289554627300,5.50862744140625,-1.5672101537555456,0.9963713369846343,-1.844228667411953
1725630289564581400,5.518581298828125,-0.911718392702192,0.23740122740864752,-1.3177970015138387
1725630289574534400,5.528534423828125,-0.5538270378239453,0.3363619523763656,-1.5505730533398687
1725630289584487400,5.5384873046875,-0.7905245008774101,0.36120121007859707,-1.6360713624052703
1725630289594441500,5.54844140625,-0.6387697588331998,0.14676877032518387,-1.410638366818428
1725630289604394500,5.55839453125,-0.7807071634791791,0.020345453414320945,-0.8674769537851214
1725630289614347500,5.568347412109375,-1.5501124500907957,-0.05184592257142066,-0.6974976960033178
1725630289624300500,5.578300537109375,-1.6049772820919752,-0.7376520117372274,-0.06950286755412817
1725630289634254300,5.58825439453125,-0.9597387656360864,-1.1213725121378897,0.2905516567073762
1725630289644207400,5.598207275390625,-0.19244382224194703,-1.282969433760643,0.7306599608927965
1725630289654160400,5.608160400390625,0.271638501118496,-0.9949380893111228,0.9376143198505044
1725630289664113400,5.618113525390625,0.03800933959446847,-0.6031517713546752,0.8052621974125505
1725630289674067500,5.6280673828125,0.0003718289870768785,-0.6581546966522932,1.0337532653957604
1725630289684020500,5.6380205078125,0.003258782600238919,-0.695723672068119,1.119300089778006
1725630289693973500,5.647973388671875,-0.5207575657844543,-0.40430619231164455,1.030022262173891
1725630289703926500,5.657926513671875,-0.0951180049996823,-0.40739305241107937,1.246306759534776
1725630289713880600,5.667880615234375,0.07790273936986923,-0.10604045409560203,0.9678808632984757
1725630289723833600,5.67783349609375,-0.8562566177211701,-0.4304758218348026,0.3801668995723128
1725630289733786400,5.687786376953125,-0.38218846852779387,-1.3874480453670024,0.6069178458899259
1725630289743739400,5.697739501953125,0.6091331838518381,-1.1983493688344955,1.0602946508407591
1725630289753693400,5.707693359375,-0.021080635821074247,-0.743451053404808,1.2406214073747395
1725630289763646500,5.717646484375,-0.3223164758890867,-0.7690010897248983,1.3228528235986827
1725630289773599500,5.727599609375,-0.05500833212509751,-0.5600123023301362,1.2727014299854635
1725630289783552500,5.737552490234375,-0.02778349446058273,-0.3458797223061323,1.449400351411104
1725630289793506300,5.74750634765625,0.07650529366210103,-0.1710188299626112,1.4696724473282694
1725630289803459300,5.757459228515625,0.9494400744616984,0.08205985904932021,1.2465107576742767
1725630289813412400,5.767412353515625,0.3399275359034538,0.502483073425293,0.6625581923082471
1725630289823365400,5.777365478515625,-0.20002631326019762,0.8119552653104066,0.11692045228928327
1725630289833319400,5.7873193359375,0.16749328618496656,0.9014157560050488,0.03261135300844908
1725630289843272400,5.7972724609375,0.2945839809633791,1.6220751318871973,-0.35289077011197806
1725630289853225500,5.8072255859375,-0.09377601580619811,2.0518226394474506,-0.9296136764854193
1725630289863178500,5.817178466796875,-0.3222206142991781,1.773208527162671,-1.5044520842865108
1725630289873132500,5.827132568359375,-0.26132658513635393,1.2977841410547495,-1.7812533019304275
1725630289883085600,5.83708544921875,-0.09860124400556088,1.0330553462594747,-1.4582096808105707
1725630289893038600,5.84703857421875,0.22545243093967438,0.9881652341753244,-0.9211758107468485
1725630289902991600,5.85699169921875,0.051987961390614505,0.7430038941591978,-0.5358005288764834
1725630289912945400,5.8669453125,-0.08571692025214434,0.25419921747446056,-0.29810353339165446
1725630289922898400,5.8768984375,0.46721389938443897,-0.42687808960378165,0.34682460194081066
1725630289932851500,5.8868515625,0.5091147665247321,-0.4588210418313741,0.6857058436617255
1725630289942804200,5.89680419921875,0.7494459099054336,-0.5334674097537994,0.7539183791443705
1725630289952758500,5.906758544921875,1.2253393748298287,-0.47042497038543224,0.8904016100376844
1725630289962711300,5.916711181640625,0.9366399218603968,-0.4806383213639259,0.6887786752358078
1725630289972664300,5.926664306640625,0.8021028565987944,-0.40553777993321416,0.6585401888385415
1725630289982617300,5.936617431640625,0.8944152295932173,-0.2961830867230892,-0.0530620203629136
1725630289992571400,5.9465712890625,0.7442498025670647,-0.1865823097974062,-0.43402650005370375
1725630290002524400,5.9565244140625,0.6826724673151969,0.33409926814138885,-0.5923743567526341
1725630290012477400,5.9664775390625,0.6099269645780324,0.6817074216753244,-0.5130447994500398
1725630290022430500,5.976430419921875,0.8246984270274639,0.9113982208371162,-0.17220716296434402
1725630290032385000,5.986385009765625,0.2063537627160549,0.3175099523901939,-0.11386077245771885
1725630290042338000,5.996338134765625,0.5177832261487841,-0.8629571382731199,0.34352819074392316
1725630290052291000,6.006291015625,1.1486878045648337,-1.289593820336461,0.887614025145769
1725630290062245000,6.0162451171875,0.7471078223466873,-1.4162182127773761,1.3488164091557264
1725630290072198100,6.0261982421875,0.685799951685965,-1.8426532347887754,1.5758821205109357
1725630290082151200,6.036151123046875,0.322496800892055,-2.270749468010664,1.581036142273247
1725630290092104000,6.04610400390625,0.25058482636958357,-2.2729870178043843,1.7720307155549526
1725630290102058200,6.056058349609375,0.47975773913711306,-1.648859093916416,1.5248434226691723
1725630290112011300,6.06601123046875,0.3427560373276472,-0.7388350840419531,0.6327502062827348
1725630290121964000,6.075964111328125,0.3157628164619207,-0.07962006468176841,0.3188835788309574
1725630290131917000,6.0859169921875,-0.019229016605019567,0.4150824378699064,0.05455898092240095
1725630290141870800,6.095870849609375,-0.7126765604346991,0.3670458444535732,-0.8450847969740629
1725630290151824000,6.105823974609375,-0.6141100954815745,0.2651706933438778,-1.203587269487977
1725630290161777000,6.11577685546875,-0.05263005868643522,0.8760486750364304,-1.134093169762194
1725630290171730000,6.12572998046875,-0.2550911978781223,1.7621160552620887,-1.298236268736422
1725630290181684000,6.13568408203125,-0.3475565694771707,1.7550702284038067,-1.2702452690050006
1725630290191637000,6.145636962890625,-0.257117150747776,1.5114917736649511,-0.7903083739086985
1725630290201590000,6.155590087890625,-0.803772835637629,1.2206471253603697,-0.3183925804436207
1725630290211543000,6.16554296875,-0.611222265085578,-0.5247352372437715,0.21541648235470054
1725630290221497000,6.1754970703125,0.20038301774337886,-1.4854729507893323,0.7106117368593812
1725630290231450000,6.1854501953125,-0.02079962692260742,-0.9365116193056106,0.6579413461625576
1725630290241403100,6.195403076171875,-0.15749460087046027,-0.9261100522786379,0.47552404709011314
1725630290251356200,6.205356201171875,0.2378141921237111,-1.2581038725733755,0.32870033170729873
1725630290261310200,6.215310302734375,0.16573299851417542,-0.855202286362648,0.25660510957241056
1725630290271263200,6.22526318359375,-0.26104572236835955,-0.03191723326444626,0.13704524869024753
1725630290281216300,6.23521630859375,-0.13655337352007627,-0.20000293238461017,-0.0027536826223134993
1725630290291169300,6.245169189453125,0.2719432562187314,-0.20937515636384485,-0.06120441028624773
1725630290301123000,6.255123046875,-0.3797743931233883,0.4870581252783537,-0.08060673763155937
1725630290311076000,6.265076171875,-0.5314030245698989,0.6612678602367639,-0.4630664243161678
1725630290321029000,6.275029052734375,-0.30410218928456306,0.503836826121807,-0.6386100382268428
1725630290330982000,6.28498193359375,-0.26653423678204413,1.018766708666086,-0.550620789128542
1725630290340936200,6.294936279296875,-0.5773375311404466,1.3145534895479678,-0.6365346932575107
1725630290350889000,6.304888916015625,-1.1790559086911379,0.5522293933689594,-0.9034729807958006
1725630290360842000,6.314842041015625,-1.567881623276323,-0.6487134990900755,-0.9702905547887086
1725630290370795000,6.324794921875,-1.1307761541686951,-1.2141086635023355,-0.4932414900884032
1725630290380749000,6.3347490234375,-0.03310673530995845,-0.6470967115432024,-0.28783786770403386
1725630290390702000,6.3447021484375,0.44302126902267336,0.25804361794292924,-0.555630872375518
1725630290400655000,6.354655029296875,0.6154461663909256,1.145769871291518,-0.4106006162807345
1725630290410608000,6.364608154296875,1.0864578506231308,2.250429733559489,-0.518124879193306
1725630290420562000,6.37456201171875,1.1541862558506428,2.4306425083249805,-1.4010929782293735
1725630290430515000,6.384514892578125,-0.21361805463060735,2.3103028952419757,-1.7478199650146067
1725630290440468000,6.394468017578125,-1.219434973091632,1.2508452797472476,-1.2453427368082106
1725630290450421000,6.4044208984375,-0.9454616723500192,0.9314297859966755,-0.3477041612543165
1725630290460375000,6.414375,-0.8391558453164994,1.1557786396086216,0.4325666566342115
1725630290470328000,6.424328125,-0.3802523858986795,1.4286696980714797,0.5556837716065347
1725630290480281000,6.434281005859375,0.4521662601172924,1.7670453283578156,0.005248129786550999
1725630290490234000,6.444234130859375,0.18382826184891163,2.048022662642598,-0.5859047223471104
1725630290500188200,6.454188232421875,-0.04889700963795185,1.702726293182373,-0.9999661466062069
1725630290510141200,6.46414111328125,-0.4494277019988745,1.266710372877121,-0.34839959617257116
1725630290520094200,6.47409423828125,-0.5838163717657328,-0.09950725293457507,0.17620748464688657
1725630290530047200,6.484047119140625,-0.26332411562912167,-1.3663327766239641,0.406122740214318
1725630290540001300,6.494001220703125,0.29697452936172486,-1.8179039934575556,0.553059998974204
1725630290549954000,6.5039541015625,0.5890951889514923,-1.260279463046789,0.9119289667129516
1725630290559907000,6.513906982421875,1.4923385987751185,-2.7537960195600983,0.5749326619558036
1725630290569860000,6.523860107421875,0.7253847239036113,-2.73920869128108,0.3635495267704129
1725630290579814000,6.53381396484375,0.19402809575870633,-2.574945180797577,0.5521725486151874
1725630290589767000,6.543766845703125,1.127406093213707,-3.0672698483020064,0.9372918098978698
1725630290599720000,6.553719970703125,2.1071178256899117,-2.063910552126169,1.6132064735159277
1725630290609673000,6.5636728515625,2.739273573210835,-1.4763035559058189,1.7059530001439154
1725630290619627000,6.573626953125,1.3753564794264732,-0.6556921059310435,0.810167797371745
1725630290629580000,6.583580078125,0.5917950955599546,-1.510576412385702,0.596053191395849
1725630290639533000,6.593532958984375,1.1129425374448298,-1.3500433206021785,1.0110426902852951
1725630290649486000,6.603486083984375,0.8770606285579502,-0.6285246975421905,1.1521402831062675
1725630290659440000,6.613440185546875,1.1380315321244299,-1.3492530470073223,1.091591706380248
1725630290669393200,6.62339306640625,0.9518833759605884,-1.3972230049282313,0.4959257607363164
1725630290679346200,6.63334619140625,0.8128821708969771,-1.4080173706650734,0.004150251547247171
1725630290689299200,6.64329931640625,0.8579138834089041,0.2688075885415077,0.08641074773520231
1725630290699253000,6.6532529296875,0.5022456114076078,1.0143944849312305,-0.9773657538719475
1725630290709206000,6.6632060546875,-0.40178412648811934,1.5739765791505573,-1.1337816195949912
1725630290719159000,6.673158935546875,-0.09494915123879909,2.489808983042836,-0.8281615730933845
1725630290729112000,6.683112060546875,-0.3386341350920498,3.933683849030733,-1.31858274506405
1725630290739066000,6.693066162109375,-0.9786280288927256,4.120871138983965,-1.2925653834931552
1725630290749019100,6.70301904296875,-0.7783014175117016,3.6814614845871922,-0.5556865480855107
1725630290758972200,6.71297216796875,0.11154971903637051,3.2799797020465133,-0.2567661453530192
1725630290768925200,6.72292529296875,0.01672843196094036,3.0423937657207247,-0.5558649733923375
1725630290778879200,6.732879150390625,-0.8292747950322925,2.3046949922323225,-0.9278405293330549
1725630290788832300,6.742832275390625,-0.9478047283448279,1.4600269593656061,-1.0801096506401895
1725630290798785000,6.752784912109375,-0.6262906548798084,0.7693968110442161,-0.7432236743897199
1725630290808738000,6.762738037109375,-0.6507740848816931,0.4989069685041904,-0.6862678614586591
1725630290818692000,6.772692138671875,-0.4316745301000774,-0.10916355455219745,-0.5502446492925286
1725630290828644900,6.782644775390625,-0.09316796691045165,-0.2634083598464727,-0.30620076899901033
1725630290838598000,6.792597900390625,-0.09016995413824916,-0.43639878214299677,-0.4866531977392733
1725630290848551000,6.802551025390625,-0.366589332857728,-1.1198831503629685,-0.8308927516229451
1725630290858505000,6.8125048828125,0.5007097801424563,-1.8622358871370552,-0.0924533889003098
1725630290868458000,6.8224580078125,0.9175859695613384,-1.654625986880064,0.5938305469103157
1725630290878411000,6.832410888671875,0.42370165152475237,-1.1447674162507055,0.7180836801752448
1725630290888365000,6.842364990234375,0.5304043689213693,-1.418816412577033,1.0053649369098245
1725630290898318000,6.852318115234375,0.4413794931650161,-0.9655483286976814,0.922846082046628
1725630290908271000,6.86227099609375,-0.17039149184450506,-0.4333592683166265,0.43304771814942356
1725630290918224100,6.87222412109375,0.027531711656600236,-0.8407347850710153,0.48004532390683885
1725630290928178200,6.88217822265625,0.3692823713339865,-1.1310633005470037,0.22906302265226838
1725630290938131200,6.892131103515625,-0.9606130642525851,-0.5608996065586805,-0.44877778672277924
1725630290948084200,6.902084228515625,-1.4400618835709988,-1.0237456661224364,-0.8002247877672314
1725630290958037200,6.912037353515625,-1.3654904805809258,-0.9430863215208053,-0.7106646360903978
1725630290967991000,6.921990966796875,-1.6296189713954925,0.16829320439100265,-0.765374131399393
1725630290977944000,6.931944091796875,-1.5479302837461233,0.0578092148900032,-0.7357564072489738
1725630290987897000,6.94189697265625,-1.096492264838144,-0.18498598051667212,-0.7700301405116915
1725630290997850000,6.95185009765625,-1.0749689998161047,-0.202942492967844,-0.8858122364208102
1725630291007804200,6.96180419921875,-1.1149078461684285,-0.3007593085974455,-0.8429197278946637
1725630291017757200,6.971757080078125,-1.1155902754746376,-0.24061668232381342,-0.47579146585464477
1725630291027710000,6.9817099609375,-0.9529781854599714,-0.0022223522245883942,-0.43348289469629525
1725630291037662700,6.991662841796875,-0.8361497953683137,-0.07755611788928508,-0.012660451869666576
1725630291047616800,7.00161669921875,-0.45523631521239877,-0.17367489742934702,0.21043547907173632
1725630291057569800,7.01156982421875,-0.869797797948122,-0.030343700337409973,0.17575228822529315
1725630291067522800,7.021522705078125,-0.8094559958405793,0.09846621944904327,0.7128308742135763
1725630291077475800,7.031475830078125,-0.2748806248448789,0.5676981806576251,1.1145979034364222
1725630291087430000,7.041429931640625,0.3945060983091593,0.780331462034583,1.7097955009162424
1725630291097382700,7.051382568359375,0.05993921265602112,0.5947223811835051,1.4668211495503782
1725630291107335700,7.061335693359375,-0.3896159881800413,-0.10375263541936874,0.9874822203472257
1725630291117288700,7.071288818359375,-0.004264817837625742,-0.29799861171245573,1.1243322387263177
1725630291127242800,7.08124267578125,-0.05980053483769297,0.35199791292548177,1.017883203829825
1725630291137195500,7.091195556640625,-0.053479076731204986,0.5745949544340372,0.992886417478323
1725630291147148500,7.1011484375,0.17394143941104412,0.6915279739439487,1.2852227656453847
1725630291157101600,7.1111015625,0.05580927324444055,0.4732803598165512,1.0078647909015417
1725630291167055600,7.1210556640625,-0.2241930785283446,-0.2295253794670105,0.8385022037133574
1725630291177008600,7.131008544921875,0.4672155068196356,-0.04124737166762352,1.0695368186995386
1725630291186961700,7.140961669921875,0.47711014723777767,0.38141631511151786,0.8718404096916318
1725630291196914700,7.150914794921875,0.4330126468360424,0.3967600147157907,0.4176560877501964
1725630291206868700,7.16086865234375,0.2830852663494646,0.376449632614851,0.05673340235203504
1725630291216821800,7.17082177734375,0.5227959397442639,0.3489583990991115,-0.5401160539880394
1725630291226774800,7.18077490234375,0.9052395520769059,0.32486323776245113,-0.8100222514212131
1725630291236727800,7.190727783203125,1.2951190134987234,0.11693126594424247,-1.0032850618958473
1725630291246681600,7.200681640625,1.0704755608543752,0.13759762187600136,-0.8770762645184993
1725630291256634600,7.210634521484375,0.9161576903238892,-0.04386018451452255,-0.7170978840082883
1725630291266587600,7.220587646484375,1.8922849884420632,-0.1404500886976719,-0.45154754369705913
1725630291276540700,7.230540771484375,1.7236679589241741,0.07903963444530963,-0.6585267448350787
1725630291286494700,7.24049462890625,1.3924983144938945,-0.5079799172759056,-0.6645651482164859
1725630291296447700,7.25044775390625,1.5821671921297906,-0.8190478539198637,-0.36402035915255543
1725630291306400800,7.26040087890625,1.1625322055220604,-1.3815624944597482,0.3586494797691703
1725630291316353800,7.270353759765625,0.2703933964282274,-1.5794430278629064,0.5649599878653884
1725630291326307800,7.280307861328125,0.941803880494833,-1.7059516849696634,1.4048089300125837
1725630291336260900,7.2902607421875,1.3877391372680663,-1.3047136480569839,1.6360452050507068
1725630291346214000,7.3002138671875,0.5112935718685389,-1.2563824556082486,1.065373561540246
1725630291356166700,7.310166748046875,0.37529052570760246,-1.871540891098976,1.2499553451702
1725630291366120700,7.32012060546875,0.37397038301974533,-1.632335244616866,1.6237746292814612
1725630291376073500,7.330073486328125,0.24140461783111095,-0.6799526869624852,1.6235831983625888
1725630291386026500,7.340026611328125,0.030495091506838795,-0.05774667104780674,1.0612447911724447
1725630291395979500,7.3499794921875,0.364422217951715,-0.18755436969995498,0.9586343115255236
1725630291405933600,7.35993359375,-0.029207097522914408,0.17542086431384085,0.367978741389513
1725630291415886600,7.369886474609375,-0.38991117173433304,0.32684067531526084,-0.49916912657171486
1725630291425839600,7.379839599609375,0.10971826582551002,0.43427346055209637,-0.5769730817422271
1725630291435792600,7.389792724609375,-0.12790537216216324,1.2472130607247351,-0.5078939925581216
1725630291445746700,7.39974658203125,-0.4237894759386778,1.5341133553177118,-0.4996259304285049
1725630291455699700,7.40969970703125,-0.2704635390549898,1.5728104579806328,-0.46780309744924303
1725630291465652700,7.41965283203125,-0.3744873926311731,1.789411473944783,-0.6489429239317774
1725630291475605800,7.429605712890625,-0.2956371432781219,1.7634738996118307,-0.4833507951930165
1725630291485559800,7.439559814453125,0.0626017098635435,1.5816940216600894,-0.22821605043411253
1725630291495512800,7.449512939453125,-0.3520768233805895,1.5675930155932902,0.005747896002233028
1725630291505465900,7.4594658203125,-0.47359600163698196,1.2020949851036071,0.21175737532526254
1725630291515419000,7.4694189453125,-0.2825058590263128,1.0724427692741154,0.26614742942154407
1725630291525372700,7.47937255859375,-0.6057691142462194,0.7008312243402004,-0.3448556399554014
1725630291535325700,7.48932568359375,-0.4785135842949152,0.6223790343940258,-0.4382598998397588
1725630291545278700,7.49927880859375,-0.16731705283522605,0.7431219675809144,0.026318974865972993
1725630291555231700,7.509231689453125,-0.25855624364018437,1.327423492515087,-0.3763566936343908
1725630291565185800,7.519185791015625,-1.0376770147107541,1.490907835319638,-0.23701310487389562
1725630291575138800,7.529138916015625,-0.7133088669888675,1.4611439806967972,0.4224783933401108
1725630291585091600,7.539091552734375,-1.045411408355087,1.1976046879470348,0.8937094194114208
1725630291595044600,7.549044677734375,-1.3085064644686877,0.4898702600896358,0.7551245400637387
1725630291604998700,7.55899853515625,-0.7969264768742025,-0.38812662640511986,0.8612474117457866
1725630291614951700,7.56895166015625,0.23420564623773096,-0.691622666490078,0.9920891296207904
1725630291624904700,7.57890478515625,0.1703828701466322,-0.4538070130616426,0.3952557476326823
1725630291634857700,7.588857666015625,0.5569711810685694,-0.8123568318486213,0.4391784759894013
1725630291644811500,7.5988115234375,0.7401767079092562,-1.0509750338315964,0.4518295755088329
1725630291654764500,7.6087646484375,0.07749298952519894,-1.017291959938407,-0.26357670215070245
1725630291664717600,7.618717529296875,-0.1622987862817943,-1.3902432290434836,-0.6845443986669182
1725630291674670600,7.628670654296875,-0.1519078867793083,-1.514679756051302,-0.6009712124451995
1725630291684624600,7.638624755859375,-0.3981856636047363,-1.0130325489282608,-0.7987481393434107
1725630291694577700,7.64857763671875,0.08251008703485131,-0.48531157387197016,-0.7313252929337323
1725630291704530700,7.65853076171875,0.5861141273140907,-0.41925884677171704,-0.8733480377756059
1725630291714483700,7.668483642578125,0.0748977123349905,-0.10344459238350391,-1.1331342616021634
1725630291724437800,7.678437744140625,-0.6546890663683415,-0.40683600305020806,-1.7870768935173749
1725630291734390800,7.688390869140625,-0.6743605660438537,-0.7723837179005145,-1.5851456234186887
1725630291744343800,7.69834375,-0.298327259144932,-0.945984965571761,-1.2377845765136182
1725630291754296800,7.708296875,-0.05792378118038177,-0.6246802970737219,-1.337489251716435
1725630291764251000,7.7182509765625,0.7571656905025244,-0.3688882574498653,-1.3978639331802725
1725630291774204000,7.728203857421875,0.7577414445638656,0.24416531471610067,-1.2661968703970312
1725630291784156700,7.73815673828125,0.06223762579150498,0.4138356526792049,-1.4625683144114912
1725630291794109700,7.748109619140625,-0.40171668727509674,-0.445268317297101,-1.1095819749705493
1725630291804063700,7.758063720703125,-0.07499233181588351,-0.28871698862612244,-0.5975032440736889
1725630291814016800,7.768016845703125,-0.027815058642625807,-1.3632581914842128,-0.6208256674721837
1725630291823969500,7.777969482421875,0.19303660050332544,-1.3084271156221627,-0.14650018251687288
1725630291833922600,7.787922607421875,0.7004552306346595,-1.0404074625879525,-0.35540786749944087
1725630291843876600,7.797876708984375,0.7583914329051971,-0.5213409186303615,-0.3968457933031022
1725630291853829600,7.80782958984375,1.0691081449586897,0.1674152525126934,-0.03451046462804079
1725630291863782700,7.81778271484375,1.30452937753126,-0.10285597884058952,-0.031265345226973294
1725630291873735700,7.827735595703125,1.1042302386790512,0.16099427955448625,0.007826455841958522
1725630291883689700,7.837689697265625,0.9166022192209958,0.4994014740228653,0.35895109306424855
1725630291893642800,7.847642822265625,1.368980806914717,0.7199269699543714,0.6204151869751513
1725630291903595800,7.857595703125,1.6700323764570058,1.1748469126939773,0.5328942860409617
1725630291913548800,7.867548828125,1.028327879346162,1.0303396575599908,0.3403703112348914
1725630291923502600,7.877502685546875,0.24369243650734423,0.6404384226977825,0.2548421915531158
1725630291933455600,7.88745556640625,-0.01560541928038001,0.19984861860573291,-0.1272670742586255
1725630291943408600,7.89740869140625,0.21088862966671584,0.02811784098148346,-0.47358065793737764
1725630291953361700,7.907361572265625,0.43051951484605666,0.49507250490784643,-0.8413438568800687
1725630291963315700,7.917315673828125,0.16753639467433093,0.6412491545587777,-1.385263833195716
1725630291973268700,7.927268798828125,-0.2676205707140267,0.08602057937383652,-1.3373496971152723
1725630291983221800,7.9372216796875,-0.4216581629984081,0.10330606069564818,-0.7856899203278124
1725630291993174800,7.9471748046875,-0.06557751080393791,0.22059797664582728,-0.5192787254035472
1725630292003128800,7.95712890625,0.26698051924481986,0.34888241125345226,-0.23727643198519943
1725630292013081900,7.967081787109375,1.1091447525970637,0.23378654404282567,0.2472290862008929
1725630292023035000,7.977034912109375,1.5503133794903754,0.6226122586280107,0.16018077121451496
1725630292032987400,7.9869873046875,1.0134306083351372,0.7524731487721205,-0.2866957119315863
1725630292042941400,7.99694140625,0.5694387407146394,0.5632406167268753,0.31850261668935415
1725630292052894500,8.00689453125,0.5038141758985817,0.9691881465047597,0.7804265929721296
1725630292062847500,8.016847412109374,0.7303789519943297,0.8974579582899809,0.7103251750029623
1725630292072800500,8.026800537109375,-0.03786006731688976,0.5677198079675436,0.07998392955809831
1725630292082754300,8.03675439453125,-1.4870568589799105,-0.36267362071871756,-0.426020449861139
1725630292092707300,8.046707275390625,-1.819707681878656,-1.4431260934472083,-0.162175306032598
1725630292102660400,8.056660400390625,-0.8297202007122337,-1.4707336468189953,0.6032360886372625
1725630292112613400,8.06661328125,-0.29957316755279895,-0.3667278645455837,0.6563936783291399
1725630292122567400,8.0765673828125,-0.3715944476686418,-0.012007833179831505,0.09264934986382722
1725630292132520400,8.0865205078125,0.19050752041712402,-0.6786228996634482,-0.35355332567393777
1725630292142473500,8.096473388671875,-0.02560556589961052,0.11812485964298247,-0.7725019374527037
1725630292152426500,8.106426513671876,0.034206659375876185,1.1619763252049684,-0.5768211060509085
1725630292162380500,8.116380615234375,1.3626304149746895,1.7239672341316938,-0.0507255402393639
1725630292172333600,8.12633349609375,1.6907728205382824,3.059602674674988,-0.4428429898463189
1725630292182286600,8.13628662109375,-0.09067804979085922,3.7273639885842798,-1.0824895315140486
1725630292192239600,8.146239501953126,-1.6728952185422181,2.88923032592237,-0.8158233389154076
1725630292202193400,8.156193359375,-1.4560070561997591,2.1464824523508548,-0.38196824990585443
1725630292212146400,8.166146484375,-1.0175620090514421,1.9539707525044678,-0.684529054967314
1725630292222099500,8.176099365234375,-0.19981120920479298,1.44135148499012,-0.9491042666360735
1725630292232052500,8.186052490234376,0.07232479310706258,0.9604436990350484,-1.8260811624333262
1725630292242006500,8.196006591796875,-1.185553454016894,0.009251812469959259,-2.7108243083178993
1725630292251959600,8.20595947265625,-1.4522884740680455,-1.842069881942868,-2.582277423381805
1725630292261912300,8.215912353515625,0.41225408257618545,-2.7504449555665254,-1.342045307585597
1725630292271865300,8.225865234375,-0.29377602558135985,-1.5038070643812418,-1.8784581231415272
1725630292281819400,8.2358193359375,-1.682058183684945,-1.3042244032353163,-1.7557623023211955
1725630292291772400,8.2457724609375,-1.0320201579928399,-2.0255594864219426,-0.512621313340962
1725630292301725400,8.255725341796875,-1.821427345278114,-1.2265782689750193,1.080069903151691
1725630292311678500,8.265678466796874,-1.2909059258483349,-0.572299536973238,2.3084867857307194
1725630292321632500,8.275632568359375,0.056943684101849794,-0.15637071140706538,2.5838492027431723
1725630292331585300,8.285585205078124,0.4211130963362753,0.14774433735907078,1.6805460255563258
1725630292341538300,8.295538330078125,0.31630233016610143,-0.8917851733505725,0.4391109637111425
1725630292351491300,8.3054912109375,0.7735264581948519,-1.6524802070230244,-0.22989479730129242
1725630292361445400,8.3154453125,0.21780849205777048,-1.1366378858089445,-0.6791624133676291
1725630292371398400,8.3253984375,0.23958076340481638,-1.007112511229515,-0.22025632360130548
1725630292381351400,8.335351318359375,0.5677994490750133,-0.738540485009551,0.7497925313860178
1725630292391304400,8.345304443359375,0.20305399051830172,-0.7995400203734636,1.5442375667080281
1725630292401258500,8.355258544921876,-1.039719041932374,-1.2277701091080904,1.6327423641130328
1725630292411211500,8.36521142578125,0.0978022025823593,-1.890827190849185,2.410783669383824
1725630292421164500,8.37516455078125,1.041471584688127,-1.5045231036961078,2.9777801315128802
1725630292431117600,8.38511767578125,0.7105670209348202,-1.3611287782400845,3.1865520612865685
1725630292441071600,8.395071533203126,1.1107757147997617,-1.0130360560595988,3.2341268824100493
1725630292451024600,8.405024658203125,1.0043146972045303,-0.714358814433217,2.4057184949487445
1725630292460977700,8.414977783203126,1.1077142814025283,-0.6701163526028394,1.9252032154425978
1725630292470930400,8.424930419921875,2.145547217327356,-0.34663258650004863,1.7868664656370876
1725630292480884500,8.434884521484374,0.9396154305398464,0.473704138186574,0.6426946771919727
1725630292490837200,8.444837158203125,-0.5261082791626454,1.2375269484907387,-0.752170074172318
1725630292500790300,8.454790283203126,0.2723626506745815,2.7236703458875415,-1.0879276309147476
1725630292510743300,8.464743408203125,-0.022673604100942612,5.208502125039696,-2.3688567910194394
1725630292520697300,8.474697265625,-0.9696364747941494,5.436317193457484,-3.8828351208031173
1725630292530650400,8.484650390625,-0.795439891578257,4.69638320826292,-3.624571430368721
1725630292540603400,8.494603271484374,-0.8874231787487864,2.9861159981817007,-2.775966058053076
1725630292550556400,8.504556396484375,0.7185410685539245,1.0909621763050557,-0.77363254891783
1725630292560510500,8.514510498046874,2.87536342087239,0.36520576954483985,1.8075298989593982
1725630292570463500,8.52446337890625,1.52937025244385,-0.796322227370739,1.5152861975118517
1725630292580416500,8.53441650390625,0.7647130371421575,-1.871080287849903,1.3119538284435868
1725630292590369500,8.54436962890625,1.946971102875471,-1.9823381843328476,2.2085955019146204
1725630292600323300,8.5543232421875,1.38469260917902,-1.2171300571501253,1.5504975038856268
1725630292610276400,8.5642763671875,0.48747839651703834,-0.31991818257570265,0.7968263775005936
1725630292620229400,8.5742294921875,0.3733455291196704,0.36748072873950005,0.7506608386531471
1725630292630182400,8.584182373046875,-0.6899404124915599,0.847768336969614,-0.14738777900636196
1725630292640136400,8.594136474609375,-1.3751251548886299,0.7000181543916464,-0.7188473580241203
1725630292650089500,8.60408935546875,-0.22652502860724924,0.627054040467739,-0.771153883844614
1725630292660042500,8.61404248046875,0.07307751117050647,0.5548971512734889,-1.294875560131669
1725630292669995500,8.62399560546875,-0.011795067211985588,0.186586401450634,-1.312635965488851
1725630292679949600,8.633949462890625,1.0660156588360667,-0.292048763397336,-0.04043517850190401
1725630292689902600,8.643902587890626,1.56778912268728,-0.6731155344188213,0.8680193900987505
1725630292699855600,8.653855712890625,0.6203548350900411,-1.3812579585552214,0.9243801597461104
1725630292709808400,8.663808349609376,0.861666221679747,-2.535169635248184,1.461946529251337
1725630292719762700,8.6737626953125,2.1404539858415723,-2.616220609515905,2.179211294259131
1725630292729715500,8.683715576171876,1.453708569999039,-2.700372472408414,1.9047376427799463
1725630292739668500,8.69366845703125,1.6213585080504416,-2.4631828419238326,1.127474336144328
1725630292749621500,8.70362158203125,0.8105661490395665,-1.4618851544529199,0.5625009042754769
1725630292759575300,8.7135751953125,-0.16977657481655478,-0.5838719013452529,-0.3992226054370403
1725630292769528300,8.7235283203125,-0.2615406662784517,-0.3044458881556988,-0.5551864896088838
1725630292779481300,8.7334814453125,-0.2502835053354502,0.8293395308315753,-0.584474251152575
1725630292789434400,8.743434326171876,-1.8429905039191246,1.9322703773498533,-1.6412851515308022
1725630292799388400,8.753388427734375,-1.6965470200255512,1.7128116338670252,-2.0808730851039288
1725630292809341400,8.763341552734374,-0.9439268639981746,1.8889684112399816,-1.5030883947178721
1725630292819294500,8.77329443359375,-1.368683869794756,2.9143641826570033,-1.5946148780316114
1725630292829247500,8.78324755859375,-1.405494574189186,2.209904830947518,-1.424733819927275
1725630292839201500,8.793201416015625,-0.41697292779162526,1.3725702097088097,-0.4053063092648983
1725630292849154600,8.803154541015624,-0.6560796439439058,1.2922802829414606,-0.14406038814932107
1725630292859107600,8.813107666015625,-0.9819330617874861,0.5712199250429868,-0.3199097070083022
1725630292869060600,8.823060546875,-0.6430133877523243,-0.2812169882595539,0.08421586803942918
1725630292879014400,8.833014404296875,-0.358699310260266,-0.5355296029806137,0.5278165443852544
1725630292888967400,8.842967529296875,-0.35225159542560575,-0.8131284007430076,0.42506344139724966
1725630292898920400,8.85292041015625,0.1656242774426937,-1.391068573951721,0.09153115948885679
1725630292908873500,8.86287353515625,0.5064192438304423,-1.6832950320035218,0.018301672627031803
1725630292918827500,8.87282763671875,0.0021643384270370004,-1.4666039996683597,-0.1079345972791314
1725630292928780500,8.882780517578125,-0.23302140488922596,-1.6096049418926237,-0.464382767611742
1725630292938733300,8.8927333984375,-0.21774426771514116,-1.9017302776575087,-0.2662704712793231
1725630292948686300,8.902686279296875,-0.08243409918919205,-1.700299942818284,-0.20207856961488724
1725630292958640400,8.912640380859376,-0.027905659535527226,-1.2971148634910583,-0.48776948841810225
1725630292968593400,8.922593505859375,0.03793956229388713,-1.2688123135924338,-0.7920739222764969
1725630292978546400,8.93254638671875,-0.4369587541133165,-1.3447633343726395,-1.0173317074269055
1725630292988499500,8.94249951171875,-0.8037504776753485,-0.9158516931146383,-0.6993719654425978
1725630292998453500,8.95245361328125,0.4927730688590556,0.001194178220629692,0.14171967024207113
1725630293008406500,8.962406494140625,1.9610282698005437,0.5713023426294327,0.792785139285773
1725630293018359300,8.972359375,1.6665677690863607,1.0851531977653504,0.23243629847764968
1725630293028312300,8.982312255859375,-0.20045177213065324,1.000195279186964,-0.7718740148127079
1725630293038265600,8.992265625,-1.2593898207306862,0.2700420987725258,-0.817802383903414
1725630293048219600,9.0022197265625,-1.2511549302183091,0.6006628771483897,0.4784820201128721
1725630293058172700,9.012172607421874,-1.4803946246117352,-0.06887304521799087,0.2591977564141154
1725630293068125700,9.022125732421875,-0.9417132065366953,-0.2222615259438753,0.2781583313412964
1725630293078079700,9.032079833984374,-0.14400398178696633,0.08190086909532547,0.07088526182323694
1725630293088032800,9.04203271484375,0.5043950445264578,0.6737135003119706,-0.1441205939039588
1725630293097985800,9.05198583984375,0.14212810491248964,0.9197422708123921,-0.5988396072439849
1725630293107938800,9.061938720703125,-0.30283311919681727,0.5052554607480764,-0.7692600329220295
1725630293117891800,9.071891845703124,-0.24611864074096082,0.28456629868745803,-0.24749533592164516
1725630293127846000,9.081845947265625,-0.10610117130689323,0.5307540591418742,0.04727233104556799
1725630293137799000,9.091798828125,0.42483942338302727,0.3204652950644493,0.3704575525932014
1725630293147752000,9.101751953125,1.0668418805271387,0.253642752635479,0.693715985507518
1725630293157704700,9.11170458984375,1.110370714195445,0.4628419679105282,0.8222612630084156
1725630293167658800,9.12165869140625,0.929245866086334,0.29289632013738154,0.682661069138348
1725630293177611500,9.131611572265625,0.5972551875967532,-0.034926351952552795,1.001387849972397
1725630293187564500,9.141564453125,0.6801857650659978,-0.17507365831136704,1.4064938143596053
1725630293197517600,9.151517578125,0.8627981483191252,-0.131024088704586,1.1409355830028654
1725630293207471600,9.1614716796875,0.8949423222072422,-0.012874679142236709,0.7155958088822663
1725630293217424600,9.171424560546875,1.1031504806183279,0.22619711182713506,0.7607157841995358
1725630293227377700,9.181377685546876,0.8837421521484852,0.7533306423842907,0.4354102094970643
1725630293237330700,9.19133056640625,-0.05632628285586833,-0.012861819660663604,0.21998671287968755
1725630293247284700,9.20128466796875,0.5148785176832229,-1.4867559763371943,0.8015586667194962
1725630293257237800,9.21123779296875,1.2685365653909741,-0.23415245474576948,0.4595730292424559
1725630293267190800,9.221190673828126,0.74893518390432,0.6640905164420604,-0.014218641097098588
1725630293277143800,9.231143798828125,0.6261509541481733,0.9774959561228752,0.000020019874721765516
1725630293287097600,9.24109765625,0.42996962587833404,1.8759394183188676,-0.18800255185887216
1725630293297050600,9.251050537109375,-0.05805719830170274,2.116862390112877,-0.2539291683614254
1725630293307003600,9.261003662109376,-0.18850187968313692,1.9700100331574677,-0.4656774835973978
1725630293316956700,9.270956787109375,0.019837503892183302,1.6427993554860352,-0.6524423103548586
1725630293326910700,9.28091064453125,-0.12771584093943236,1.0572791024118662,-0.7939103439234196
1725630293336863700,9.29086376953125,-0.38885771715864537,0.174896548178792,-0.7519831732980906
1725630293346816800,9.300816650390624,-0.38984175975993274,-0.3941548006534576,-0.6790633369073271
1725630293356769800,9.310769775390625,-0.4039027260772884,-0.7027180610001087,-0.5105433380231261
1725630293366723800,9.320723876953124,-0.15112747699134052,-1.1503273884654044,-0.22871157886609433
1725630293376676900,9.3306767578125,0.2885322797089815,-1.2838900557368993,0.014423369888961314
1725630293386630000,9.3406298828125,0.11426701517105102,-1.1823901676803827,-0.006096855570375919
1725630293396582700,9.350582763671875,0.010168927314877509,-1.2367360903739928,0.1624985466375947
1725630293406536700,9.36053662109375,0.04837853872179985,-0.7798661826103925,-0.08316139055043459
1725630293416489700,9.37048974609375,-0.159662665624544,-0.3739870418936014,0.16785715106129645
1725630293426442500,9.3804423828125,0.0605662585131824,0.2844505633533001,0.43482583373785016
1725630293436395500,9.3903955078125,0.21026194913573562,0.47570787922441954,0.40666152326613664
1725630293446349600,9.400349609375,-0.27776290228292344,0.46659869009554383,0.19309476043134927
1725630293456302600,9.410302490234375,-1.0373878225058317,0.007851882544159888,-0.17417583268880843
1725630293466255600,9.420255615234375,-1.4010498697400093,-0.5857382797390223,-0.26429507955312725
1725630293476208600,9.430208740234375,-1.1493300479911268,-0.46866439045369623,0.1303536420971155
1725630293486162700,9.44016259765625,-0.9674005324356257,0.34481998412013054,0.355794674859941
1725630293496115700,9.45011572265625,-0.5998913082540035,0.6585515870153904,0.403096816521883
1725630293506068700,9.46006884765625,-0.39036242263317106,0.8784452147841453,0.19783114130347965
1725630293516021800,9.470021728515626,-0.7755898204654454,1.4035691590845585,-0.006325695890188217
1725630293525975800,9.479975830078125,-0.7779764233410358,1.4165344391196966,0.015555004267394541
1725630293535928800,9.4899287109375,-0.6793570591568946,1.1877817975908518,-0.354962900210917
1725630293545881900,9.4998818359375,-0.6444533574275672,0.7386047824174166,-0.44352614980489014
1725630293555835000,9.5098349609375,-0.7081112983457744,0.516463083460927,-0.555021946696937
1725630293565788700,9.51978857421875,-0.9855207110159099,0.3221808668106794,-0.6544298309102654
1725630293575741700,9.52974169921875,-0.4999491710335016,0.31586218518316744,-0.18173399298340082
1725630293585694700,9.53969482421875,-0.17102949748709798,0.7970376821637153,0.3031967648774385
1725630293595647700,9.549647705078126,-0.1583778134457767,0.7868173169225454,0.36404344776719805
1725630293605601800,9.559601806640625,-0.5341131603114306,0.10407061532735824,0.389299469576776
1725630293615554800,9.569554931640624,-0.43236514271274207,-0.7144236963629722,0.5373758153691888
1725630293625507600,9.579507568359375,-0.5098479031048715,-0.7587538364768028,0.7418108849823475
1725630293635460600,9.589460693359374,-0.39624373575672506,-0.27562720542848107,0.6682792003035545
1725630293645414700,9.59941455078125,-0.18771569774150848,0.09026070116162299,0.8533657185852527
1725630293655367700,9.60936767578125,-0.07071487369239329,0.4982809455603361,0.8503004857957362
1725630293665320700,9.61932080078125,0.07927242028787732,0.14371113632023333,0.7251894205272197
1725630293675273700,9.629273681640624,0.4788865092605352,-0.23798399573266504,0.8464461484551429
1725630293685227500,9.6392275390625,1.1697104265883564,-0.3870622120440006,0.9973688235893845
1725630293695180500,9.6491806640625,0.8728080856800079,-0.1517477277815342,0.6581167027294635
1725630293705133600,9.659133544921875,0.014285130462050438,-0.40483226201236244,0.3109130383431911
1725630293715086600,9.669086669921874,0.47684068264663215,-0.5369084901183844,0.6730073978692293
1725630293725040600,9.67904052734375,1.062090886607766,0.06990823348462581,1.0992127027779817
1725630293734993700,9.68899365234375,0.8561059572041034,0.1380786833912134,0.9706135031327605
1725630293744946700,9.69894677734375,1.5386726260572672,-0.5064338568776846,1.2001695699989794
1725630293754899700,9.708899658203125,1.795353723475337,-1.3414035025507212,1.3692919186905026
1725630293764853800,9.718853759765626,1.4498083476901054,-2.026006645667553,1.3271595808818935
1725630293774806800,9.728806884765625,1.5993614880368112,-2.3792525128275153,1.5893924672082065
1725630293784759800,9.738759765625,1.3811337476536631,-1.807455664679408,1.3750290010377764
1725630293794712800,9.748712890625,0.9685533557325601,-1.1297189002007246,0.8796835244074463
1725630293804667000,9.7586669921875,0.6906520678922533,-0.019648703321814537,0.05889847143143415
1725630293814620000,9.768619873046875,0.45780689635276794,0.7890998749017715,-0.710257808855176
1725630293824573000,9.778572998046876,0.3132540485113859,1.2748428259283304,-1.2506895046636461
1725630293834525700,9.788525634765625,0.055232350139319895,1.3477104937404394,-1.4176646121934056
1725630293844478700,9.798478759765626,-0.3260261440619826,1.7274328644156456,-1.4806070983186363
1725630293854432500,9.8084326171875,-0.6230921510994434,2.1324469127357006,-1.7390560821920633
1725630293864385500,9.818385498046876,0.10733896947354078,2.4051363111466166,-1.4261539158582686
1725630293874338600,9.828338623046875,0.43116526540368794,2.1889374462425706,-1.3857213677048683
1725630293884291600,9.83829150390625,-0.16548896062523125,1.3331085524141788,-1.385494280950725
1725630293894245600,9.84824560546875,0.23107845412790773,0.4863514383137226,0.24393296726495026
1725630293904198700,9.85819873046875,0.751843618696928,-0.03752805888354778,1.7459098936095834
1725630293914151700,9.868151611328125,0.39448037934601304,-1.2734306210428477,2.1926804321631788
1725630293924104700,9.878104736328124,0.32389380820840596,-1.472709330806136,1.9373966343224047
1725630293934058800,9.888058837890625,0.1657823906138539,-1.2244371652930974,1.6826342300072312
1725630293944011800,9.89801171875,0.47885494507849213,-1.1692863559573887,1.4533029118075966
1725630293953964800,9.90796484375,0.5646387930870056,-1.6145540887326002,1.524255978170037
1725630293963917800,9.917917724609374,0.1420589851990342,-1.4804910707235335,1.543120837637782
1725630293973871600,9.92787158203125,0.3253013369187712,-0.8906120379179716,1.6829975103616714
1725630293983824600,9.93782470703125,0.8493988607808947,-0.2421685879409313,1.4537716983631253
1725630293993777700,9.947777587890625,1.2791568897351622,0.2695236278563738,1.1270295149862766
1725630294003730700,9.957730712890625,-0.0567789950594306,1.0208896921694277,0.11003215408027171
1725630294013684700,9.967684814453126,-1.069148403903842,0.9219120160669088,-0.7562474066138267
1725630294023637800,9.9776376953125,-0.1756324612379074,0.7660749731451273,-0.603833031617105
1725630294033591300,9.98759130859375,-0.1141506953150034,1.7867022149860858,-0.794259449622035
1725630294043544300,9.99754443359375,-0.38858708352372046,2.067125422519445,-0.9306357130095362
1725630294053498400,10.007498291015626,-0.2907328584931791,1.5082535223960876,-0.4442819366082549
1725630294063451400,10.017451416015625,-0.0231609492264688,0.6391174032270908,0.24568828649967908
1725630294073404400,10.027404296875,-0.15179273596704004,0.15455810902714728,0.5922752802923321
1725630294083357400,10.037357421875,-0.2995883651219308,-0.4131032467514276,0.5552031484827399
1725630294093311200,10.047311279296874,-0.15793723007142543,-0.6621265228927135,0.5109764687433839
1725630294103264300,10.05726416015625,-0.133679863910377,-0.703019674295187,0.441090739351511
1725630294113217300,10.06721728515625,-0.3009666677378118,-0.6462234358400106,0.1568885978013277
1725630294123170300,10.07717041015625,-0.42646074097454545,-0.3022363954126835,-0.2170931833952665
1725630294133124400,10.087124267578124,-0.10105784337744116,0.5344020602554083,-0.14283172313719988
1725630294143077400,10.097077392578125,0.56836526626423,1.161132275596261,-0.23141221612691878
1725630294153030400,10.107030517578124,0.3384891736634075,1.5362591351747512,-0.7041893025964499
1725630294162983400,10.1169833984375,-0.36858138345777985,1.2703881846070288,-0.971690484714508
1725630294172937500,10.1269375,-0.3464198205322027,0.8232710245728492,-0.6213879775300621
1725630294182890500,10.136890380859375,-0.21899127210155128,0.9532757071018219,-0.47472792827636
1725630294192843500,10.146843505859374,-0.3344571416683495,0.8429875324338674,-0.3688596158772707
1725630294202796300,10.15679638671875,-0.283011908852309,0.21785598446130752,0.19818010087162255
1725630294212750300,10.166750244140625,-0.15737375096976755,-0.6062625968515872,0.04784428571462631
1725630294222703000,10.176703125,-0.4229343204140663,-1.7877672138690948,-0.319873612781614
1725630294232656100,10.18665625,-0.0047381344377994536,-2.3351298779845235,-0.4885748134516179
1725630294242609200,10.196609130859375,0.17011282103359698,-1.8075439274847507,-0.8029777397371828
1725630294252563200,10.206563232421875,0.02842603014782071,-1.4489263041585683,-1.026869497231394
1725630294262516200,10.21651611328125,0.09308978710770606,-1.5438275246024131,-1.1157936890922486
1725630294272469200,10.22646923828125,-0.46250426038876175,-1.333278063762188,-1.215136399114877
1725630294282422300,10.23642236328125,-0.17088628962412475,-1.2566770546406507,-1.367037563892454
1725630294292376300,10.246376220703125,0.467758381524682,-0.8217991984546184,-1.4383375439964234
1725630294302329300,10.256329345703126,0.36093861361965535,-0.24298107336759567,-0.8909766334466636
1725630294312282400,10.266282470703125,-0.09864289119020103,-0.24055939917862415,-1.1250577765218912
1725630294322235400,10.2762353515625,-0.5245872801404446,-0.4117623535364866,-0.955048123601824
1725630294332188400,10.2861884765625,0.48380884115882217,-0.045208091992139814,-0.4162137799873948
1725630294342142500,10.296142578125,0.985836498966813,1.1006529647141694,0.05989581190571189
1725630294352095500,10.306095458984375,1.0154712473172693,1.116282495522499,-0.04631269223317504
1725630294362048500,10.316048583984376,0.3417594275057316,0.3835404676586389,-0.27084391667470337
1725630294372002300,10.326002197265625,-0.2958415798090398,-0.33356852226555345,-0.39439123975783585
1725630294381955300,10.335955322265624,-0.08700593714937567,-1.0020721789747475,0.18290099093616008
1725630294391908400,10.345908447265625,1.1473895814478396,-0.9659475571483374,0.19213351418375968
1725630294401861400,10.355861328125,1.2012630643241107,-0.04573474621474743,0.19277268887013196
1725630294411814100,10.365814208984375,1.1887642327569425,-0.08592764039337634,-0.38323812371119853
1725630294421768400,10.3757685546875,0.6641998220354318,-0.0019610709398984907,-0.3529945227473974
1725630294431721200,10.38572119140625,0.5120664559371769,1.091492922180891,0.15221446851044892
1725630294441674200,10.39567431640625,0.7872663758642972,0.34236616122722624,-0.2679280292280018
1725630294451627300,10.405627197265625,0.5862680027015507,1.7780898694634437,-0.800330001707375
1725630294461581300,10.415581298828124,-0.4469507174260914,2.7137358118504284,-0.9119684219405054
1725630294471534300,10.425534423828125,-0.394676194179058,2.5477894628465174,-0.5269537900760769
1725630294481487400,10.4354873046875,0.8950830458521842,2.7181092046290636,-0.1820126637943089
1725630294491440400,10.4454404296875,0.4420236362874508,2.942878329479694,-0.12070172439366578
1725630294501394200,10.455394287109375,-0.028639234507083892,1.5072861386686562,-0.1112032436862588
1725630294511347200,10.46534716796875,0.011025105752795934,-0.3337923941493034,0.06660597706884146
1725630294521300200,10.47530029296875,-0.3546506193913519,-0.9982523284256458,0.10125263529717922
1725630294531253200,10.485253173828125,0.04808101707994938,-0.9586585691839457,0.8279702883049845
1725630294541207300,10.495207275390625,0.8357236789107322,-1.3921867643266916,0.8271038807339965
1725630294551160300,10.505160400390626,0.16366145293712614,-0.4490314692229032,0.47613867185711856
1725630294561113300,10.51511328125,0.38321445057466624,-0.9165063576310872,0.43523119966834783
1725630294571066400,10.52506640625,0.2921675674714148,-0.6628823096960783,-0.6098581371255218
1725630294581020400,10.5350205078125,-0.26736308882161974,-0.32705928650200367,-1.1535893128708004
1725630294590973400,10.544973388671876,-0.6110575760431587,1.293611239284277,-0.2728213542275131
1725630294600926500,10.554926513671875,0.30076676125153895,1.604514925277233,1.4123818494848905
1725630294610879500,10.56487939453125,0.28002456360459327,1.9646265865534542,1.243124183975905
1725630294620833300,10.574833251953125,-0.8060195916511118,1.2999468720465899,0.7842191171228885
1725630294630786300,10.584786376953126,-1.0204133068293333,0.36537002019584175,0.5952591184087097
1725630294640739300,10.5947392578125,-0.23048092662617564,0.07606266446113585,0.411516415951401
1725630294650692400,10.6046923828125,0.6521154164880514,-0.634779081761837,0.08181187563762068
1725630294660646400,10.614646484375,0.6563323035307228,-0.9744161102861165,0.10287512193247675
1725630294670599200,10.62459912109375,-0.0709714788019657,-0.6954460241705179,0.13265168990641832
1725630294680552200,10.63455224609375,-0.6082733521521091,-0.7587485757797956,0.2287558563992381
1725630294690505200,10.644505126953124,-0.09086758101359009,-0.7882190004140138,0.7441165315762162
1725630294700459300,10.654459228515625,-0.360457113713026,-0.2713257088422775,0.6060960081130266
1725630294710412300,10.664412353515624,-0.6059181673280895,-0.1521218217909336,0.41671179263740776
1725630294720365300,10.674365234375,-0.228604026838392,0.14677870719730854,0.6398115229710937
1725630294730318300,10.684318359375,-0.48797012555673713,0.9024684799283742,0.43976562822759147
1725630294740272400,10.6942724609375,-0.7033462759010494,0.6662813044846058,0.08530483231991529
1725630294750225400,10.704225341796874,-0.5972657820560038,0.02532967156767845,0.09761778592616319
1725630294760178400,10.714178466796875,-0.9905227570869028,0.39779228037297726,-0.25604689116775986
1725630294770131500,10.72413134765625,-1.7546071409367023,0.33626433722078797,-0.6093544253870844
1725630294780085200,10.734085205078125,-1.0874953769773243,-0.06215630418360233,-0.15612550447434187
1725630294790038300,10.744038330078125,-0.7298499596841633,0.5376256984770298,-0.331480610075593
1725630294799991300,10.7539912109375,-1.3787686259575187,0.5563040954619646,-0.6741285108536481
1725630294809944300,10.7639443359375,-0.7294044078737497,-0.21038111853599548,-0.35337650780230756
1725630294819898400,10.7738984375,0.22669337091147898,-0.34421792657375333,0.0398714071393013
1725630294829851400,10.783851318359375,0.078001085177809,-0.6619312925815581,-0.11510697312653063
1725630294839804400,10.793804443359376,0.4933738842964172,-1.3632786497503517,0.6156985337167978
1725630294849757400,10.80375732421875,0.7659545616358518,-1.1146440806657074,0.8713657779172063
1725630294859711500,10.81371142578125,0.23270532467737792,-1.2070160748928784,1.0326607939839363
1725630294869664500,10.82366455078125,0.6095094698183238,-1.4990332741081713,1.4219731230422854
1725630294879617300,10.8336171875,0.31741482145264743,-1.2173001530200243,1.1230708404883742
1725630294889570300,10.8435703125,0.3265409617163241,-0.7538122884213924,0.9186644124478102
1725630294899523300,10.8535234375,0.8415396717131137,0.26025544877350326,1.0634551606982945
1725630294909477000,10.86347705078125,1.1093833836585283,1.3222843760609626,0.6762076552152634
1725630294919430100,10.87343017578125,-0.09061959760189056,1.2993296169310808,-0.5950564354434609
1725630294929383200,10.883383056640625,-0.6312827640786767,0.6664525693982839,-1.526671514879167
1725630294939336200,10.893336181640626,-0.18021043667793274,1.206425707784295,-1.8448773405790329
1725630294949290200,10.903290283203125,-0.3261407103523612,1.8900906932681798,-2.529425538638234
1725630294959243300,10.9132431640625,-0.06155775376856327,1.9599726232677697,-2.414721301093697
1725630294969196300,10.9231962890625,-0.14961685323268173,1.4046405877083539,-2.050234785734117
1725630294979149300,10.9331494140625,-0.40192426561117167,-0.1681254466086626,-1.5907017962411045
1725630294989103400,10.943103271484375,1.0806477030396462,-0.9738625680565833,-0.013945815505087375
1725630294999056400,10.953056396484374,1.5101204853117465,-0.3214525525361299,0.45940907085239885
1725630295009009400,10.963009521484375,0.7002376423612237,-0.8260188619762658,0.5333984361708164
1725630295018962400,10.97296240234375,1.048107077179849,-1.7720558499962091,1.3236466043248771
1725630295028916500,10.98291650390625,1.2287877617180347,-1.8367466410934925,1.3472490137085318
1725630295038868200,10.9928681640625,1.5063351215541363,-0.8982394640564918,1.1055375218853354
1725630295048821200,11.0028212890625,1.9312234986454246,0.08612930044531822,0.8198647232607007
1725630295058774300,11.012774169921874,1.0309890613794326,0.3505255022853613,0.11230623649209737
1725630295068728300,11.022728271484375,-0.608562690487504,-0.04621931486129761,-0.7737547139927744
1725630295078681300,11.032681396484374,-0.08495762631744146,0.14471183779537677,-0.6345867740601301
1725630295088634400,11.04263427734375,0.8942822508633136,1.7519336839437483,-0.7358373635306954
1725630295098587400,11.05258740234375,0.1402618726491928,1.7197639372229576,-1.498269303998351
1725630295108541200,11.062541259765625,0.6079419282406568,1.0473562588125467,-0.49952100874930616
1725630295118494200,11.072494140625,1.601404099780321,1.3415847043365239,0.5078983764722943
1725630295128447200,11.082447265625,1.2322796954870223,-0.09868775324523449,0.8972492839753627
1725630295138400300,11.092400146484374,1.5557529401957988,-1.6427227831184863,1.1386465952828526
1725630295148354300,11.102354248046876,2.194649394148588,-2.36128430993855,1.0678244618237018
1725630295158307300,11.112307373046875,0.9073913232833146,-2.354661092406511,1.1047174376741051
1725630295168260000,11.122260009765625,0.4410588829085231,-1.8890911608368157,2.532441671589017
1725630295178213000,11.132213134765625,0.01547404798567295,-1.5274112273305653,2.8517350002646444
1725630295188167200,11.142167236328126,-0.636586131183803,-1.7167197472214697,2.0442270697519183
1725630295198120200,11.1521201171875,0.06953121686577797,-0.9213070359110832,1.702006162214279
1725630295208073200,11.1620732421875,0.44717561222314833,0.25662322975099083,0.40945173850655553
1725630295218026200,11.172026123046875,-0.989087317456305,0.70607263212502,-1.064215331415832
1725630295227980000,11.18197998046875,-0.9298594679400324,1.1222370200127363,-0.9003358518138528
1725630295237933000,11.19193310546875,-0.06025836160778999,1.5092489631742239,0.06303484058380127
1725630295247886000,11.201885986328126,-0.8462544252753257,1.812886457556486,-0.6740732735350727
1725630295257839000,11.211839111328125,-0.31268998488783833,1.183833352226019,-0.322330796675384
1725630295267793200,11.221793212890624,0.9263917918294667,0.8467828330636024,0.2999959230095148
1725630295277746200,11.23174609375,0.8985488222666084,0.3689414489418268,0.47022214128971096
1725630295287699200,11.24169921875,0.016166706424951553,-0.760706139588356,0.5075836114346981
1725630295297652200,11.25165234375,1.1650345437318086,-1.645179528620839,1.563742185384035
1725630295307606300,11.261606201171874,1.1607669494152069,-1.4852823966532944,1.2605348991125822
1725630295317559300,11.271559326171875,0.5423359219945967,-1.0305845722317695,0.33285277521163226
1725630295327512300,11.28151220703125,0.4626052365452051,-0.5884791028797626,0.2719642990067601
1725630295337465300,11.29146533203125,-0.5327716825746,0.1632587173551321,-0.1308551618784666
1725630295347419100,11.301419189453124,-0.7122742632441222,0.5001221895128488,-0.2988593201950192
1725630295357372200,11.3113720703125,0.2453548167616129,1.4686217692315577,-0.04187894756942987
1725630295367325200,11.3213251953125,-1.5739957222424446,2.802740375471115,-1.1561258456110954
1725630295377278200,11.3312783203125,-1.823456220757216,1.7980623979121446,-1.538961964392662
1725630295387232300,11.341232177734375,-0.1459346575886011,2.0308394726514813,0.1108455162897706
1725630295397185000,11.35118505859375,-0.3356850760281086,4.3771243663787835,0.2427835049688816
1725630295407138000,11.361137939453124,-1.1746532898180186,3.533606088069081,-1.2510212208360434
1725630295417091000,11.371091064453125,0.12366919589713216,1.2330161930680275,-0.605472323256731
1725630295427045000,11.381045166015625,0.3564415944613516,-0.029833412727713584,0.06657353610396385
1725630295436998100,11.390998046875,-0.7192550620421767,-1.0893266840577125,-0.3804696819111705
1725630295446951200,11.400951171875,-0.14668050751984119,-2.740641354432702,0.7236079965546727
1725630295456904200,11.410904296875,1.2151480895526707,-3.129021078816056,1.2355594478100538
1725630295466857200,11.420857177734375,0.2724479908704758,-2.854742365387082,0.6014785774454474
1725630295476811300,11.430811279296876,0.2188778017897159,-3.313363500732183,-0.31346652221828697
1725630295486764300,11.440764404296875,-0.5662152486234903,-3.259386995872855,-0.4967658648222685
1725630295496717300,11.45071728515625,-0.7172432838283479,-2.4767922650814054,-0.7044529219686985
1725630295506670300,11.46067041015625,1.1799106258243321,-1.439012812909484,-0.7264262688457965
1725630295516624100,11.4706240234375,2.1064041244626046,0.37972587780654427,-0.7746896567553281
1725630295526577200,11.4805771484375,0.005087678527832031,1.194170621845126,-2.4373566190108655
1725630295536530200,11.4905302734375,-1.6634681956358253,1.3591069170236587,-2.7420032904356715
1725630295546483200,11.500483154296875,-1.1879483863294125,1.9804238751441239,-2.089909647388011
1725630295556437200,11.510437255859374,-0.8667366568118333,2.0435960783720017,-1.435365542448312
1725630295566390300,11.520390380859375,-0.4435070797782391,1.155533724936843,-0.6596798603929579
1725630295576343300,11.53034326171875,0.16523440134227274,0.21387305230498313,-0.42366424212381243
1725630295586296300,11.54029638671875,-0.5339743363626301,0.1669616635262966,-0.6700966249890625
1725630295596250400,11.55025048828125,-0.39819202028028666,-1.4129296926259993,-0.20745032578110695
1725630295606203400,11.560203369140625,0.5037047241747379,-2.0811293979525565,0.09189736245274543
1725630295616156200,11.57015625,0.015423925233632325,-0.9583891045928001,-0.18796032015234232
1725630295626109200,11.580109130859375,0.7753432983584702,-1.3296399995207786,0.30233897900432344
1725630295636063000,11.59006298828125,1.390194859857112,-0.17354279548227786,0.35793855502083893
1725630295646016000,11.60001611328125,1.3078583758234976,0.32542204068899155,-0.3374957787118852
1725630295655969000,11.609968994140624,0.7873018855690955,-0.4249409840613603,-0.8268119120500982
1725630295665922000,11.619922119140625,0.10880217389389872,0.4119727814167738,-1.07366076676175
1725630295675876000,11.6298759765625,-0.7392227681852876,1.6048066017001867,-0.9282992328859865
1725630295685829000,11.6398291015625,0.4635638524442911,1.8774147515684365,-0.28359438491538164
1725630295695782100,11.6497822265625,1.5166170077241956,3.299965089976787,0.1938612147592008
1725630295705735200,11.659735107421875,0.6861364901639521,3.834826584437489,0.42551673812270163
1725630295715689200,11.669689208984375,0.7360377084083854,2.4325451270759104,0.742070997223258
1725630295725642200,11.679642333984376,0.7097687101639807,1.1241209340631961,1.012621630039811
1725630295735595300,11.68959521484375,0.26966040597856045,-0.1040109940946102,0.02600362530648708
1725630295745548300,11.69954833984375,0.4998667534470558,-1.0232774640887976,-0.7827388154372572
1725630295755502300,11.70950244140625,0.5999721184052527,-1.009134372445941,-0.8751128554910421
1725630295765455400,11.719455322265626,0.13286241004765034,-0.6952087082833052,-0.3642874856561422
1725630295775408400,11.729408447265625,0.41549233384504913,-1.0294804103821515,-0.2251097549818456
1725630295785361400,11.739361328125,0.757094524962455,-0.5531073452472687,-0.5420090281277895
1725630295795315200,11.749315185546875,0.6840630448907613,-0.06297463482916354,-0.659440060287714
1725630295805268200,11.759268310546876,1.1070495338834823,0.1766173806220293,-0.9135521840006112
1725630295815221200,11.76922119140625,1.0816577568650245,0.3487029630333185,-0.8134741454407572
1725630295825174000,11.779174072265626,0.7006720882557332,0.4292874888330698,-0.7931183167628943
1725630295835128300,11.78912841796875,0.18892171253040432,0.19808686963021754,-0.8049655525535344
1725630295845081000,11.7990810546875,-0.24790157863497733,-0.2642512404114008,-0.4691118419602513
1725630295855034000,11.8090341796875,-0.6334656610757112,0.12437106055617332,0.36589243663474913
1725630295864987100,11.818987060546876,-0.7920692461013793,-0.29289982726871966,1.107171114436537
1725630295874941200,11.828941162109375,-0.49913478591069577,-1.7963374738156794,0.8036788737438618
1725630295884894200,11.838894287109374,0.46122883362546563,-2.6284207503974435,0.9329296691656113
1725630295894847200,11.84884716796875,0.29379706836938857,-1.910833037045598,1.0004425319463015
1725630295904800300,11.85880029296875,-0.07529094943627715,-1.6670792257398366,0.75321052313596
1725630295914754000,11.868754150390625,-0.10726853458583355,-1.2311293564081192,1.177173017553985
1725630295924707000,11.87870703125,0.07718918427303433,-0.7000806982338428,1.550765507172048
1725630295934660000,11.88866015625,-0.32717268374860287,0.2519055535793304,1.3545409242823718
1725630295944613000,11.898613037109374,-0.011915478721261023,0.6007645839571952,1.2155299284771084
1725630295954566100,11.908566162109375,0.5418966537944973,0.9667167879551648,1.0918906893268228
1725630295964520200,11.918520263671875,0.9022637511365115,1.25856213773489,0.9038716247245668
1725630295974473200,11.92847314453125,-0.5487549952566624,2.3267612780898808,-0.06078413904756307
1725630295984426200,11.93842626953125,-1.8365987570554017,2.203875487655401,-0.48071343242675063
1725630295994379300,11.948379150390625,-1.5822311972767114,1.846734366622567,-0.45051878517121074
1725630296004333300,11.958333251953125,-1.3673200340956448,2.436469607043266,-0.590617576213181
1725630296014286300,11.968286376953126,-1.6947427470825611,2.7466280276268717,-0.8315341182664037
1725630296024239400,11.9782392578125,-0.7508468627445399,2.4147061035245656,-0.7129603458121418
1725630296034192100,11.988192138671875,-0.8081570420712232,2.04356159158051,-0.7746028552547096
1725630296044146200,11.998146240234375,-1.1893711126089095,0.27490882802605626,-0.8448916124895215
1725630296054099200,12.00809912109375,0.18598390551283955,-1.0415431886196136,-0.4961655608415603
1725630296064052200,12.01805224609375,-0.060596215260028834,-0.6867793181121349,-0.2938724716931581
1725630296074005200,12.028005126953126,-1.0393857183247803,-0.395593893545866,-0.25240736562162636
1725630296083959300,12.037959228515625,0.10004165207222103,-0.6157382812052965,0.24224574483036992
1725630296093912300,12.047912353515626,0.2084944280065596,-0.018287936362624168,0.0821501676812768
1725630296103865300,12.057865234375,0.06496683155968785,0.03345803296566009,0.09656243165433406
1725630296113818400,12.067818359375,0.6634184623993933,0.2858019779622555,0.6983595735296607
1725630296123772400,12.0777724609375,1.2421826653420924,0.7788760025292635,1.1093974121838808
1725630296133725400,12.087725341796874,-0.37805063807070255,0.6139028824716806,0.6916068843990564
1725630296143678500,12.097678466796875,-0.8994517624557018,-0.5822878470242023,0.22070377510786054
1725630296153631200,12.10763134765625,0.4201968582741916,-0.9055530019402503,0.729357061600685
1725630296163585500,12.11758544921875,0.15723945706561207,-0.050233811199665065,0.46623161034882066
1725630296173538300,12.127538330078124,0.7359305947721004,0.012564882540702819,0.5639452578648925
1725630296183491300,12.1374912109375,1.3911271722711622,-0.172695823264122,0.7165960719659924
1725630296193444400,12.1474443359375,0.7604325833439827,-1.3019073584645986,0.8457780399352312
1725630296203398100,12.157398193359375,0.8829302512437105,-2.4683190357685088,1.2701225194081662
1725630296213351200,12.16735107421875,1.2710212218135595,-2.4818068783730265,1.4176108361795543
1725630296223304200,12.17730419921875,0.9307388811230659,-2.4182512287855147,1.4523103936389088
1725630296233257200,12.18725732421875,0.5194686950176954,-2.3003455648511646,1.4529311558857558
1725630296243211300,12.197211181640625,0.3052741556733847,-1.645325074571371,1.2371470092624426
1725630296253164300,12.207164306640625,0.6797334912538529,-0.3853185832470655,1.2600523762926459
1725630296263117300,12.217117431640625,1.0362059192448854,0.5403524930924177,1.0867077337309718
1725630296273070300,12.2270703125,1.4639116918444632,0.795885589519143,0.9645581486165523
1725630296283024400,12.2370244140625,0.25095249063819647,0.7862029844164848,-0.12062602880895137
1725630296292977400,12.246977294921875,-0.500543337534368,0.7506786665707826,-1.0073787609502673
1725630296302930400,12.256930419921876,0.24425240847766397,1.824257161876559,-1.1341627278670667
1725630296312883500,12.266883544921875,-0.7359124745935202,2.729910117059946,-2.1125062407299877
1725630296322837200,12.276837158203126,-1.0926908997938036,2.195516824632883,-2.15325150809437
1725630296332790300,12.286790283203125,-0.017517536512017248,1.797543342474103,-1.3228782503008842
1725630296342743300,12.296743408203126,0.29064766442775725,1.5775626209437845,-0.5484603962242603
1725630296352696300,12.3066962890625,0.7628624408394098,0.6137953304439783,-0.2933221443340182
1725630296362649300,12.3166494140625,1.4699989028036593,0.30754443869292736,0.18741496122926474
1725630296372603400,12.326603271484375,1.0776870996683836,-0.5276315432071685,0.6055626318886875
1725630296382556400,12.336556396484376,1.1011226280525326,-1.144652849960327,0.969250982607901
1725630296392509200,12.34650927734375,1.0604147700890898,-1.0023094948619604,0.8035460411444306
1725630296402462200,12.356462158203126,0.9846706700578332,-0.8690694836735725,0.7128440259560942
1725630296412416300,12.366416259765625,0.8396972587168217,-0.846791016370058,0.9384767818987368
1725630296422369300,12.376369384765624,0.5193246103718877,-1.2067705756992102,1.1367921995878218
1725630296432322300,12.386322265625,0.07501753932237624,-1.0340034407645464,0.3981903397798538
1725630296442275300,12.396275390625,-0.13751578881144522,-1.0364058257311581,0.29058687415122986
1725630296452229400,12.4062294921875,-0.012680617874860764,-0.44139644429981706,-0.42866292719393967
1725630296462182400,12.416182373046874,-0.8367916004031896,-0.004012742772698402,-1.0362807380467653
1725630296472135400,12.426135498046875,-0.2617091547131538,0.5526467419981956,-0.8686348916485905
1725630296482088400,12.43608837890625,0.11668868936002254,1.063998766055703,-0.5460372607305646
1725630296492042200,12.446042236328125,0.8501169459223746,1.07241588126719,-0.526722319407761
1725630296501995300,12.455995361328124,1.1667129983380435,0.6653022303193807,-0.5398822452321649
