time,seconds_elapsed,z,y,x
1725891498569533000,0.052532958984375,0,0,0
1725891498588381700,0.071381591796875,0.012927055358886719,0.038555145263671875,-0.0793846845626831
1725891498607230200,0.090230224609375,-0.017894744873046875,0.10721540451049805,0.02520310878753662
1725891498626079000,0.109078857421875,-0.7047147750854492,0.025993824005126953,-0.039045512676239014
1725891498644927700,0.127927734375,0.06590938568115234,-0.6114683151245117,0.3828047215938568
1725891498663776500,0.146776611328125,-0.2466144561767578,-0.19687676429748535,0.22654417157173157
1725891498682625300,0.165625244140625,-0.3559694290161133,0.4419283866882324,-0.14919611811637878
1725891498701474000,0.18447412109375,-0.46286487579345703,0.7060756683349609,-0.42568841576576233
1725891498720322800,0.20332275390625,-0.5091304779052734,0.10941267013549805,-0.14837127923965454
1725891498739171600,0.222171630859375,-0.4774971008300781,-0.07893753051757812,0.02590581774711609
1725891498758020000,0.24102001953125,-0.1726245880126953,0.22987747192382812,-0.10921689867973328
1725891498776868900,0.259868896484375,-0.14646244049072266,0.43360471725463867,-0.42205652594566345
1725891498795717600,0.278717529296875,-0.10611534118652344,0.3290729522705078,-0.45257243514060974
1725891498814566400,0.29756640625,-0.12796688079833984,0.1940932273864746,-0.6428074836730957
1725891498833415200,0.316415283203125,0.10754776000976562,0.27081298828125,-0.9689633250236511
1725891498852264000,0.335263916015625,0.49753570556640625,0.2524747848510742,-1.142014503479004
1725891498871112700,0.35411279296875,0.9054384231567383,-0.41553783416748047,-0.5604771971702576
1725891498889961200,0.372961181640625,-0.06604480743408203,0.08620643615722656,-0.48748528957366943
1725891498908810000,0.39181005859375,0.6575469970703125,-0.06470680236816406,0.058953315019607544
1725891498927658800,0.41065869140625,0.8409252166748047,-0.7375049591064453,0.14960896968841553
1725891498946507500,0.429507568359375,0.19122982025146484,-1.1987676620483398,0.6872323751449585
1725891498965356300,0.448356201171875,-0.7535400390625,-0.6397061347961426,0.949408233165741
1725891498984205000,0.467205078125,-1.1489405632019043,-0.7670719623565674,0.7083691954612732
1725891499003053600,0.486053466796875,-0.3514261245727539,-0.7436714172363281,0.04234600067138672
1725891499021902300,0.50490234375,0.6902599334716797,-0.38639402389526367,-0.6257628202438354
1725891499040751000,0.523751220703125,2.1855554580688477,-0.793642520904541,-1.2781975269317627
1725891499059600000,0.542599853515625,1.9825267791748047,-0.8642725944519043,-0.6557774543762207
1725891499078448600,0.56144873046875,0.7415857315063477,-1.0898199081420898,-1.6257833242416382
1725891499097297400,0.58029736328125,-0.42817020416259766,-1.3606176376342773,-1.6397004127502441
1725891499116146200,0.599146240234375,0.9861345291137695,-0.9917888641357422,-0.639637291431427
1725891499134994700,0.61799462890625,1.4941987991333008,-0.6058018207550049,0.16254869103431702
1725891499153843500,0.636843505859375,0.3089303970336914,-0.520592212677002,0.5837827324867249
1725891499172692200,0.655692138671875,-1.4411420822143555,-0.7855489253997803,-0.01843366026878357
1725891499191541000,0.674541015625,-2.4019250869750977,-0.8070859909057617,-0.4504637122154236
1725891499210389800,0.6933896484375,-1.4221525192260742,-0.4160757064819336,-0.5741037130355835
1725891499229238500,0.712238525390625,3.5539283752441406,2.6089553833007812,-4.2041730880737305
1725891499248087300,0.73108740234375,-0.31809043884277344,-1.0889873504638672,-1.2463114261627197
1725891499266936000,0.74993603515625,-0.26253223419189453,-0.9921164512634277,-0.3018505573272705
1725891499285784600,0.76878466796875,0.6868486404418945,-0.248504638671875,-0.7750499248504639
1725891499304633300,0.78763330078125,0.8114566802978516,-0.4007401466369629,-0.8779740333557129
1725891499323482000,0.806482177734375,-0.18705463409423828,-0.7636795043945312,-0.9913454055786133
1725891499342331000,0.825330810546875,-0.22277069091796875,-1.2439764738082886,-0.8890633583068848
1725891499361179600,0.8441796875,-0.34977054595947266,-1.8380247354507446,-1.9380147457122803
1725891499380028400,0.8630283203125,0.11516094207763672,0.8012759685516357,-2.232562303543091
1725891499398877200,0.881877197265625,0.5786828994750977,-0.2936513423919678,-2.185610294342041
1725891499417726000,0.900725830078125,-0.5440998077392578,-0.45163846015930176,-2.33354115486145
1725891499436574500,0.919574462890625,-1.6341228485107422,-0.25788211822509766,-3.2236833572387695
1725891499455423200,0.93842333984375,-0.22826576232910156,0.808208703994751,-3.5751733779907227
1725891499474272000,0.95727197265625,0.5731039047241211,0.4682044982910156,-3.646761894226074
1725891499493120800,0.976120849609375,0.2968912124633789,-0.39253973960876465,-1.1038415431976318
1725891499511969500,0.994969482421875,1.1435317993164062,-0.2951185703277588,0.28472089767456055
1725891499530818300,1.013818359375,1.9102869033813477,0.2721748352050781,0.03030252456665039
1725891499549667000,1.0326669921875,1.199392318725586,1.0304405689239502,-0.21304082870483398
1725891499568515800,1.051515869140625,1.9764156341552734,0.987126350402832,-0.514399528503418
1725891499587364600,1.070364501953125,3.0521812438964844,1.1522912979125977,-0.7510309219360352
1725891499606213000,1.089213134765625,1.9904909133911133,0.40815067291259766,-0.9207930564880371
1725891499625062000,1.108061767578125,0.525322437286377,2.2879562377929688,-1.3839168548583984
1725891499643910700,1.12691064453125,2.4953956604003906,1.01069974899292,-4.100468635559082
1725891499662759400,1.145759521484375,0.8284416198730469,-1.1266794204711914,-0.5586080551147461
1725891499681608200,1.164608154296875,-0.06870603561401367,-1.6532959938049316,-1.601109504699707
1725891499700457000,1.18345703125,-0.2139296531677246,-0.22385597229003906,-2.807748556137085
1725891499719305700,1.2023056640625,-1.2759983539581299,-2.231844902038574,-2.1851730346679688
1725891499738154500,1.221154541015625,-1.675520420074463,-2.8463377952575684,-3.558269500732422
1725891499757003000,1.2400029296875,-2.3878300189971924,-3.0679845809936523,-3.3980236053466797
1725891499775851800,1.258851806640625,-2.977081775665283,-3.0404748916625977,-2.9339518547058105
1725891499794700300,1.2777001953125,-2.05863881111145,-2.3416595458984375,-2.5589354038238525
1725891499813549000,1.296549072265625,-1.1632237434387207,-2.0292768478393555,-2.3174967765808105
1725891499832397800,1.315397705078125,-0.8290063738822937,-3.0832958221435547,-2.694721221923828
1725891499851246600,1.33424658203125,-0.08949030935764313,-3.4757871627807617,-0.6800460815429688
1725891499870095400,1.353095458984375,0.8074007630348206,-0.7908182144165039,0.787813663482666
1725891499888943900,1.37194384765625,1.7062733173370361,-1.044299602508545,0.8432435989379883
1725891499907792600,1.390792724609375,2.3200483322143555,-1.6964921951293945,0.7437143325805664
1725891499926641400,1.409641357421875,1.8974387645721436,-1.4524345397949219,1.3026399612426758
1725891499945490200,1.428490234375,1.839900255203247,0.40328168869018555,1.7627854347229004
1725891499964339000,1.4473388671875,2.24843430519104,-0.4989299774169922,1.9680466651916504
1725891499983187700,1.466187744140625,3.301391363143921,-0.965919017791748,2.6076526641845703
1725891500002036500,1.485036376953125,3.2335329055786133,-0.9887213706970215,1.9987730979919434
1725891500020885200,1.50388525390625,3.527376651763916,-1.975358486175537,1.866884708404541
1725891500039733800,1.522733642578125,3.3417534828186035,-2.8346829414367676,0.23139381408691406
1725891500058582500,1.54158251953125,3.542140483856201,-4.049947738647461,-0.5756301879882812
1725891500077440500,1.5604404296875,3.169908285140991,-4.17404842376709,-1.070457935333252
1725891500096280000,1.579280029296875,2.4769606590270996,-4.035660743713379,-1.6599364280700684
1725891500115128800,1.59812890625,1.4886529445648193,-4.4853739738464355,-1.2270259857177734
1725891500133977600,1.6169775390625,-0.8210594654083252,-4.5740227699279785,4.099475383758545
1725891500152826400,1.635826416015625,0.9217431545257568,-0.5121297836303711,9.567235946655273
1725891500171675100,1.654675048828125,-5.643024444580078,1.315992832183838,10.369173049926758
1725891500190524000,1.67352392578125,-3.788486957550049,-2.7902421951293945,5.537166118621826
1725891500209372400,1.692372314453125,-0.8308777809143066,1.809131145477295,2.535430431365967
1725891500228221200,1.71122119140625,16.191932678222656,7.281121253967285,-1.9711055755615234
1725891500247070000,1.730070068359375,-2.4560160636901855,0.3463551998138428,-0.6276397705078125
1725891500265918700,1.748918701171875,-0.5511932373046875,-0.013366460800170898,-0.5119032859802246
1725891500284767500,1.767767578125,-1.8147039413452148,0.16533470153808594,-0.39986562728881836
1725891500303616300,1.7866162109375,0.16936111450195312,-0.6713898181915283,-1.3705415725708008
1725891500322465000,1.805465087890625,-1.8013930320739746,-1.381782054901123,-1.514045238494873
1725891500341313800,1.824313720703125,-0.13059759140014648,0.8504173755645752,-1.869309425354004
1725891500360162600,1.84316259765625,-1.7223968505859375,-0.28063106536865234,-1.2152724266052246
1725891500379011000,1.862010986328125,-1.9075360298156738,-0.18530821800231934,-1.145617961883545
1725891500397859800,1.88085986328125,-1.4180355072021484,-0.49229860305786133,-1.2255477905273438
1725891500416708600,1.89970849609375,-0.7940807342529297,-1.2906861305236816,-2.0779342651367188
1725891500435557400,1.918557373046875,-1.3554964065551758,-2.7966384887695312,-0.440096378326416
1725891500454406100,1.93740625,-0.06109046936035156,-2.4240987300872803,-0.8182215690612793
1725891500473255000,1.9562548828125,-0.6324868202209473,-1.2286133766174316,-0.13566827774047852
1725891500492103700,1.975103759765625,-0.7974271774291992,-1.5935003757476807,0.6285028457641602
1725891500510952400,1.993952392578125,-0.666297435760498,-0.7979903221130371,-1.0134434700012207
1725891500529801000,2.012801025390625,-0.07221651077270508,-1.2369074821472168,-1.899848461151123
1725891500548649700,2.031649658203125,-0.5620551109313965,-1.547712802886963,-0.7303252220153809
1725891500567498500,2.05049853515625,-1.3649730682373047,-0.5007562637329102,-1.3010120391845703
1725891500586347300,2.06934716796875,-1.4067668914794922,-0.9059457778930664,-1.4123005867004395
1725891500605196000,2.088196044921875,-1.401618242263794,0.2787151336669922,-0.6850700378417969
1725891500624044800,2.107044921875,-0.7740862369537354,0.5003829002380371,-0.8949894905090332
1725891500642893600,2.1258935546875,-1.13261079788208,-0.19708967208862305,-1.1095681190490723
1725891500661742300,2.144742431640625,-1.8988463878631592,-0.17011737823486328,-0.8028345108032227
1725891500680591000,2.163591064453125,-0.7368764877319336,-0.45879602432250977,-1.3558177947998047
1725891500699439900,2.18243994140625,-0.6169211864471436,-2.9340529441833496,-1.557332992553711
1725891500718288600,2.20128857421875,-0.4957726001739502,-3.1005020141601562,-0.268402099609375
1725891500737137400,2.220137451171875,0.2753317356109619,-2.404236316680908,-0.6007695198059082
1725891500755986200,2.238986083984375,2.8879806995391846,-2.5871925354003906,-0.6524763107299805
1725891500774835000,2.2578349609375,3.5418190956115723,-0.22751474380493164,0.4418215751647949
1725891500793683500,2.276683349609375,3.936901569366455,4.414170265197754,2.225457191467285
1725891500812532200,2.2955322265625,3.0550596714019775,0.43453073501586914,2.4979944229125977
1725891500831381000,2.314381103515625,3.1001832485198975,0.4168233871459961,1.529456615447998
1725891500850229800,2.333229736328125,3.046309471130371,1.4773783683776855,-0.6218695640563965
1725891500869078500,2.35207861328125,3.1867103576660156,1.4782891273498535,0.502291202545166
1725891500887927600,2.370927490234375,1.9297547340393066,1.828662395477295,1.5336503982543945
1725891500906776000,2.389776123046875,1.7805874347686768,0.062345027923583984,0.4472332000732422
1725891500925624800,2.408624755859375,0.8153588771820068,-0.9122862815856934,1.4297895431518555
1725891500944473600,2.4274736328125,-1.9185903072357178,1.08465576171875,0.7835521697998047
1725891500963322400,2.446322265625,-0.39211034774780273,1.9765753746032715,-1.4842324256896973
1725891500982171100,2.465171142578125,-0.6985825896263123,2.0165152549743652,-0.26083898544311523
1725891501001020000,2.48402001953125,1.6333117485046387,2.3603391647338867,-0.13460397720336914
1725891501019868700,2.50286865234375,0.34836095571517944,0.5232667922973633,-0.5053529739379883
1725891501038717400,2.521717529296875,-1.0849745273590088,1.9840025901794434,-1.7499542236328125
1725891501057566200,2.540566162109375,-0.5003282427787781,6.050583839416504,-2.5719666481018066
1725891501076415000,2.5594150390625,-1.7567145824432373,3.487031936645508,0.5122461318969727
1725891501095263700,2.578263671875,-1.2429953813552856,1.6959824562072754,-1.1358857154846191
1725891501114112500,2.597112548828125,-0.1787685751914978,2.8172945976257324,-0.7776389122009277
1725891501132961300,2.615961181640625,0.3174343705177307,1.7657904624938965,1.1905889511108398
1725891501151810000,2.63481005859375,1.0207597017288208,-0.4992499351501465,-1.1523523330688477
1725891501170658800,2.653658935546875,-2.0340256690979004,-0.40837621688842773,-0.3583211898803711
1725891501189507600,2.672507568359375,-3.120567798614502,1.2906889915466309,-1.9389419555664062
1725891501208356400,2.6913564453125,-3.9443459510803223,1.9485068321228027,0.8507013320922852
1725891501227205000,2.710205078125,-5.201724529266357,1.648913860321045,0.14870500564575195
1725891501246054000,2.729053955078125,-4.523308753967285,3.092808723449707,-1.5513420104980469
1725891501264902700,2.747902587890625,-2.905416488647461,-1.9768409729003906,-0.15206670761108398
1725891501283751400,2.76675146484375,-2.880669593811035,2.367384910583496,-2.910064697265625
1725891501302600200,2.78560009765625,-5.25339937210083,9.909390449523926,-1.131333827972412
1725891501321449000,2.804448974609375,-1.7470495700836182,-1.034691333770752,-0.45668506622314453
1725891501340297700,2.823297607421875,-1.8226990699768066,4.2422895431518555,-6.472953796386719
1725891501359146500,2.842146484375,7.147066116333008,-3.7702298164367676,3.7117576599121094
1725891501377995300,2.860995361328125,2.1466925144195557,0.6795430183410645,4.905009746551514
1725891501396844000,2.879843994140625,6.565175533294678,1.7059063911437988,2.86911678314209
1725891501415692800,2.89869287109375,3.3844170570373535,-2.52232027053833,1.66611909866333
1725891501434541600,2.91754150390625,7.12186861038208,-0.5155549049377441,-2.9633631706237793
1725891501453390300,2.936390380859375,2.261981964111328,2.164912700653076,-3.7446680068969727
1725891501472239000,2.955239013671875,5.267519950866699,1.419424057006836,-0.08847284317016602
1725891501491088000,2.974087890625,2.449059247970581,-2.6354317665100098,2.7544937133789062
1725891501509936600,2.9929365234375,-1.4837884902954102,4.025588035583496,-0.8662261962890625
1725891501528785400,3.011785400390625,0.6487172245979309,-0.17919158935546875,-0.2862873077392578
1725891501547634200,3.03063427734375,-2.2952628135681152,1.4379281997680664,-2.5853404998779297
1725891501566483000,3.04948291015625,-5.7698588371276855,0.23900365829467773,1.5632810592651367
1725891501585331700,3.068331787109375,-8.919139862060547,-3.565911293029785,-4.2236175537109375
1725891501604180500,3.087180419921875,-8.978748321533203,-1.832913875579834,-3.952620506286621
1725891501623029200,3.106029296875,-9.627091407775879,-2.2500648498535156,4.525923728942871
1725891501641878000,3.1248779296875,-4.774774551391602,-3.1757359504699707,1.7312283515930176
1725891501660726800,3.143726806640625,-2.2045681476593018,-0.09183549880981445,0.5507254600524902
1725891501679575600,3.162575439453125,6.461757659912109,2.394998550415039,0.2720069885253906
1725891501698424300,3.18142431640625,10.411073684692383,1.1825976371765137,3.5464348793029785
1725891501717273000,3.200273193359375,7.253680229187012,2.538222312927246,1.9573721885681152
1725891501736121900,3.219121826171875,4.415139198303223,1.7223267555236816,0.3826260566711426
1725891501754970600,3.237970703125,1.91552734375,0.43512487411499023,-1.0128040313720703
1725891501773819400,3.2568193359375,1.3301870822906494,-1.207871913909912,-0.35827112197875977
1725891501792668200,3.275668212890625,2.3080339431762695,-0.578801155090332,-0.984626293182373
1725891501811517000,3.294516845703125,0.7615060806274414,-4.183881759643555,-0.2806663513183594
1725891501830365700,3.31336572265625,-4.115516662597656,-0.21932411193847656,-1.5032401084899902
1725891501849214500,3.33221435546875,-1.036056637763977,1.7350506782531738,2.3983044624328613
1725891501868063500,3.3510634765625,-2.374582529067993,-1.951005458831787,0.567080020904541
1725891501886912000,3.369912109375,2.0992417335510254,0.07471513748168945,-0.12792158126831055
1725891501905760800,3.3887607421875,4.257471084594727,1.4004178047180176,0.4325523376464844
1725891501924609800,3.40760986328125,2.2310590744018555,3.3032846450805664,-1.4552559852600098
1725891501943458600,3.42645849609375,0.9210257530212402,5.08715295791626,-1.9654273986816406
1725891501962307300,3.445307373046875,0.061049461364746094,6.908609390258789,2.082968235015869
1725891501981156000,3.464156005859375,-0.2525501251220703,4.909072399139404,3.6083712577819824
1725891502000004900,3.4830048828125,5.190685272216797,1.5753717422485352,5.144484519958496
1725891502018853600,3.501853515625,5.482337951660156,3.910977363586426,8.406988143920898
1725891502037702400,3.520702392578125,5.9260101318359375,-0.2289576530456543,5.835416793823242
1725891502056551200,3.53955126953125,10.453727722167969,-1.31461763381958,6.071701526641846
1725891502075400000,3.55839990234375,9.042679786682129,-5.58103084564209,3.4923596382141113
1725891502094248700,3.577248779296875,7.973992347717285,-6.373721122741699,1.9991228580474854
1725891502113097500,3.596097412109375,6.207740783691406,-6.631272792816162,1.4664809703826904
1725891502131946200,3.6149462890625,4.637060165405273,-8.086602210998535,0.8956406116485596
1725891502150795300,3.633795166015625,3.9374186992645264,-8.826276779174805,0.7883079051971436
1725891502169643800,3.652643798828125,3.5534064769744873,-8.339774131774902,0.7089855670928955
1725891502188492800,3.671492919921875,2.6567695140838623,-8.489492416381836,1.323390245437622
1725891502207341600,3.690341552734375,1.7780038118362427,-7.474239349365234,1.6580445766448975
1725891502226190300,3.7091904296875,-1.3281559944152832,-5.496236801147461,1.842773675918579
1725891502245039000,3.7280390625,-2.1327414512634277,-4.524570465087891,2.452662706375122
1725891502263888000,3.746887939453125,-4.296228408813477,-2.8134756088256836,1.584263563156128
1725891502282736600,3.765736572265625,-4.499096870422363,-2.4870972633361816,0.5402965545654297
1725891502301585400,3.78458544921875,-4.575277328491211,-2.870394229888916,0.270566463470459
1725891502320434400,3.803434326171875,-3.9159626960754395,-1.5552473068237305,-0.1397690773010254
1725891502339283000,3.822282958984375,-2.990753650665283,-0.27118873596191406,-0.4901285171508789
1725891502358132000,3.841132080078125,-1.1146717071533203,1.893293857574463,0.9059534072875977
1725891502376980700,3.859980712890625,-1.391995906829834,3.492192268371582,1.423302173614502
1725891502395829500,3.87882958984375,-1.2617155313491821,4.761937141418457,1.2441153526306152
1725891502414678300,3.89767822265625,-2.0023984909057617,5.812923908233643,0.3560905456542969
1725891502433527000,3.916527099609375,-2.3700168132781982,6.672511577606201,0.3350095748901367
1725891502452375800,3.935375732421875,-2.075375556945801,7.162519931793213,1.115126132965088
1725891502471224600,3.954224609375,-0.7708719968795776,6.019113063812256,0.8632979393005371
1725891502490073600,3.973073486328125,-0.6843715906143188,4.18439245223999,0.07324934005737305
1725891502508922000,3.991922119140625,0.22645175457000732,2.9620537757873535,-1.8667235374450684
1725891502527771100,4.010771240234375,1.3244483470916748,3.1269421577453613,-3.658234119415283
1725891502546620000,4.029619873046875,2.3400323390960693,2.323896884918213,-2.7890968322753906
1725891502565468700,4.04846875,0.8448014855384827,1.456418514251709,-1.282249927520752
1725891502584317400,4.0673173828125,-3.1290063858032227,-0.29403018951416016,0.1917896270751953
1725891502603166200,4.086166259765625,-2.345341205596924,-1.455580711364746,0.7616500854492188
1725891502622015000,4.105014892578125,0.9866189956665039,-0.7475652694702148,-0.9033803939819336
1725891502640864000,4.123864013671875,0.5149409770965576,-1.6685874462127686,-1.4370388984680176
1725891502659712800,4.142712646484375,3.1793012619018555,-1.5835918188095093,-0.7329854965209961
1725891502678561500,4.1615615234375,3.0309224128723145,-1.592795729637146,0.8103055953979492
1725891502697410300,4.180410400390625,-1.3156321048736572,0.10587739944458008,1.032515525817871
1725891502716259000,4.199259033203125,-2.9537928104400635,1.9062659740447998,0.16867828369140625
1725891502735107800,4.21810791015625,-3.787374973297119,3.0861165523529053,-0.5287513732910156
1725891502753956600,4.23695654296875,-1.387009859085083,2.857257843017578,1.4002408981323242
1725891502772805600,4.2558056640625,2.353835105895996,1.8942067623138428,0.7581319808959961
1725891502791654400,4.274654296875,3.947908878326416,0.5469080209732056,2.393277168273926
1725891502810503200,4.293503173828125,0.5179735422134399,2.2162392139434814,3.592402458190918
1725891502829352000,4.31235205078125,-1.0244147777557373,-0.5307334065437317,3.8550376892089844
1725891502848200700,4.33120068359375,0.2616770267486572,-1.9940327405929565,3.132356643676758
1725891502867049700,4.3500498046875,-0.16454029083251953,-1.5491329431533813,1.781416893005371
1725891502885898500,4.3688984375,-0.589766263961792,-0.9993888139724731,-0.776280403137207
1725891502904747300,4.387747314453125,0.9142045974731445,-0.41658860445022583,-2.911325454711914
1725891502923596000,4.406595947265625,0.05845499038696289,0.11709558963775635,-2.6153507232666016
1725891502942444800,4.42544482421875,-0.6379172801971436,1.2364153861999512,-1.2476272583007812
1725891502961293600,4.44429345703125,0.08751916885375977,1.8668004274368286,-0.9202985763549805
1725891502980142600,4.463142578125,1.595458745956421,1.7763690948486328,-1.2911128997802734
1725891502998991400,4.481991455078125,1.1306326389312744,0.3003096580505371,-1.2919378280639648
1725891503017840000,4.500840087890625,0.4575791358947754,-0.8002216815948486,-0.07000541687011719
1725891503036689000,4.51968896484375,-0.38271260261535645,-1.0432817935943604,-0.48102569580078125
1725891503055537700,4.53853759765625,-0.08346247673034668,-1.0315940380096436,-0.8675117492675781
1725891503074386700,4.55738671875,1.024641513824463,-0.3041996955871582,-0.7381219863891602
1725891503093235500,4.5762353515625,1.664687156677246,-0.881690263748169,-0.5105104446411133
1725891503112084200,4.595084228515625,1.2459897994995117,-1.4957609176635742,-1.0740509033203125
1725891503130933000,4.61393310546875,1.531816005706787,-1.3817031383514404,-2.12569522857666
1725891503149782000,4.632781982421875,2.2458596229553223,-0.8018794059753418,-3.4270858764648438
1725891503168630800,4.651630859375,3.7017929553985596,0.8208198547363281,-2.439028739929199
1725891503187479600,4.6704794921875,2.4854001998901367,0.2355353832244873,-0.8569846153259277
1725891503206328300,4.689328369140625,-4.925905227661133,-0.331341028213501,2.452014923095703
1725891503225177000,4.708177001953125,-15.042872428894043,4.024575233459473,6.487844467163086
1725891503244025900,4.72702587890625,-2.091283082962036,3.7832019329071045,7.0476579666137695
1725891503262875000,4.745875,-0.7565491199493408,-5.881380081176758,6.616425514221191
1725891503281723600,4.7647236328125,1.6691086292266846,-4.622555732727051,4.488184928894043
1725891503300572400,4.783572509765625,2.406785011291504,-1.4788563251495361,3.011420249938965
1725891503319421200,4.802421142578125,-0.5817272663116455,-3.240711212158203,0.050586700439453125
1725891503338270200,4.821270263671875,-0.2343120574951172,-1.4915242195129395,-3.7348785400390625
1725891503357119000,4.840118896484375,-1.0294976234436035,0.1558988094329834,-5.274832725524902
1725891503375967700,4.8589677734375,1.4038538932800293,-0.358569860458374,-4.2008819580078125
1725891503394816500,4.87781640625,2.326082706451416,0.6422696113586426,-3.0395164489746094
1725891503413665500,4.89666552734375,1.1794133186340332,1.4533512592315674,-2.229295253753662
1725891503432514300,4.915514404296875,0.5314273834228516,1.0664730072021484,-1.8780698776245117
1725891503451363000,4.934363037109375,2.4414916038513184,1.0291309356689453,-1.556004524230957
1725891503470211800,4.9532119140625,-0.3880949020385742,0.8182163238525391,0.08713436126708984
1725891503489060900,4.972060791015625,0.6807675361633301,-0.9335627555847168,1.1744184494018555
1725891503507909600,4.99090966796875,-0.8837442398071289,-0.939610481262207,1.430826187133789
1725891503526758400,5.00975830078125,-1.2781474590301514,-1.659627914428711,2.0353641510009766
1725891503545607200,5.028607177734375,-2.1496756076812744,-2.7954750061035156,2.0904932022094727
1725891503564456200,5.047456298828125,-1.39975905418396,-1.9060325622558594,1.6009807586669922
1725891503583305000,5.066304931640625,-0.5847206115722656,-0.44232845306396484,0.9842305183410645
1725891503602153700,5.08515380859375,-0.5990288257598877,-0.7267856597900391,0.16582584381103516
1725891503621002500,5.10400244140625,-0.15921998023986816,-2.5129904747009277,1.11260986328125
1725891503639851300,5.122851318359375,0.16887855529785156,-2.6324777603149414,0.27535152435302734
1725891503658700300,5.1417001953125,0.9310975074768066,-1.7419676780700684,0.14264297485351562
1725891503677549000,5.160549072265625,1.6311874389648438,-0.6838130950927734,0.06974124908447266
1725891503696398000,5.179398193359375,1.1341276168823242,-0.6567034721374512,-1.0363411903381348
1725891503715246800,5.198246826171875,-1.9827828407287598,-0.27692556381225586,-1.6566357612609863
1725891503734095600,5.217095703125,-0.056821346282958984,1.4128327369689941,-2.6840829849243164
1725891503752944400,5.2359443359375,0.5362210273742676,0.868966817855835,-3.4390769004821777
1725891503771793200,5.254793212890625,0.5387535095214844,-0.25539255142211914,-2.843356132507324
1725891503790642200,5.27364208984375,-0.42116785049438477,0.8352947235107422,-1.1606426239013672
1725891503809491000,5.292490966796875,-0.840430736541748,2.536581039428711,-1.4894790649414062
1725891503828339700,5.311339599609375,-1.3246026039123535,0.8742845058441162,-0.8369140625
1725891503847188700,5.330188720703125,-0.17148971557617188,0.4795358180999756,-0.5836734771728516
1725891503866037500,5.34903759765625,-0.7413210868835449,0.2688438892364502,-0.47641658782958984
1725891503884886300,5.36788623046875,-0.6786136627197266,-0.83732008934021,-0.021137714385986328
1725891503903735000,5.386735107421875,0.02445840835571289,-1.2165918350219727,-0.12139368057250977
1725891503922584000,5.405583984375,1.0241904258728027,-1.391327142715454,-0.1480579376220703
1725891503941432800,5.424432861328125,0.9344205856323242,-1.451014757156372,0.11929798126220703
1725891503960281600,5.443281494140625,0.36891794204711914,-2.0232558250427246,0.24024105072021484
1725891503979130600,5.462130615234375,-0.07081747055053711,-2.521021842956543,3.5106287002563477
1725891503997979400,5.4809794921875,1.8300604820251465,-0.7960715293884277,-2.407433032989502
1725891504016828200,5.499828125,0.259274959564209,-2.284503221511841,-2.243468761444092
1725891504035677200,5.51867724609375,-0.6830105781555176,-1.3780791759490967,-2.1134676933288574
1725891504054526000,5.53752587890625,-0.18086576461791992,0.07756304740905762,-1.8409337997436523
1725891504073374700,5.556374755859375,0.6683568954467773,1.1746602058410645,-2.115659713745117
1725891504092223700,5.5752236328125,-2.513089179992676,1.5630223751068115,-0.40578365325927734
1725891504111072500,5.594072509765625,-0.28045654296875,-0.27431774139404297,-0.48845911026000977
1725891504129921300,5.61292138671875,0.27016544342041016,0.653552770614624,-0.43753528594970703
1725891504148770000,5.63177001953125,-0.4733283519744873,0.7069582939147949,0.321319580078125
1725891504167619000,5.650619140625,0.3872809410095215,0.6564805507659912,0.7356300354003906
1725891504186467800,5.6694677734375,0.18727469444274902,1.7237186431884766,-0.2564201354980469
1725891504205316600,5.688316650390625,-0.0749213695526123,2.257291793823242,-0.3336067199707031
1725891504224165600,5.70716552734375,-1.2891526222229004,2.3127880096435547,-0.7937612533569336
1725891504243014400,5.726014404296875,-1.2094895839691162,1.8682522773742676,-0.645197868347168
1725891504261863200,5.74486328125,-1.6075732707977295,2.615943193435669,-0.9934053421020508
1725891504280712200,5.763712158203125,-0.9993693828582764,2.591500997543335,-0.3748311996459961
1725891504299573500,5.782573486328125,0.3630836009979248,1.9188690185546875,-0.1283435821533203
1725891504318409700,5.80140966796875,1.5355751514434814,1.429598331451416,0.7484216690063477
1725891504337258800,5.8202587890625,2.7947287559509277,0.044396400451660156,1.010305404663086
1725891504356107500,5.839107421875,1.8446340560913086,-1.1916069984436035,-0.15073299407958984
1725891504374956300,5.857956298828125,-0.25235557556152344,-0.41853857040405273,0.2065753936767578
1725891504393805300,5.876805419921875,-2.651707649230957,-0.6529245376586914,-0.35349082946777344
1725891504412654000,5.895654052734375,-2.018810272216797,-1.0784573554992676,-0.4124164581298828
1725891504431502800,5.9145029296875,-1.3986694812774658,-0.9575099945068359,-0.7273993492126465
1725891504450351900,5.933351806640625,-0.5831372737884521,-0.34738683700561523,-0.6356077194213867
1725891504469200600,5.95220068359375,0.4930574893951416,0.22480249404907227,-2.2557320594787598
1725891504488049400,5.97104931640625,0.5710806846618652,-1.033010482788086,-1.53564453125
1725891504506898400,5.9898984375,0.18068957328796387,-2.8156003952026367,-0.1904616355895996
1725891504525747200,6.008747314453125,-0.05063462257385254,-3.035159111022949,0.43495941162109375
1725891504544596000,6.027595947265625,-1.7384777069091797,-1.4489550590515137,-0.2330799102783203
1725891504563445000,6.046445068359375,-0.968573808670044,-0.6049332618713379,0.22467708587646484
1725891504582294000,6.0652939453125,0.48339712619781494,1.3906059265136719,-3.0581798553466797
1725891504601142800,6.084142822265625,0.3567274808883667,-0.2170395851135254,-1.4216456413269043
1725891504619991600,6.102991455078125,-0.4075967073440552,-2.0440421104431152,-0.34424304962158203
1725891504638840600,6.121840576171875,-2.1729736328125,-1.919205665588379,0.2225637435913086
1725891504657689300,6.140689453125,-2.808091402053833,-1.982053279876709,1.2696747779846191
1725891504676538000,6.1595380859375,-2.320352554321289,-2.0132155418395996,0.6406059265136719
1725891504695387100,6.17838720703125,-0.3745960593223572,-1.8026719093322754,0.15261554718017578
1725891504714236000,6.19723583984375,0.6475812196731567,-0.2388296127319336,-0.3007316589355469
1725891504733084700,6.216084716796875,2.7568933963775635,0.7109231948852539,-0.12789201736450195
1725891504751933700,6.23493359375,3.930412769317627,1.0254077911376953,-0.6459560394287109
1725891504770782500,6.253782470703125,3.646120548248291,1.8961048126220703,-1.3102912902832031
1725891504789631500,6.272631591796875,2.851858377456665,3.0713820457458496,-1.8324542045593262
1725891504808480300,6.291480224609375,2.621318817138672,2.454895496368408,-1.5208625793457031
1725891504827329000,6.3103291015625,0.14630961418151855,-1.0383844375610352,-0.8612542152404785
1725891504846178000,6.329177978515625,1.076067566871643,-0.12659120559692383,0.5140705108642578
1725891504865026800,6.34802685546875,-2.295834541320801,-5.557708263397217,0.04858875274658203
1725891504883875600,6.36687548828125,-3.205754041671753,-4.311668872833252,-0.4970531463623047
1725891504902724600,6.385724609375,-2.6879124641418457,-4.8089823722839355,-0.050423622131347656
1725891504921573400,6.404573486328125,-2.4226362705230713,-3.4758148193359375,1.4267768859863281
1725891504940422400,6.42342236328125,-1.0088295936584473,0.40791845321655273,1.027224063873291
1725891504959271200,6.442271240234375,-0.3908393383026123,3.043562889099121,1.1600375175476074
1725891504978120000,6.461119873046875,2.846531629562378,4.843162536621094,-1.1458368301391602
1725891504996969000,6.479968994140625,1.183828592300415,0.3806490898132324,-1.3077373504638672
1725891505015817700,6.498817626953125,-1.3828599452972412,-2.1208019256591797,-2.2101292610168457
1725891505034666500,6.51766650390625,-1.879467487335205,-1.9213848114013672,-2.449129819869995
1725891505053515500,6.536515625,-0.44008970260620117,-2.9119739532470703,-0.672271728515625
1725891505072364300,6.5553642578125,-0.12981605529785156,-1.7111973762512207,0.18503952026367188
1725891505091213300,6.57421337890625,-0.29438066482543945,-0.46003246307373047,-0.47965478897094727
1725891505110062000,6.59306201171875,0.0858464241027832,-0.18104219436645508,-1.997664451599121
1725891505128910800,6.611910888671875,0.1595921516418457,-0.7729368209838867,-1.5370714664459229
1725891505147759900,6.630759765625,-0.4855780601501465,0.35937070846557617,-2.360341787338257
1725891505166609000,6.64960888671875,-0.3687901496887207,0.28673648834228516,-1.8148317337036133
1725891505185457700,6.668457763671875,-0.08089494705200195,0.6122817993164062,-0.40825843811035156
1725891505204306400,6.687306396484375,-0.23865938186645508,1.4503931999206543,0.8055915832519531
1725891505223155500,6.706155517578125,-1.25455904006958,1.5000638961791992,3.0317912101745605
1725891505242004200,6.725004150390625,-1.5918312072753906,4.180746078491211,-1.4682681560516357
1725891505260853200,6.743853271484375,2.352679967880249,-0.37958574295043945,-2.613893747329712
1725891505279702000,6.762701904296875,0.4812493324279785,2.2855310440063477,4.627493858337402
1725891505298550800,6.78155078125,-0.7248263359069824,2.7940361499786377,6.98854923248291
1725891505317399800,6.80039990234375,-0.40300512313842773,2.235511064529419,2.5113024711608887
1725891505336248600,6.81924853515625,-1.3074541091918945,2.0259366035461426,-0.28040361404418945
1725891505355097600,6.83809765625,-0.420809268951416,1.9324824810028076,-1.8797764778137207
1725891505373946400,6.8569462890625,0.7508769035339355,-0.9883308410644531,-1.0996851921081543
1725891505392795100,6.875795166015625,0.8357300758361816,-3.0352001190185547,-0.5370573997497559
1725891505411644200,6.89464404296875,0.42863941192626953,-3.314566135406494,-0.21255016326904297
1725891505430493200,6.9134931640625,0.013733386993408203,-3.4392237663269043,0.004136562347412109
1725891505449342000,6.932342041015625,0.06653213500976562,-2.8505077362060547,-0.2093486785888672
1725891505468190700,6.951190673828125,0.5663542747497559,-2.17966890335083,0.06799745559692383
1725891505487039700,6.970039794921875,0.4180135726928711,-1.462080955505371,0.46521854400634766
1725891505505888500,6.988888427734375,1.0389328002929688,-0.8809223175048828,-0.42691469192504883
1725891505524737500,7.007737548828125,0.873816967010498,0.10129523277282715,-1.2917075157165527
1725891505543586300,7.02658642578125,1.0264825820922852,0.618053674697876,-1.699416160583496
1725891505562435000,7.04543505859375,0.8157057762145996,0.7362692356109619,-1.6930279731750488
1725891505581284000,7.0642841796875,1.2808451652526855,1.0322673320770264,-1.5538012981414795
1725891505600132900,7.0831328125,0.9016242027282715,0.7889328002929688,-1.0971851348876953
1725891505618982000,7.10198193359375,0.7824101448059082,0.3840906620025635,-1.0996222496032715
1725891505637830700,7.12083056640625,0.8045787811279297,0.6460244655609131,-1.5334289073944092
1725891505656692200,7.139692138671875,1.3229928016662598,1.4543981552124023,-0.5766453742980957
1725891505675528400,7.158528564453125,-0.1968679428100586,0.10013461112976074,-1.4351892471313477
1725891505694377200,7.177377197265625,-0.12920188903808594,-0.04889988899230957,-0.8795523643493652
1725891505713226200,7.196226318359375,0.13676118850708008,-0.02038264274597168,-0.5450067520141602
1725891505732075300,7.2150751953125,-0.09580564498901367,0.08270454406738281,0.12406253814697266
1725891505750924000,7.233924072265625,-0.13077926635742188,0.5279531478881836,0.5018830299377441
1725891505769773000,7.25277294921875,0.3314032554626465,1.8354763984680176,0.7320051193237305
1725891505788621800,7.271621826171875,-0.5855059623718262,4.468273639678955,-0.15604543685913086
1725891505807470600,7.290470703125,0.6854705810546875,2.294713020324707,1.2704687118530273
1725891505826319600,7.309319580078125,1.6311016082763672,0.5476875305175781,-2.102651834487915
1725891505845168400,7.32816845703125,0.3937644958496094,-0.2710585594177246,-3.2994372844696045
1725891505864017400,7.347017333984375,-1.2059721946716309,-1.0274877548217773,-0.7091312408447266
1725891505882866200,7.3658662109375,-0.2353358268737793,-1.907090663909912,0.12417364120483398
1725891505901715200,7.384715087890625,0.07652902603149414,-3.0071253776550293,-1.5377135276794434
1725891505920564000,7.40356396484375,-1.3774785995483398,-3.460756301879883,-0.9687347412109375
1725891505939412700,7.422412841796875,-2.011707305908203,-3.24094295501709,0.0771932601928711
1725891505958261800,7.44126171875,-1.3450636863708496,-2.2022523880004883,0.4613614082336426
1725891505977110800,7.46011083984375,-0.9520072937011719,-1.5201764106750488,0.31267356872558594
1725891505995959600,7.47895947265625,-0.8817429542541504,-0.7499833106994629,-0.0048580169677734375
1725891506014808600,7.49780859375,0.0034346580505371094,-1.268974781036377,0.9335722923278809
1725891506033657300,7.5166572265625,-3.9418492317199707,-1.1771454811096191,0.5998406410217285
1725891506052506400,7.53550634765625,-0.037035465240478516,-1.6483311653137207,-0.14383172988891602
1725891506071355100,7.554355224609375,2.065695285797119,-4.133942127227783,1.6370410919189453
1725891506090204000,7.573203857421875,-0.0716862678527832,2.7070322036743164,0.34560585021972656
1725891506109053000,7.592052978515625,-0.06281280517578125,1.530496597290039,-0.13609743118286133
1725891506127901700,7.610901611328125,0.8483655452728271,-1.3549504280090332,-1.3092594146728516
1725891506146750700,7.629750732421875,0.79129958152771,-0.22919988632202148,-1.7721266746520996
1725891506165599700,7.648599853515625,0.3868091106414795,-0.8229532241821289,-0.9927635192871094
1725891506184448500,7.667448486328125,0.3011457920074463,1.8642592430114746,-0.9980034828186035
1725891506203297500,7.686297607421875,2.027313709259033,0.6338381767272949,-0.8961911201477051
1725891506222146300,7.705146240234375,1.3437995910644531,6.860025405883789,-0.9659662246704102
1725891506240995000,7.7239951171875,-0.8063592910766602,7.674467086791992,-1.983182430267334
1725891506259844000,7.742843994140625,0.46088600158691406,-0.47449588775634766,0.11127090454101562
1725891506278692900,7.76169287109375,0.990692138671875,-1.961669921875,0.3630228042602539
1725891506297542000,7.7805419921875,-0.23824739456176758,-1.0502452850341797,-0.059246063232421875
1725891506316390700,7.799390625,-0.4169483184814453,-1.4228482246398926,1.0636601448059082
1725891506335239700,7.81823974609375,-0.7334146499633789,-0.8615336418151855,1.6485037803649902
1725891506354088700,7.837088623046875,-0.9522576332092285,-2.766209602355957,0.38932275772094727
1725891506372937500,7.8559375,-0.5109171867370605,-2.883103370666504,-0.23323535919189453
1725891506391786500,7.874786376953125,-0.8733820915222168,-1.3880934715270996,-0.5543828010559082
1725891506410635300,7.89363525390625,-1.1475296020507812,-0.025128841400146484,0.30465030670166016
1725891506429484000,7.912484130859375,-0.4944124221801758,0.29178476333618164,0.1063389778137207
1725891506448333000,7.9313330078125,0.31945085525512695,1.129791259765625,0.569908618927002
1725891506467181800,7.950181884765625,0.0495915412902832,0.8139643669128418,0.8467497825622559
1725891506486030800,7.96903076171875,0.02008533477783203,-0.783928394317627,0.24201440811157227
1725891506504879600,7.987879638671875,-0.30864620208740234,-2.3452658653259277,0.6150269508361816
1725891506523728600,8.006728759765625,-0.9211010932922363,-3.6282825469970703,0.7480525970458984
1725891506542577700,8.02557763671875,-0.0029387474060058594,-3.092078685760498,0.9036388397216797
1725891506561426400,8.044426513671874,-1.5827178955078125,-1.147392749786377,0.5637249946594238
1725891506580275500,8.063275390625,-1.0879778861999512,-2.3560214042663574,0.7126483917236328
1725891506599124200,8.082124267578125,0.29523324966430664,-1.7856178283691406,0.4622664451599121
1725891506617973200,8.10097314453125,0.34870195388793945,-1.7571368217468262,0.3357205390930176
1725891506636822000,8.119822021484374,0.4630861282348633,-1.9618420600891113,0.5750293731689453
1725891506655671000,8.138671142578126,1.372298240661621,-1.412050724029541,0.017264842987060547
1725891506674519800,8.157519775390625,1.524637222290039,-0.5724172592163086,-0.7606039047241211
1725891506693368800,8.176368896484375,1.2315373420715332,0.30417299270629883,-0.5376911163330078
1725891506712217600,8.195217529296874,1.348226547241211,0.1657876968383789,-0.9135069847106934
1725891506731066600,8.214066650390626,1.1454367637634277,0.5166018009185791,-1.0978407859802246
1725891506749915400,8.232915283203125,0.9325366020202637,5.260941982269287,0.02224111557006836
1725891506768764400,8.251764404296875,0.35170555114746094,0.9808521270751953,-1.9484329223632812
1725891506787613200,8.27061328125,0.23154401779174805,-0.5193355083465576,-2.31886625289917
1725891506806462200,8.289462158203126,0.27942419052124023,0.6338353157043457,-1.838829517364502
1725891506825311000,8.30831103515625,0.4987602233886719,1.295295000076294,-1.268094539642334
1725891506844160000,8.327159912109375,0.9935398101806641,1.3568264245986938,-0.6575965881347656
1725891506863008800,8.3460087890625,1.0313348770141602,3.5730481147766113,-0.4878063201904297
1725891506881857800,8.36485791015625,0.27199554443359375,3.6487479209899902,-0.7587580680847168
1725891506900706800,8.383706787109375,1.0475201606750488,2.363935947418213,-0.8096623420715332
1725891506919555600,8.4025556640625,0.472628116607666,-0.6856520175933838,-0.4610428810119629
1725891506938404600,8.421404541015624,1.3296589851379395,-0.9228878021240234,-0.7580924034118652
1725891506957253400,8.44025341796875,1.321584701538086,0.2644021511077881,-0.8879656791687012
1725891506976102400,8.459102294921875,0.769890308380127,0.6288794279098511,-0.9191703796386719
1725891506994951200,8.477951171875,1.406935214996338,1.3731354475021362,-1.5556278228759766
1725891507013800200,8.49680029296875,1.7750601768493652,-0.7464220523834229,-1.498915672302246
1725891507032649200,8.515649169921875,0.13878488540649414,-0.010942697525024414,-1.872814655303955
1725891507051498000,8.534498046875,-0.3090662956237793,0.4608938694000244,-1.809232234954834
1725891507070347000,8.553346923828125,0.5119304656982422,-1.177539587020874,-1.1835317611694336
1725891507089195800,8.57219580078125,-0.07789802551269531,-0.8610293865203857,-0.47812700271606445
1725891507108044800,8.591044921875,0.09548473358154297,-1.0717520713806152,-0.07485198974609375
1725891507126893600,8.6098935546875,-0.03364753723144531,-0.16623401641845703,0.2507009506225586
1725891507145742600,8.62874267578125,0.10257720947265625,0.45100831985473633,-0.3454928398132324
1725891507164591400,8.64759130859375,0.10824918746948242,0.37711143493652344,-0.6319561004638672
1725891507183440400,8.6664404296875,-0.3613877296447754,-0.2818145751953125,0.4184379577636719
1725891507202289200,8.6852890625,-0.01386880874633789,0.7471718788146973,0.8151259422302246
1725891507221138200,8.70413818359375,-0.41153430938720703,-1.067553997039795,-1.3120355606079102
1725891507239987000,8.722987060546876,0.19675302505493164,-0.09035062789916992,-0.13676786422729492
1725891507258836000,8.7418359375,-0.5676493644714355,-0.1581864356994629,0.7958612442016602
1725891507277684700,8.760684814453125,-0.3449568748474121,-3.370096206665039,1.4048881530761719
1725891507296533800,8.77953369140625,-0.29218196868896484,-2.852733612060547,-0.8873181343078613
1725891507315382500,8.798382568359376,-0.32374095916748047,-3.5715365409851074,1.0006537437438965
1725891507334231600,8.8172314453125,-0.40439748764038086,-2.967172145843506,0.31227922439575195
1725891507353080600,8.83608056640625,-1.0941743850708008,-2.9132471084594727,-0.3119339942932129
1725891507371929300,8.854929443359374,-0.5987124443054199,-1.4583401679992676,-0.6596369743347168
1725891507390778400,8.8737783203125,-0.006648063659667969,-0.39876270294189453,-0.20447492599487305
1725891507409627100,8.892627197265625,0.3203616142272949,-0.06667900085449219,0.24326801300048828
1725891507428476200,8.91147607421875,0.2503495216369629,0.6330289840698242,-0.7327818870544434
1725891507447325000,8.930324951171874,0.018683433532714844,1.1665382385253906,-0.4299612045288086
1725891507466174000,8.949174072265626,0.1993265151977539,2.9821290969848633,1.2655024528503418
1725891507485023000,8.96802294921875,-1.2513666152954102,-0.8044114112854004,-0.5973825454711914
1725891507503871700,8.986871826171875,0.119873046875,-4.506004333496094,1.6941089630126953
1725891507522720800,9.005720703125,-1.1194968223571777,-4.773326396942139,-0.15759849548339844
1725891507541569500,9.024569580078126,-1.8174118995666504,-2.9152464866638184,-0.9361546039581299
1725891507560418600,9.04341845703125,-0.3817305564880371,-0.05887174606323242,-1.138216495513916
1725891507579267300,9.062267333984375,0.8127837181091309,2.1510353088378906,-0.8565502166748047
1725891507598116400,9.081116455078124,0.438629150390625,3.2119383811950684,-0.0829768180847168
1725891507616965400,9.09996533203125,-0.6374979019165039,2.760995388031006,0.7807779312133789
1725891507635814100,9.118814208984375,-1.0357604026794434,0.7978725433349609,1.961989402770996
1725891507654663200,9.1376630859375,-0.9444518089294434,-0.9514188766479492,1.1699182987213135
1725891507673512000,9.156511962890624,-0.539769172668457,-2.263888359069824,-0.45587587356567383
1725891507692361000,9.17536083984375,-1.3546223640441895,-3.143249988555908,-0.17266416549682617
1725891507711209700,9.194209716796875,-1.7760090827941895,-2.9025917053222656,0.01370692253112793
1725891507730058800,9.213058837890625,-1.4279208183288574,-2.1812562942504883,0.5840280055999756
1725891507748907800,9.23190771484375,-0.9994897842407227,-1.7522802352905273,0.4270594120025635
1725891507767756500,9.250756591796875,-1.557034969329834,-3.0982155799865723,0.18567276000976562
1725891507786605600,9.26960546875,-1.29595947265625,-4.042065143585205,0.847383975982666
1725891507805454300,9.288454345703125,-0.016119003295898438,-3.8454933166503906,0.5755112171173096
1725891507824303400,9.307303466796874,0.8664755821228027,-3.9080557823181152,0.6525864601135254
1725891507843152400,9.32615234375,0.5837259292602539,-3.808079719543457,0.7496078014373779
1725891507862001200,9.345001220703125,1.276136875152588,-3.080827236175537,0.86199951171875
1725891507880850200,9.36385009765625,1.8373198509216309,-1.9128093719482422,0.2373361587524414
1725891507899699000,9.382698974609376,2.5968523025512695,-0.5412135124206543,-0.3570883274078369
1725891507918548000,9.4015478515625,2.276524543762207,0.7371015548706055,-0.7061388492584229
1725891507937397000,9.42039697265625,1.522109031677246,1.7654592990875244,-0.899498462677002
1725891507956245800,9.439245849609375,2.396116256713867,1.2137620449066162,-1.243912935256958
1725891507975094800,9.4580947265625,2.7896289825439453,1.1800661087036133,-1.503957986831665
1725891507993943600,9.476943603515625,1.7530536651611328,1.1438031196594238,-1.3156859874725342
1725891508012792600,9.49579248046875,1.1451787948608398,1.002840280532837,-0.6066442728042603
1725891508031641600,9.5146416015625,1.387178897857666,0.2764170169830322,-0.5048027038574219
1725891508050490400,9.533490478515626,2.248748302459717,1.5444645881652832,-0.20340228080749512
1725891508069339400,9.55233935546875,2.540475368499756,1.2968096733093262,-2.1027472019195557
1725891508088188200,9.571188232421875,2.3411130905151367,3.1440834999084473,-0.852365255355835
1725891508107037200,9.590037109375,3.5865859985351562,3.1631975173950195,-1.1282224655151367
1725891508125886000,9.608885986328126,2.2585806846618652,4.118117332458496,-2.4905474185943604
1725891508144735000,9.62773486328125,1.580866813659668,5.012607574462891,-2.259263277053833
1725891508163584000,9.646583984375,2.7323827743530273,4.925883769989014,-2.6937038898468018
1725891508182432800,9.665432861328124,2.138864517211914,3.558483123779297,-2.3935678005218506
1725891508201281800,9.68428173828125,2.0650157928466797,-0.058397531509399414,-1.2932207584381104
1725891508220130600,9.703130615234375,2.803264617919922,-2.287277936935425,-0.6262590885162354
1725891508238979600,9.7219794921875,2.8031864166259766,-3.192678213119507,-0.21498322486877441
1725891508257828400,9.740828369140624,1.8572688102722168,-2.763350009918213,-0.9861555099487305
1725891508276677400,9.759677490234376,0.26686763763427734,-2.5667667388916016,-0.36879539489746094
1725891508295526400,9.7785263671875,0.5008387565612793,-1.1954536437988281,-0.41075849533081055
1725891508314375200,9.797375244140625,0.04494428634643555,-0.6554555892944336,-0.8756213188171387
1725891508333224200,9.81622412109375,-0.8294496536254883,-0.9646525382995605,-0.484210729598999
1725891508352073000,9.835072998046876,-0.10476064682006836,-2.216712474822998,-0.07913994789123535
1725891508370922000,9.853921875,-0.10819244384765625,-2.9498186111450195,-0.14031529426574707
1725891508389771000,9.87277099609375,-0.7979764938354492,-4.0644659996032715,-0.5161192417144775
1725891508408619800,9.891619873046874,-1.18864107131958,-4.875321865081787,-0.08206343650817871
1725891508427468800,9.91046875,-1.9225058555603027,-5.010113716125488,0.5920200347900391
1725891508446317800,9.92931787109375,-2.93186616897583,-5.6480278968811035,0.3467392921447754
1725891508465166600,9.94816650390625,-3.657559394836426,-6.272484302520752,1.5972168445587158
1725891508484015600,9.967015625,-3.6276893615722656,-5.807321548461914,2.4865427017211914
1725891508502864600,9.98586474609375,-2.414609432220459,-4.8446760177612305,1.9944303035736084
1725891508521713400,10.00471337890625,-0.4218459129333496,0.6754751205444336,1.3247833251953125
1725891508540562400,10.0235625,0.2861957550048828,3.59818696975708,0.7169396877288818
1725891508559411200,10.0424111328125,3.2145657539367676,6.0735321044921875,0.3958466053009033
1725891508578260200,10.06126025390625,1.9262127876281738,5.811327934265137,1.619359016418457
1725891508597109000,10.08010888671875,0.03701066970825195,-2.133371353149414,-0.28922295570373535
1725891508615958000,10.0989580078125,-1.2922306060791016,-2.75001859664917,-0.7421047687530518
1725891508634806800,10.117806884765624,-0.7677221298217773,-2.002509593963623,-0.21961212158203125
1725891508653655800,10.13665576171875,-0.6050276756286621,-1.3902101516723633,-0.07563209533691406
1725891508672504800,10.1555048828125,-0.7635903358459473,-1.2292823791503906,0.2316875457763672
1725891508691353600,10.174353515625,-1.3238420486450195,-1.3737306594848633,0.654780387878418
1725891508710202600,10.19320263671875,-1.093979835510254,-1.4552135467529297,0.7329709529876709
1725891508729051600,10.2120517578125,-0.24074983596801758,-0.9806270599365234,1.3231523036956787
1725891508747900400,10.230900390625,0.3202791213989258,-0.27097082138061523,1.9392733573913574
1725891508766749400,10.24974951171875,0.31654787063598633,0.3954296112060547,2.4065637588500977
1725891508785598500,10.268598388671874,0.10596990585327148,0.6394829750061035,1.9432146549224854
1725891508804447200,10.287447265625,0.6316499710083008,0.8582072257995605,1.5138766765594482
1725891508823296300,10.306296142578125,1.0649585723876953,0.7941393852233887,0.8272526264190674
1725891508842145000,10.32514501953125,0.7143940925598145,0.5526256561279297,0.6430597305297852
1725891508860994000,10.343994140625,0.4539670944213867,0.0116119384765625,0.8208391666412354
1725891508879843000,10.362843017578125,0.1755232810974121,-0.15523624420166016,1.3095195293426514
1725891508898691800,10.38169189453125,0.45781850814819336,0.656804084777832,1.4659407138824463
1725891508917540900,10.400540771484375,0.4215688705444336,1.3864898681640625,1.2632439136505127
1725891508936389600,10.4193896484375,0.04170370101928711,2.378804922103882,0.6277061700820923
1725891508955238700,10.43823876953125,-0.09259700775146484,0.7074522972106934,0.13369536399841309
1725891508974087400,10.45708740234375,0.25291919708251953,-1.7957220077514648,0.3256032466888428
1725891508992936400,10.4759365234375,0.5364999771118164,-3.038278579711914,0.2709474563598633
1725891509011785500,10.494785400390626,1.0238914489746094,-2.620645523071289,-0.780105710029602
1725891509030634200,10.51363427734375,0.09746837615966797,-2.5184597969055176,-1.5561859607696533
1725891509049483300,10.532483154296875,1.4176301956176758,0.026277542114257812,-1.6344919204711914
1725891509068332300,10.551332275390624,0.8543529510498047,-0.5051965713500977,-1.5976407527923584
1725891509087181000,10.57018115234375,1.1767959594726562,-0.01748180389404297,-1.0713186264038086
1725891509106030000,10.589030029296875,1.3264961242675781,-0.4740612506866455,-0.4483259320259094
1725891509124879000,10.607879150390625,1.1600780487060547,-0.6035251617431641,-0.4106074571609497
1725891509143727900,10.626727783203124,1.791646957397461,0.4553840160369873,-0.6375380754470825
1725891509162577000,10.645576904296876,3.336289405822754,1.0695269107818604,-0.8764318227767944
1725891509181425700,10.66442578125,1.7883281707763672,1.5372660160064697,-1.333086609840393
1725891509200274700,10.683274658203125,2.8773274421691895,1.2838456630706787,-1.3105605840682983
1725891509219123500,10.70212353515625,2.544466018676758,1.407794713973999,-2.4649722576141357
1725891509237972500,10.720972412109376,1.5432415008544922,1.088707685470581,-3.5569818019866943
1725891509256821500,10.739821533203125,1.9995784759521484,1.2207975387573242,-3.6256206035614014
1725891509275670300,10.758670166015625,1.5902042388916016,1.7067179679870605,-2.8003242015838623
1725891509294519300,10.777519287109374,1.5050010681152344,1.5168766975402832,-2.0251715183258057
1725891509313368000,10.7963681640625,0.2613644599914551,1.869167685508728,-2.1705029010772705
1725891509332217000,10.815217041015625,0.8460650444030762,1.2007408142089844,-1.1178779602050781
1725891509351066000,10.834066162109375,1.4421367645263672,0.46247053146362305,-1.3302762508392334
1725891509369915100,10.8529150390625,0.1294260025024414,0.3146491050720215,-0.787355899810791
1725891509388764000,10.871763916015626,0.6322841644287109,-1.0587158203125,-0.39445996284484863
1725891509407613000,10.890613037109375,1.259089469909668,-2.5368895530700684,-0.7925610542297363
1725891509426461700,10.909461669921875,0.3170809745788574,-2.015315532684326,-1.5364007949829102
1725891509445310700,10.928310791015624,-0.11035585403442383,-1.1513166427612305,-1.2701568603515625
1725891509464159700,10.94715966796875,-0.007685661315917969,-1.2027778625488281,-0.34753847122192383
1725891509483008500,10.966008544921875,-0.36318206787109375,-1.5281400680541992,0.3424670696258545
1725891509501857500,10.984857421875,-1.0578126907348633,-2.486971855163574,1.2765300273895264
1725891509520706300,11.003706298828124,-2.1807656288146973,-2.645285129547119,1.0230858325958252
1725891509539555300,11.022555419921876,-2.4064688682556152,-2.1796412467956543,0.8258521556854248
1725891509558404000,11.041404052734375,-2.5671210289001465,-2.269829273223877,1.4418234825134277
1725891509577253000,11.060253173828125,-2.531256675720215,-2.3730454444885254,2.3848094940185547
1725891509596102100,11.07910205078125,-1.7685542106628418,-1.9708166122436523,2.3131790161132812
1725891509614951200,11.097951171875,-0.7485852241516113,-2.511201858520508,1.9014239311218262
1725891509633800000,11.116800048828125,-0.5286369323730469,-2.1039648056030273,-0.033498287200927734
1725891509652649000,11.13564892578125,-0.13619613647460938,-0.757969856262207,-0.8150506019592285
1725891509671497700,11.154497802734374,-0.4488058090209961,-0.6908416748046875,-1.933438777923584
1725891509690346800,11.1733466796875,-0.32657384872436523,-0.7235183715820312,-1.2538650035858154
1725891509709195800,11.19219580078125,-0.316314697265625,-0.6508393287658691,-0.8625051975250244
1725891509728044500,11.21104443359375,-0.5050315856933594,-0.6704983711242676,-0.9309408664703369
1725891509746893600,11.2298935546875,-0.33175134658813477,-0.682978630065918,-0.8760740756988525
1725891509765742300,11.248742431640625,-0.014280319213867188,-0.3286433219909668,-1.1778948307037354
1725891509784591400,11.26759130859375,0.23421573638916016,-0.22554492950439453,-0.8363642692565918
1725891509803440400,11.2864404296875,0.17062139511108398,-0.798457145690918,-0.5589697360992432
1725891509822289200,11.3052890625,-0.42620277404785156,-1.1238279342651367,-0.2706129550933838
1725891509841138200,11.32413818359375,-1.2394204139709473,-1.059535026550293,0.17562103271484375
1725891509859987200,11.3429873046875,-1.6747994422912598,-1.1899585723876953,0.7113122940063477
1725891509878836000,11.3618359375,-1.1137313842773438,-1.2904505729675293,1.1100170612335205
1725891509897685000,11.38068505859375,-0.37542009353637695,-0.9875092506408691,1.023691177368164
1725891509916534000,11.399533935546875,0.13051795959472656,-0.7275590896606445,0.4215548038482666
1725891509935382800,11.4183828125,-0.026057720184326172,-0.7846393585205078,-0.17513394355773926
1725891509954231800,11.437231689453125,-0.2250819206237793,-1.110361099243164,0.06747674942016602
1725891509973080600,11.45608056640625,-0.1350727081298828,-1.6095213890075684,0.7932634353637695
1725891509991929600,11.4749296875,0.18861150741577148,-1.9146151542663574,1.1669895648956299
1725891510010778400,11.4937783203125,0.3133406639099121,-1.3088126182556152,0.9446780681610107
1725891510029627400,11.51262744140625,1.1534175872802734,-1.5319437980651855,1.0776722431182861
1725891510048476400,11.531476318359376,1.821277141571045,-1.4730401039123535,0.6882786750793457
1725891510067325200,11.5503251953125,1.4458503723144531,-0.08506584167480469,0.15971016883850098
1725891510086174200,11.56917431640625,1.1454715728759766,1.1916956901550293,-0.4365389347076416
1725891510105023200,11.588023193359374,1.0051994323730469,0.8185615539550781,-1.1791746616363525
1725891510123872000,11.6068720703125,1.6345224380493164,-0.533513069152832,-1.6227691173553467
1725891510142721000,11.625720947265625,1.5509328842163086,-0.5100772380828857,-1.6851067543029785
1725891510161570000,11.644570068359375,1.9410362243652344,-0.4544539451599121,-1.516648769378662
1725891510180418800,11.663418701171874,1.727196216583252,-0.3770558834075928,-1.3169026374816895
1725891510199267800,11.682267822265626,1.62727689743042,0.3046836853027344,-0.7787519693374634
1725891510218116600,11.70111669921875,1.9765739440917969,0.26733922958374023,-0.3453449606895447
1725891510236965600,11.719965576171875,2.7719035148620605,1.3476474285125732,-0.2657884359359741
1725891510255814700,11.738814697265624,3.176621437072754,2.0084145069122314,-1.146843433380127
1725891510274663400,11.757663330078126,2.2725167274475098,1.724107027053833,-1.027618169784546
1725891510293512400,11.776512451171875,2.6444177627563477,1.756892204284668,-0.925186276435852
1725891510312361500,11.795361572265625,2.3719043731689453,2.41502046585083,-1.2731328010559082
1725891510331210200,11.814210205078124,0.9795513153076172,2.080418109893799,-1.0597922801971436
1725891510350059300,11.833059326171876,1.5993356704711914,1.6279256343841553,-1.3320348262786865
1725891510368908300,11.851908203125,2.1865015029907227,1.5996034145355225,-1.1242871284484863
1725891510387757000,11.870757080078125,1.9251337051391602,1.214937448501587,-1.1710848808288574
1725891510406606000,11.889606201171874,1.3516011238098145,0.6158819198608398,-0.8579137325286865
1725891510425454800,11.908454833984376,1.2238173484802246,0.08201026916503906,-0.6017582416534424
1725891510444304000,11.927303955078125,1.000929832458496,-0.06227922439575195,-0.3027331829071045
1725891510463152600,11.946152587890625,0.7467641830444336,-0.21436405181884766,-0.010797262191772461
1725891510482001700,11.965001708984374,1.2094316482543945,-0.8534965515136719,0.7031705379486084
1725891510500850700,11.9838505859375,1.1659231185913086,-2.0739364624023438,0.974841833114624
1725891510519699500,12.002699462890625,0.3641319274902344,-2.1855268478393555,1.138493299484253
1725891510538548500,12.021548583984375,-0.027631759643554688,-0.919713020324707,0.5846030712127686
1725891510557397500,12.0403974609375,-0.0850381851196289,-1.781775951385498,0.01909017562866211
1725891510576246300,12.059246337890626,-0.9799160957336426,-2.6822452545166016,-0.1306934356689453
1725891510595095300,12.07809521484375,-1.5842161178588867,-3.0370140075683594,0.4288346767425537
1725891510613944300,12.0969443359375,-1.8774561882019043,-3.2276597023010254,1.3744621276855469
1725891510632793000,12.11579296875,-1.709625244140625,-3.0676231384277344,1.1693861484527588
1725891510651642000,12.13464208984375,-1.3993844985961914,-2.4249095916748047,1.4919438362121582
1725891510670491000,12.153490966796875,-1.0547480583190918,-1.8041419982910156,1.3438546657562256
1725891510689340000,12.17233984375,-0.7763476371765137,-1.3814716339111328,1.1820926666259766
1725891510708189000,12.19118896484375,-0.6135249137878418,-1.157109260559082,0.8991103172302246
1725891510727037700,12.21003759765625,-0.4458198547363281,-0.9425230026245117,0.6393916606903076
1725891510745886700,12.22888671875,-0.24495410919189453,-1.0009498596191406,0.44357943534851074
1725891510764735700,12.24773583984375,-0.21991539001464844,-0.6138200759887695,-0.11091351509094238
1725891510783584500,12.26658447265625,0.08184814453125,-0.15679597854614258,-0.1053764820098877
1725891510802433500,12.28543359375,0.19196701049804688,-0.2660083770751953,0.1746513843536377
1725891510821282600,12.304282470703125,0.15139007568359375,-0.31989526748657227,0.07126784324645996
1725891510840131300,12.32313134765625,0.19448375701904297,-0.15230417251586914,-0.08124542236328125
1725891510858980400,12.34198046875,-0.1649022102355957,0.09319686889648438,-0.02710866928100586
1725891510877829000,12.3608291015625,-0.38229942321777344,-0.05950736999511719,0.4928903579711914
1725891510896678100,12.37967822265625,-0.582944393157959,-0.3107738494873047,0.711338996887207
1725891510915527200,12.398527099609375,-0.6576776504516602,-0.6202735900878906,0.32886838912963867
1725891510934376000,12.4173759765625,-0.645728588104248,-0.7423152923583984,0.010071992874145508
1725891510953225000,12.436224853515625,-0.15209341049194336,-0.5592794418334961,0.22723722457885742
1725891510972074000,12.455073974609375,-0.30434179306030273,-0.6002840995788574,0.233381986618042
1725891510990922800,12.4739228515625,-0.5657572746276855,-1.0589752197265625,0.8377652168273926
1725891511009771800,12.492771728515624,-0.7766780853271484,-1.964430809020996,1.0189039707183838
1725891511028620500,12.51162060546875,-0.42861032485961914,-2.306544780731201,1.3079843521118164
1725891511047469600,12.530469482421875,0.5739226341247559,-2.3110499382019043,1.345391035079956
1725891511066318600,12.549318603515625,0.9167518615722656,-1.677896499633789,0.9907536506652832
1725891511085167400,12.56816748046875,0.3814563751220703,-0.7955427169799805,0.3448173999786377
1725891511104016400,12.587016357421875,0.3459939956665039,-0.5784173011779785,0.5843149423599243
1725891511122865400,12.605865478515625,1.295121192932129,0.4187350273132324,0.3430842161178589
1725891511141714200,12.624714111328124,1.9013276100158691,-0.4918384552001953,-0.23525750637054443
1725891511160563200,12.643563232421876,1.7431888580322266,-0.15136337280273438,-0.7876174449920654
1725891511179412200,12.662412109375,1.7596845626831055,0.5147130489349365,-1.6651582717895508
1725891511198261000,12.681260986328125,1.4215574264526367,0.9336018562316895,-1.5544432401657104
1725891511217110000,12.700110107421875,1.4672088623046875,-0.1178739070892334,-1.1280028820037842
1725891511235958800,12.718958740234376,1.4812126159667969,-0.5904042720794678,-0.5545587539672852
1725891511254807800,12.737807861328125,1.7332696914672852,-0.11272048950195312,-0.8116236329078674
1725891511273656800,12.75665673828125,1.4512300491333008,0.6418335437774658,-0.981809139251709
1725891511292505600,12.775505615234374,2.3251290321350098,0.8239915370941162,-1.427848219871521
1725891511311354600,12.794354736328126,2.8779296875,1.2010307312011719,-1.1589961051940918
1725891511330203600,12.81320361328125,2.352423667907715,1.3032329082489014,-1.0214852094650269
1725891511349052400,12.832052490234375,2.179716110229492,1.6283447742462158,-1.7032557725906372
1725891511367901400,12.8509013671875,1.7428789138793945,1.8092167377471924,-1.2633637189865112
1725891511386750500,12.86975048828125,2.0620741844177246,1.5780186653137207,-1.0644404888153076
1725891511405599200,12.88859912109375,1.4494004249572754,1.5085020065307617,-1.3145229816436768
1725891511424448300,12.9074482421875,2.2122764587402344,0.8939576148986816,-1.1558228731155396
1725891511443297000,12.926297119140624,2.5038013458251953,0.9503445625305176,-1.5204448699951172
1725891511462146000,12.94514599609375,1.376791000366211,1.2966485023498535,-1.6198365688323975
1725891511480994800,12.963994873046875,0.7211475372314453,0.797764778137207,-1.1990456581115723
1725891511499843800,12.98284375,0.8477740287780762,0.1408090591430664,-0.6503722667694092
1725891511518692900,13.00169287109375,1.3307228088378906,-0.15148305892944336,0.030645132064819336
1725891511537542000,13.0205419921875,1.0317883491516113,-0.15500879287719727,0.5856118202209473
1725891511556390700,13.039390625,1.1944499015808105,-0.7598199844360352,0.7838163375854492
1725891511575239700,13.05823974609375,0.6079950332641602,-1.703197956085205,1.1855318546295166
1725891511594088700,13.077088623046874,-0.24338912963867188,-2.461904525756836,1.282242774963379
1725891511612937500,13.0959375,-0.8992772102355957,-2.921041488647461,1.6728184223175049
1725891511631786500,13.114786376953125,-1.81178617477417,-4.334881782531738,1.1591596603393555
1725891511650635300,13.13363525390625,-2.2573819160461426,-4.262795925140381,0.41719675064086914
1725891511669484300,13.152484375,-1.7561845779418945,-3.1407060623168945,-0.23595523834228516
1725891511688333300,13.171333251953126,-1.2202367782592773,-1.9112434387207031,-0.7485318183898926
1725891511707182000,13.19018212890625,-1.0708088874816895,-1.2467975616455078,-0.20223069190979004
1725891511726031000,13.209031005859375,-0.9235272407531738,-1.431471347808838,0.43361997604370117
1725891511744880000,13.227880126953124,-0.616508960723877,-1.9174795150756836,1.0135087966918945
1725891511763729000,13.24672900390625,-0.47419214248657227,-1.7093448638916016,0.14146757125854492
1725891511782578000,13.265577880859375,-0.1605358123779297,-0.6363382339477539,-0.01045846939086914
1725891511801426700,13.2844267578125,-0.4942502975463867,-0.1940455436706543,-0.23504352569580078
1725891511820275700,13.303275634765624,-0.7850451469421387,-0.0392460823059082,0.2607128620147705
1725891511839124700,13.322124755859376,-0.8960657119750977,-0.20760726928710938,0.5421357154846191
1725891511857973500,13.340973388671875,-1.0198173522949219,-0.4187355041503906,0.012951374053955078
1725891511876822500,13.359822509765625,-0.8204622268676758,-0.6432476043701172,-0.0030815601348876953
1725891511895671600,13.378671630859374,-0.5092945098876953,-0.8221979141235352,0.307204008102417
1725891511914520600,13.3975205078125,-0.4061431884765625,-0.9649801254272461,0.46752309799194336
1725891511933369300,13.416369384765625,-0.22592830657958984,-0.9114861488342285,0.36962080001831055
1725891511952218400,13.43521826171875,-0.036226749420166016,-0.4232974052429199,0.2718162536621094
1725891511971067100,13.454067138671874,0.30301904678344727,-0.2793583869934082,-0.06659722328186035
1725891511989916200,13.472916259765626,-0.020306110382080078,-0.07670307159423828,-0.09134268760681152
1725891512008765000,13.491764892578125,-0.18280982971191406,-0.40047645568847656,0.7308340072631836
1725891512027614000,13.510614013671875,-0.7868337631225586,-1.173017978668213,1.3037409782409668
1725891512046463000,13.529462890625,-0.22793865203857422,-1.3981881141662598,1.5584373474121094
1725891512065312000,13.54831201171875,0.3535747528076172,-1.0252866744995117,1.329484462738037
1725891512084160800,13.567160888671875,0.4526405334472656,-0.8426880836486816,1.253812313079834
1725891512103009800,13.586009765625,0.38316917419433594,-0.27089834213256836,1.0884108543395996
1725891512121858600,13.604858642578124,0.09956169128417969,-1.2041635513305664,1.5567679405212402
1725891512140707600,13.62370751953125,0.40774011611938477,-2.0736570358276367,1.3547897338867188
1725891512159556600,13.642556640625,1.0748071670532227,-1.496492862701416,0.8683533668518066
1725891512178405400,13.6614052734375,1.8075313568115234,-0.8101701736450195,0.06373345851898193
1725891512197254400,13.68025439453125,1.132990837097168,0.5765566825866699,-0.7659950852394104
1725891512216103400,13.699103515625,1.460047721862793,-0.3593287467956543,-0.826572060585022
1725891512234952200,13.7179521484375,1.2816762924194336,-0.26995372772216797,-1.1932958364486694
1725891512253801200,13.73680126953125,1.43562650680542,0.7252867221832275,-0.8333740830421448
1725891512272650200,13.755650146484374,1.5063562393188477,0.43260693550109863,-0.8380186557769775
1725891512291499000,13.7744990234375,1.3587226867675781,-0.2533843517303467,-0.29923737049102783
1725891512310348000,13.79334814453125,2.0542001724243164,-0.6718189716339111,-0.4395422339439392
1725891512329196800,13.81219677734375,2.0908889770507812,0.578815221786499,-0.6652406454086304
1725891512348045800,13.8310458984375,2.8124189376831055,1.0583462715148926,-1.0529283285140991
1725891512366894800,13.849894775390625,3.150602340698242,2.0627965927124023,-1.2370235919952393
1725891512385743600,13.86874365234375,3.157271385192871,2.286095142364502,-0.9754725694656372
1725891512404592600,13.887592529296874,2.5070838928222656,1.5901083946228027,-1.1232575178146362
1725891512423441700,13.906441650390626,1.2956228256225586,1.6620378494262695,-1.407377004623413
1725891512442290400,13.92529052734375,1.8639144897460938,1.9904457330703735,-0.3480798006057739
1725891512461139500,13.944139404296875,2.25296688079834,1.586310863494873,-0.9971215724945068
1725891512479988500,13.962988525390625,0.39664649963378906,0.7398457527160645,-1.7146377563476562
1725891512498837200,13.981837158203126,0.5359382629394531,0.5108747482299805,-0.33385157585144043
1725891512517686300,14.000686279296875,1.9476070404052734,0.6129021644592285,-0.558114767074585
1725891512536535000,14.01953515625,0.8146295547485352,1.338240623474121,-1.169425129890442
1725891512555384000,14.038384033203124,0.6837797164916992,1.3768291473388672,-0.8620560169219971
1725891512574233000,14.057233154296876,1.407182216644287,1.0292458534240723,-0.812274694442749
1725891512593081900,14.076081787109375,1.3560056686401367,0.48909902572631836,-0.22100353240966797
1725891512611931000,14.094930908203125,1.3390560150146484,-0.7751040458679199,0.15548944473266602
1725891512630780000,14.11377978515625,0.7295546531677246,-2.638690948486328,0.6217408180236816
1725891512649628700,14.132628662109376,-0.16626262664794922,-3.093104362487793,-0.526292085647583
1725891512668477700,14.151477783203125,-0.8349976539611816,-1.610084056854248,1.2200064659118652
1725891512687326700,14.17032666015625,-1.1241588592529297,-3.157805919647217,1.0293381214141846
1725891512706175500,14.189175537109374,-1.3444108963012695,-3.586383819580078,0.2009117603302002
1725891512725024500,14.2080244140625,-1.1144075393676758,-3.1669297218322754,-0.8061189651489258
1725891512743873300,14.226873291015625,-1.8579802513122559,-2.1051034927368164,-0.24920034408569336
1725891512762722300,14.245722412109375,-1.9209346771240234,-1.9503426551818848,0.4647529125213623
1725891512781571300,14.2645712890625,-1.5642871856689453,-1.9342246055603027,0.09134101867675781
1725891512800420400,14.28342041015625,-1.045492172241211,-1.9814434051513672,1.0156631469726562
1725891512819269000,14.30226904296875,-0.9873027801513672,-1.869093894958496,0.1316661834716797
1725891512838118100,14.3211181640625,-0.5578498840332031,-1.0379867553710938,1.102243185043335
1725891512856967000,14.339966796875,-0.6440858840942383,-0.6482105255126953,-0.07155895233154297
1725891512875816000,14.35881591796875,-0.9266386032104492,-0.525456428527832,0.1025094985961914
1725891512894664700,14.377664794921875,-1.7449889183044434,-1.3139715194702148,1.0021398067474365
1725891512913513700,14.396513671875,-1.2277321815490723,-1.9958758354187012,-0.018750667572021484
1725891512932362800,14.41536279296875,0.15399599075317383,-1.229114055633545,-0.3197929859161377
1725891512951211800,14.434211669921876,-0.0007538795471191406,-0.08031845092773438,-0.39400625228881836
1725891512970060500,14.453060546875,0.287996768951416,-0.04136514663696289,2.61211895942688
1725891512988909600,14.47190966796875,-1.1979432106018066,-1.2460641860961914,2.359160900115967
1725891513007758600,14.490758544921874,-1.7301669120788574,-1.3947749137878418,1.337864637374878
1725891513026607400,14.509607421875,-0.9107489585876465,-0.6304130554199219,1.4499919414520264
1725891513045456400,14.528456298828125,0.6425881385803223,0.6392898559570312,2.137716293334961
1725891513064305200,14.54730517578125,1.3109683990478516,1.8994083404541016,0.9729087352752686
1725891513083154200,14.566154296875,0.9438209533691406,1.9685673713684082,0.8981902599334717
1725891513102003200,14.585003173828126,-0.37181711196899414,0.5274581909179688,0.14869391918182373
1725891513120852000,14.60385205078125,-0.5832991600036621,-0.3761610984802246,0.8630456924438477
1725891513139701000,14.622700927734375,-0.1737518310546875,-1.0214271545410156,1.2328860759735107
1725891513158550000,14.641550048828124,0.1779193878173828,-0.8489580154418945,0.6602065563201904
1725891513177398800,14.660398681640626,0.45454931259155273,-0.3009929656982422,0.560671329498291
1725891513196247800,14.679247802734375,0.37212467193603516,-0.35096073150634766,0.7476625442504883
1725891513215096800,14.698096923828125,0.4103260040283203,0.9126119613647461,0.5823934078216553
1725891513233945600,14.716945556640624,1.0857582092285156,0.7630519866943359,0.7883235812187195
1725891513252794600,14.735794677734376,1.221405029296875,0.11135149002075195,-0.1602497100830078
1725891513271643400,14.754643310546875,-0.29962730407714844,0.7886085510253906,-1.8152480125427246
1725891513290492400,14.773492431640625,0.24933910369873047,0.7758336067199707,-2.1710762977600098
1725891513309341400,14.792341552734374,0.9205923080444336,-1.6120951175689697,-1.5825754404067993
1725891513328190200,14.811190185546875,0.7005538940429688,-1.931840181350708,-0.7926902174949646
1725891513347039200,14.830039306640625,2.005122184753418,-2.078864574432373,-0.8384284377098083
1725891513365888300,14.84888818359375,2.2109556198120117,-1.077338695526123,-1.2790963649749756
1725891513384737000,14.867737060546874,1.1224994659423828,-0.5701644420623779,-1.6678071022033691
1725891513403586000,14.8865859375,2.1103458404541016,0.2728607654571533,-0.8871604800224304
1725891513422434800,14.905434814453125,2.6039342880249023,0.9319610595703125,-0.21933317184448242
1725891513441283800,14.924283935546875,3.6602396965026855,1.8320248126983643,-1.3743723630905151
1725891513460132900,14.9431328125,2.318514347076416,3.058809995651245,-1.1143133640289307
1725891513478981600,14.961981689453125,3.2918901443481445,2.012620449066162,-0.738102912902832
1725891513497830700,14.98083056640625,1.9018182754516602,2.810450315475464,-2.226332187652588
1725891513516679700,14.9996796875,0.31736183166503906,2.1093406677246094,-1.1319621801376343
1725891513535528400,15.018528564453124,2.959904670715332,1.3214731216430664,-1.161142110824585
1725891513554377500,15.03737744140625,1.6998991966247559,1.1635627746582031,-2.085080146789551
1725891513573226500,15.0562265625,0.5219459533691406,0.32657814025878906,-1.5009007453918457
1725891513592075300,15.0750751953125,1.1809196472167969,0.11556625366210938,-0.9092980623245239
1725891513610924300,15.09392431640625,0.29569292068481445,0.2962212562561035,-0.7425096035003662
1725891513629773000,15.11277294921875,-0.38295412063598633,0.15132379531860352,-0.2897334098815918
1725891513648622000,15.1316220703125,0.3272380828857422,-0.4966115951538086,1.1198062896728516
1725891513667470800,15.150470947265624,2.1320700645446777,-2.1087875366210938,1.6662776470184326
1725891513686319900,15.16931982421875,1.2309722900390625,-2.694681167602539,0.3646383285522461
1725891513705169000,15.1881689453125,0.15136957168579102,-1.9830021858215332,1.313847541809082
1725891513724017700,15.207017578125,-0.557887077331543,-0.5155200958251953,0.038294076919555664
1725891513742866700,15.22586669921875,-1.9101333618164062,-0.7875409126281738,0.3205435276031494
1725891513761715700,15.2447158203125,-2.2666015625,-2.3332157135009766,1.5702288150787354
1725891513780564700,15.263564697265625,-2.1193556785583496,-3.404843807220459,1.7650949954986572
1725891513799413500,15.28241357421875,-1.2455143928527832,-2.6727476119995117,0.8326952457427979
1725891513818262500,15.301262451171874,-1.1295785903930664,-2.656053066253662,0.8416900634765625
1725891513837111300,15.320111328125,-1.0553302764892578,-2.899648666381836,0.7035400867462158
1725891513855960300,15.338960205078125,-1.4991168975830078,-2.4910459518432617,0.9144687652587891
1725891513874809000,15.35780908203125,-1.0735673904418945,-1.5941448211669922,1.5616481304168701
1725891513893658000,15.376658203125,-0.774968147277832,-0.6049585342407227,0.36380553245544434
1725891513912507100,15.395507080078126,-0.5734667778015137,0.0186767578125,0.09737110137939453
1725891513931356000,15.41435595703125,-0.10213613510131836,0.029429912567138672,0.41059184074401855
1725891513950205000,15.433204833984375,0.14754104614257812,-0.061847686767578125,-0.11514139175415039
1725891513969054000,15.452053955078124,0.07272863388061523,0.04779529571533203,0.18659567832946777
1725891513987902700,15.47090283203125,-0.13713979721069336,-0.3887753486633301,0.5080997943878174
1725891514006751700,15.489751708984375,-0.4853668212890625,-1.2191991806030273,0.5326488018035889
1725891514025600800,15.508600830078125,-0.4408740997314453,-0.9425921440124512,0.9817209243774414
1725891514044449500,15.527449462890624,-0.29012584686279297,-0.6108264923095703,0.5259299278259277
1725891514063298600,15.546298583984376,0.3404855728149414,-0.14775705337524414,0.11430692672729492
1725891514082147300,15.565147216796875,0.6611146926879883,-0.1480097770690918,0.37682032585144043
1725891514100996400,15.583996337890625,-0.5111150741577148,-0.7518610954284668,0.9379353523254395
1725891514119845000,15.60284521484375,-1.1593818664550781,-1.7648816108703613,1.5307667255401611
1725891514138694100,15.621694091796876,-0.593498706817627,-2.2359275817871094,1.8173115253448486
1725891514157543200,15.640543212890625,0.7716622352600098,-1.6216397285461426,1.8326342105865479
1725891514176392200,15.65939208984375,1.406229019165039,-0.9502301216125488,0.7235031127929688
1725891514195241000,15.678240966796874,0.6530218124389648,-0.30164098739624023,0.41202282905578613
1725891514214090000,15.697090087890626,0.15087652206420898,-1.7176547050476074,0.9599466323852539
1725891514232939000,15.71593896484375,0.41564226150512695,-2.5829758644104004,1.0719678401947021
1725891514251787800,15.734787841796875,0.7252140045166016,-1.4637980461120605,0.6800072193145752
1725891514270636800,15.75363671875,1.3503704071044922,-0.5098042488098145,0.6715894937515259
1725891514289485600,15.772485595703126,1.3327398300170898,-0.1459031105041504,-0.5783852338790894
1725891514308334600,15.79133447265625,1.0944404602050781,0.5664792060852051,-0.7625072598457336
1725891514327183400,15.810183349609375,1.4923148155212402,0.40439343452453613,-0.7353132963180542
1725891514346032400,15.829032470703124,1.1403656005859375,0.34363555908203125,-0.835111141204834
1725891514364881400,15.84788134765625,1.072007179260254,0.25332021713256836,-0.812000572681427
1725891514383730200,15.866730224609375,2.1751065254211426,-0.08912158012390137,-0.37377625703811646
1725891514402579200,15.8855791015625,2.333751678466797,0.2178030014038086,-0.6018759608268738
1725891514421428200,15.90442822265625,2.8390302658081055,0.5642087459564209,-0.6752089262008667
1725891514440277000,15.923277099609376,1.9568500518798828,1.4921743869781494,-1.4623360633850098
1725891514459126000,15.9421259765625,1.7997970581054688,1.4782865047454834,-0.5189964175224304
1725891514477974800,15.960974853515625,2.5278639793395996,1.5554022789001465,-0.7105037569999695
1725891514496823800,15.97982373046875,2.2795472145080566,1.7002196311950684,-0.470395028591156
1725891514515672800,15.9986728515625,1.9139609336853027,2.051640033721924,-0.6559232473373413
1725891514534521600,16.017521484375,1.8944272994995117,1.380430817604065,-0.75261390209198
1725891514553370600,16.03637060546875,2.174222946166992,1.69076406955719,-0.8770996332168579
1725891514572219400,16.055219482421876,1.5238032341003418,1.062101125717163,-0.8286951780319214
1725891514591068400,16.074068359375,1.7846217155456543,0.908534049987793,-0.8011124134063721
1725891514609917400,16.09291748046875,1.4972620010375977,1.3874473571777344,-0.9624860286712646
1725891514628766200,16.11176611328125,1.2572731971740723,1.1811587810516357,-0.8392758369445801
1725891514647615200,16.130615234375,0.5834345817565918,0.7515096664428711,-0.4800267219543457
1725891514666464000,16.149464111328125,1.7746100425720215,-0.24416255950927734,-0.06301474571228027
1725891514685313000,16.16831298828125,1.9573698043823242,-0.7545404434204102,-0.8773994445800781
1725891514704162000,16.187162109375,0.5959057807922363,-1.0205774307250977,-0.599815845489502
1725891514723010800,16.2060107421875,0.8994841575622559,-2.2314090728759766,0.41362428665161133
1725891514741859800,16.22485986328125,0.44032716751098633,-3.2827248573303223,1.1553993225097656
1725891514760708900,16.243708984375,-0.7365975379943848,-1.385422706604004,0.7248950004577637
1725891514779557600,16.2625576171875,-1.6905817985534668,-1.2025747299194336,0.919684886932373
1725891514798406700,16.28140673828125,-2.0343427658081055,-1.2476654052734375,0.3059554100036621
1725891514817255700,16.300255615234374,-2.0153403282165527,-2.1829442977905273,0.5642359256744385
1725891514836104400,16.3191044921875,-1.9512672424316406,-3.0354013442993164,0.8416306972503662
1725891514854953500,16.337953369140624,-1.7241082191467285,-2.873906135559082,0.7142972946166992
1725891514873802200,16.35680224609375,-1.582047939300537,-2.4082183837890625,0.5419869422912598
1725891514892651300,16.3756513671875,-1.304825782775879,-1.774317741394043,0.578981876373291
1725891514911500000,16.3945,-0.7099447250366211,-1.1317510604858398,1.0705530643463135
1725891514930349000,16.41334912109375,-0.38846874237060547,-0.5856714248657227,1.121309757232666
1725891514949198000,16.432197998046874,-0.303957462310791,-0.9799203872680664,1.6535966396331787
1725891514968046800,16.451046875,-0.7813601493835449,-1.3795804977416992,0.502300500869751
1725891514986896000,16.469895751953125,-0.854334831237793,-0.3162674903869629,0.6304266452789307
1725891515005744600,16.48874462890625,-0.7361559867858887,0.16672706604003906,0.3680918216705322
1725891515024593700,16.50759375,-0.44898414611816406,0.07829904556274414,0.36856746673583984
1725891515043442700,16.526442626953123,0.4177274703979492,-0.3598442077636719,-0.07416152954101562
1725891515062291500,16.54529150390625,0.27307748794555664,-0.3197646141052246,0.13216233253479004
1725891515081140500,16.564140380859374,-0.03581714630126953,-0.7202854156494141,0.14305901527404785
1725891515099989200,16.5829892578125,-0.5639567375183105,-0.9376840591430664,-0.43706369400024414
1725891515118838300,16.60183837890625,-0.29871177673339844,-1.0465078353881836,-0.5513331890106201
1725891515137687300,16.620687255859377,-0.436826229095459,-1.1477580070495605,0.11425971984863281
1725891515156536000,16.6395361328125,0.1252427101135254,-1.062147617340088,0.4739725589752197
1725891515175385000,16.658385009765624,0.14194202423095703,-0.4425320625305176,1.0238800048828125
1725891515194234000,16.677234130859375,-0.6433892250061035,-0.48518848419189453,1.5590767860412598
1725891515213083000,16.696082763671875,-0.9669866561889648,-1.158027172088623,2.258906126022339
1725891515231932000,16.714931884765626,-0.2347722053527832,-1.7562685012817383,2.6934566497802734
1725891515250780700,16.73378076171875,1.3599176406860352,-1.7151479721069336,2.166438341140747
1725891515269629700,16.752629638671873,1.6174240112304688,-0.851259708404541,1.645280122756958
1725891515288478500,16.771478515625,0.8617157936096191,-0.6861577033996582,0.9628617763519287
1725891515307327500,16.790327392578124,0.6962490081787109,-1.0087652206420898,0.5488322973251343
1725891515326176500,16.809176513671876,1.0769166946411133,-1.2240986824035645,-0.17643606662750244
1725891515345025300,16.828025390625,0.6482954025268555,-0.0488133430480957,-0.37097054719924927
1725891515363874300,16.846874267578126,0.7336816787719727,-0.3830995559692383,-0.820340096950531
1725891515382723000,16.86572314453125,1.2176189422607422,-0.27880001068115234,-0.6784501075744629
1725891515401572000,16.884572021484374,2.4759507179260254,-0.750068187713623,-0.6316186189651489
1725891515420420900,16.9034208984375,2.540465831756592,0.9558999538421631,-1.2007123231887817
1725891515439270000,16.922269775390625,2.376918315887451,0.8873076438903809,-1.4785114526748657
1725891515458119000,16.941118896484376,1.9508576393127441,0.7387692928314209,-0.8440415859222412
1725891515476967700,16.9599677734375,1.2392044067382812,0.033362388610839844,-0.1886424422264099
1725891515495816700,16.978816650390623,1.159987449645996,-0.07367086410522461,-0.5311904549598694
1725891515514665500,16.99766552734375,2.259242057800293,1.3782482147216797,-0.5354868173599243
1725891515533514500,17.016514404296874,3.296569347381592,2.165729522705078,-0.865231990814209
1725891515552363500,17.035363525390625,2.5062131881713867,2.865356206893921,-1.8793686628341675
1725891515571212300,17.05421240234375,1.3432154655456543,2.2133822441101074,-0.7751295566558838
1725891515590061300,17.073061279296876,1.155221939086914,1.6223331689834595,-1.0566294193267822
1725891515608910000,17.09191015625,0.6993780136108398,1.7905999422073364,-0.20662927627563477
1725891515627759000,17.110759033203124,1.544295310974121,0.7082846164703369,-0.15934991836547852
1725891515646608100,17.129608154296875,2.0745749473571777,1.0192742347717285,-0.5612108707427979
1725891515665457000,17.148456787109374,1.5679349899291992,1.7878913879394531,-1.4121404886245728
1725891515684306000,17.167305908203126,0.87945556640625,2.1489715576171875,-1.713757038116455
1725891515703155000,17.186155029296874,0.45282649993896484,1.7087783813476562,-1.2572468519210815
1725891515722003700,17.205003662109377,1.2017178535461426,0.004453182220458984,-0.45026421546936035
1725891515740852700,17.223852783203125,1.7163515090942383,-1.9501099586486816,-0.359921932220459
1725891515759701500,17.242701416015624,1.596447467803955,-3.0412254333496094,-0.47675442695617676
1725891515778550500,17.261550537109375,0.7966618537902832,-3.3999099731445312,-0.5362541675567627
1725891515797399300,17.2803994140625,0.6178345680236816,-2.203019618988037,0.1608419418334961
1725891515816248300,17.299248291015626,-0.19184017181396484,-1.8026223182678223,0.9684183597564697
1725891515835097300,17.318097412109374,-0.872286319732666,-1.516603946685791,1.157646894454956
1725891515853946000,17.336946044921874,-1.716017723083496,-0.8577537536621094,0.6426799297332764
1725891515872795100,17.355795166015625,-1.8038992881774902,-1.0614018440246582,0.9702978134155273
1725891515891644000,17.374643798828124,-2.068894386291504,-2.177741050720215,1.752908706665039
1725891515910493000,17.393492919921876,-1.751986026763916,-2.8860769271850586,2.087414026260376
1725891515929341700,17.412341796875,-1.517721176147461,-2.9648427963256836,1.6042873859405518
1725891515948190700,17.431190673828127,-1.2809314727783203,-1.8761329650878906,1.0390496253967285
1725891515967039700,17.450039794921874,-1.2538199424743652,-1.347712516784668,0.9846560955047607
1725891515985888500,17.468888427734374,-1.0884289741516113,-1.4892911911010742,1.2973263263702393
1725891516004737500,17.487737548828125,-1.0381278991699219,-1.3757991790771484,1.1918621063232422
1725891516023586300,17.50658642578125,-0.766359806060791,-0.396026611328125,1.300004243850708
1725891516042435300,17.525435302734376,-0.182403564453125,0.22851181030273438,0.6585183143615723
1725891516061284000,17.5442841796875,0.28613853454589844,0.7757506370544434,-0.1862020492553711
1725891516080133000,17.563133056640623,0.5142931938171387,0.8635120391845703,-0.7666873931884766
1725891516098982000,17.58198193359375,0.028335094451904297,0.11200857162475586,-0.003347635269165039
1725891516117831000,17.600830810546874,-0.392941951751709,-1.4073810577392578,0.22999024391174316
1725891516136680000,17.619679931640626,-0.6588921546936035,-1.9805021286010742,-0.24393463134765625
1725891516155528700,17.63852880859375,-0.16581153869628906,-1.1343307495117188,-0.17284750938415527
1725891516174377700,17.657377685546876,0.17360496520996094,-0.4808616638183594,-0.33345460891723633
1725891516193226500,17.6762265625,0.7054710388183594,0.04890155792236328,0.3474893569946289
1725891516212075500,17.695075439453124,0.021805286407470703,-0.17249727249145508,1.0713715553283691
1725891516230924300,17.71392431640625,-0.8442354202270508,-1.048882007598877,1.2662608623504639
1725891516249773300,17.732773193359375,-0.5141572952270508,-1.8909592628479004,1.3287270069122314
1725891516268622300,17.751622314453126,0.09486532211303711,-2.0822696685791016,1.3033027648925781
1725891516287471000,17.77047119140625,0.11081743240356445,-1.878288745880127,1.4937105178833008
1725891516306320100,17.789320068359373,0.34928226470947266,-1.3838233947753906,1.4301435947418213
1725891516325169000,17.8081689453125,0.42391252517700195,-1.2877883911132812,1.411052942276001
1725891516344018000,17.827017822265624,1.0433921813964844,-1.3567042350769043,0.9230687618255615
1725891516362866700,17.84586669921875,0.6285648345947266,-0.24580621719360352,0.41525113582611084
1725891516381715700,17.8647158203125,1.089385986328125,-0.517646312713623,0.044145822525024414
1725891516400564700,17.883564697265626,1.4432573318481445,-0.29759788513183594,-0.6448328495025635
1725891516419413500,17.90241357421875,2.174894332885742,-0.5529212951660156,-1.2526148557662964
1725891516438262500,17.921262451171874,2.0361037254333496,0.5550079345703125,-1.3288278579711914
1725891516457111300,17.940111328125,1.599757194519043,2.0216424465179443,-1.096041202545166
1725891516475960300,17.958960205078125,1.5896058082580566,0.7330987453460693,-0.910463809967041
1725891516494809000,17.97780908203125,0.7050037384033203,-0.20078492164611816,-0.2850157618522644
1725891516513658000,17.996658203125,0.6057624816894531,0.26308178901672363,-0.11040934920310974
1725891516532507100,18.015507080078127,1.606424331665039,0.059958457946777344,0.20265501737594604
1725891516551356000,18.03435595703125,2.059786796569824,0.7867484092712402,-0.3528808355331421
1725891516570205000,18.053204833984374,1.7029142379760742,1.4889907836914062,-0.8837524652481079
1725891516589053700,18.0720537109375,2.0667428970336914,1.3713231086730957,-0.843605637550354
1725891516607902700,18.09090283203125,1.3553533554077148,1.3805224895477295,-0.4967265725135803
1725891516626751500,18.10975146484375,1.7049922943115234,1.229149580001831,-0.8607394695281982
1725891516645600500,18.1286005859375,1.8798084259033203,1.7247023582458496,-0.8686051368713379
1725891516664449500,18.147449462890624,1.9965400695800781,1.2735893726348877,-0.658454179763794
1725891516683298300,18.16629833984375,2.2436389923095703,1.3782424926757812,-1.1907061338424683
1725891516702147300,18.185147216796874,1.6206045150756836,1.5192255973815918,-1.023877501487732
1725891516720996000,18.20399609375,1.8239226341247559,1.5554265975952148,-0.621380090713501
1725891516739845000,18.22284521484375,1.467782974243164,1.6928362846374512,-0.7574267387390137
1725891516758694000,18.24169384765625,0.9056768417358398,1.7095637321472168,-0.8386920690536499
1725891516777543000,18.26054296875,1.3254733085632324,1.3849906921386719,-0.6292047500610352
1725891516796392000,18.279391845703124,1.3331866264343262,0.6921901702880859,-0.2651841640472412
1725891516815240700,18.29824072265625,1.5555729866027832,-0.0375823974609375,-0.08069133758544922
1725891516834089700,18.31708984375,1.0734081268310547,-0.9549727439880371,0.30182552337646484
1725891516852938500,18.3359384765625,-0.10136270523071289,-2.804706573486328,0.5364031791687012
1725891516871787500,18.35478759765625,-0.7301969528198242,-3.275859832763672,1.1963739395141602
1725891516890636300,18.37363623046875,-1.3416767120361328,-2.8250479698181152,0.6681489944458008
1725891516909485300,18.3924853515625,-1.4938488006591797,-2.530582904815674,0.820772647857666
1725891516928334000,18.411333984375,-1.340047836303711,-1.7764196395874023,0.09612107276916504
1725891516947183000,18.43018310546875,-1.2610764503479004,-1.066835880279541,-0.17644977569580078
1725891516966032100,18.4490322265625,-0.738192081451416,-1.750777244567871,0.4854736328125
1725891516984881000,18.467880859375,-0.8687272071838379,-3.053603172302246,1.2781198024749756
1725891517003730000,18.48672998046875,-1.0456194877624512,-3.0132217407226562,1.5452191829681396
1725891517022578700,18.50557861328125,-1.3482108116149902,-2.026373863220215,1.3457553386688232
1725891517041427700,18.524427734375,-0.940300464630127,-1.0850286483764648,1.4598863124847412
1725891517060276500,18.5432763671875,-0.8644294738769531,-0.5776243209838867,0.7082052230834961
1725891517079125500,18.56212548828125,-0.3933711051940918,-0.2741413116455078,0.5392088890075684
1725891517097974500,18.580974609375,-0.31905317306518555,-0.3139944076538086,0.21075654029846191
1725891517116823300,18.5998232421875,-0.43339967727661133,-0.1087045669555664,0.793311357498169
1725891517135672300,18.61867236328125,-0.5811257362365723,-0.3502993583679199,0.7223279476165771
1725891517154521000,18.63752099609375,-0.6429452896118164,-0.27088165283203125,0.6067235469818115
1725891517173370000,18.6563701171875,-0.19240903854370117,-0.22446870803833008,0.6726140975952148
1725891517192219000,18.675218994140625,-0.26746463775634766,-0.31208229064941406,0.5221071243286133
1725891517211068000,18.69406787109375,-0.013647079467773438,-0.5542149543762207,0.7453105449676514
1725891517229917000,18.7129169921875,-0.2787456512451172,-1.1593341827392578,0.747417688369751
1725891517248765700,18.731765625,-0.4574875831604004,-1.3552298545837402,0.043935298919677734
1725891517267614700,18.75061474609375,-0.5556941032409668,-0.9620299339294434,0.003627300262451172
1725891517286463500,18.76946337890625,-0.23952865600585938,-0.743344783782959,0.6077187061309814
1725891517305312500,18.7883125,0.05455827713012695,-0.85650634765625,1.3169715404510498
1725891517324161300,18.807161376953125,0.1100306510925293,-1.1899914741516113,1.3546075820922852
1725891517343010300,18.82601025390625,0.4675741195678711,-1.2068939208984375,1.1574904918670654
1725891517361859300,18.844859375,0.522343635559082,-0.8111739158630371,1.0820956230163574
1725891517380708000,18.8637080078125,0.0491032600402832,-0.24528980255126953,1.0680687427520752
1725891517399557000,18.88255712890625,0.25624513626098633,-0.7295875549316406,1.0905840396881104
1725891517418406000,18.901406005859375,0.6186203956604004,-1.4719538688659668,0.9617040157318115
1725891517437255000,18.9202548828125,1.271529197692871,-0.7323036193847656,0.6622334718704224
1725891517456103700,18.939103759765626,1.5433073043823242,-0.5643148422241211,0.8579908609390259
1725891517474952700,18.95795263671875,1.289055347442627,0.11817264556884766,0.21156716346740723
1725891517493801500,18.976801513671877,1.0012321472167969,0.4209742546081543,-0.5579596757888794
1725891517512650500,18.995650390625,1.0961685180664062,-0.02026224136352539,-0.981963038444519
1725891517531499500,19.01449951171875,1.0149974822998047,-0.44682860374450684,-0.7347028255462646
1725891517550348300,19.033348388671875,1.3664536476135254,0.20201826095581055,-0.34818530082702637
1725891517569197300,19.052197265625,1.2409749031066895,0.8693907260894775,-0.7364192008972168
1725891517588046000,19.071046142578126,1.1903343200683594,0.4804661273956299,-0.428649365901947
1725891517606895000,19.08989501953125,1.8541498184204102,0.6110424995422363,-0.5268452167510986
1725891517625744000,19.108743896484373,1.3665642738342285,0.40203309059143066,-0.6446108818054199
1725891517644593000,19.127593017578125,1.8914175033569336,0.5516893863677979,-0.5299757122993469
1725891517663442000,19.14644189453125,2.46974515914917,1.3426488637924194,-0.5972424745559692
1725891517682290700,19.165290771484376,2.4674105644226074,1.3335344791412354,-0.579582691192627
1725891517701139700,19.1841396484375,2.44484806060791,1.453186273574829,-1.2795952558517456
1725891517719988500,19.202988525390627,1.7146110534667969,1.769382357597351,-1.0755656957626343
1725891517738837500,19.22183740234375,2.0664281845092773,1.7458899021148682,-0.9099709987640381
1725891517757686300,19.240686279296874,1.5578327178955078,2.0812768936157227,-1.4705417156219482
1725891517776535300,19.259535400390625,1.0054359436035156,1.7342641353607178,-1.1827572584152222
1725891517795384000,19.278384033203125,1.6454157829284668,1.3033370971679688,-0.7445626258850098
1725891517814233000,19.297233154296876,1.381800651550293,1.3015315532684326,-0.7166562080383301
1725891517833081900,19.316081787109376,1.0273761749267578,1.0979795455932617,-0.3262639045715332
1725891517851931000,19.334930908203123,1.3396563529968262,0.5462441444396973,0.2215263843536377
1725891517870779600,19.353779541015626,1.03200101852417,0.004204750061035156,0.05162787437438965
1725891517889628700,19.372628662109374,0.5924420356750488,-0.368924617767334,0.2938671112060547
1725891517908477700,19.391477783203126,0.6867666244506836,-1.4596233367919922,0.7377524375915527
1725891517927326500,19.410326416015625,0.3063058853149414,-3.28177547454834,0.6556739807128906
1725891517946175500,19.429175537109376,0.308687686920166,-2.625612258911133,0.32968735694885254
1725891517965024300,19.448024169921876,-0.7844681739807129,-2.847548484802246,-0.047243595123291016
1725891517983873300,19.466873291015624,-1.3561296463012695,-1.8181500434875488,0.2237110137939453
1725891518002722000,19.48572216796875,-1.7625203132629395,-0.9930787086486816,0.682715654373169
1725891518021571000,19.504571044921875,-1.682812213897705,-0.7403769493103027,1.6946096420288086
1725891518040419800,19.523419921875,-1.49745512008667,-1.4506430625915527,1.6729047298431396
1725891518059268900,19.542268798828125,-1.2282800674438477,-1.8582544326782227,1.3852910995483398
1725891518078117600,19.56111767578125,-0.7217264175415039,-2.0942325592041016,1.0405957698822021
1725891518132294400,19.61529443359375,-1.1086931228637695,-1.1236448287963867,1.3260974884033203
1725891518151143200,19.63414306640625,-1.0482940673828125,-1.5396642684936523,0.9850585460662842
1725891518169992200,19.6529921875,-0.8040781021118164,-0.719477653503418,0.5148239135742188
1725891518188841000,19.671841064453126,0.031543731689453125,-0.46628570556640625,0.3715181350708008
1725891518207690000,19.69068994140625,0.23719310760498047,-0.18348407745361328,-0.41703033447265625
1725891518226539000,19.7095390625,0.3648080825805664,-0.1907362937927246,-0.45426297187805176
1725891518245387800,19.7283876953125,-0.1746230125427246,-0.45945310592651367,-0.3460879325866699
1725891518264236800,19.74723681640625,-0.5637068748474121,-0.43861865997314453,-0.16922473907470703
1725891518283085600,19.76608544921875,-0.580991268157959,-0.7154960632324219,0.12698125839233398
1725891518301934600,19.7849345703125,-0.23887395858764648,-0.806337833404541,0.1814882755279541
1725891518320783400,19.803783447265626,-0.16607046127319336,-0.7914700508117676,0.10141992568969727
1725891518339632400,19.82263232421875,-0.5479121208190918,-0.8103179931640625,0.5068585872650146
1725891518358481200,19.841481201171874,0.01353311538696289,-0.4085850715637207,0.9039502143859863
1725891518377330200,19.860330078125,0.7332901954650879,0.14197111129760742,0.9496431350708008
1725891518396179000,19.879178955078125,-0.11104440689086914,-0.07142972946166992,1.2204434871673584
1725891518415028000,19.898028076171876,-0.6826510429382324,-0.9742045402526855,1.9928345680236816
1725891518433876700,19.916876708984375,-0.34101390838623047,-1.6036710739135742,1.9203815460205078
1725891518452725800,19.935725830078123,0.7028203010559082,-1.5572381019592285,1.6576943397521973
1725891518471574800,19.95457470703125,0.8004336357116699,-1.2040042877197266,1.1682071685791016
1725891518490423600,19.973423583984374,0.6305727958679199,-1.35953950881958,0.9011757373809814
1725891518509272600,19.9922724609375,0.9154548645019531,-1.770059585571289,1.1129324436187744
1725891518528121300,20.011121337890625,0.7129664421081543,-0.8912539482116699,0.6428745985031128
1725891518546970400,20.029970458984376,0.8772683143615723,-0.4894437789916992,-0.21379828453063965
1725891518565819100,20.048819091796876,0.8559484481811523,0.7298636436462402,-0.6528618335723877
1725891518584668200,20.067668212890624,1.8348288536071777,0.1887679100036621,-0.5963360667228699
1725891518603517000,20.086516845703127,1.5888175964355469,0.3605930805206299,-1.0471625328063965
1725891518622366000,20.105365966796874,1.5011091232299805,0.36435723304748535,-1.0998258590698242
1725891518641214700,20.124214599609374,1.1661767959594727,1.4099323749542236,-1.0368491411209106
1725891518660063700,20.143063720703125,0.859431266784668,0.08099079132080078,-0.6153011918067932
1725891518678912800,20.161912841796877,1.596156120300293,-0.1743936538696289,-0.4384186863899231
1725891518697761500,20.180761474609376,1.297114372253418,-0.018599748611450195,-0.18446218967437744
1725891518716610600,20.199610595703124,1.8954029083251953,0.6994273662567139,-0.49123653769493103
1725891518735459300,20.218459228515623,1.7511873245239258,1.6920297145843506,-1.0880095958709717
1725891518754308400,20.237308349609375,2.317854881286621,1.133258581161499,-0.20583868026733398
1725891518773157000,20.2561572265625,2.253481388092041,1.4773046970367432,-0.5683850646018982
1725891518792006100,20.275006103515626,1.9487872123718262,2.1387758255004883,-0.7503305077552795
1725891518810855000,20.29385498046875,1.627537727355957,1.882881760597229,-0.802751362323761
1725891518829704000,20.312703857421877,1.3013830184936523,1.5030683279037476,-0.5469856262207031
1725891518848552700,20.331552734375,0.6466960906982422,1.0010647773742676,-0.6159110069274902
1725891518867401700,20.350401611328124,1.249342441558838,1.2319326400756836,-0.4660940170288086
1725891518886250500,20.36925048828125,1.9203410148620605,0.664240837097168,-0.8324377536773682
1725891518905099500,20.388099609375,1.810401439666748,0.8253445625305176,-0.9249813556671143
1725891518923948500,20.406948486328126,1.0013737678527832,1.0587737560272217,-0.3490486145019531
1725891518942797300,20.42579736328125,0.41368675231933594,0.6437487602233887,-0.029610633850097656
1725891518961646300,20.444646240234373,0.5379366874694824,-0.08464241027832031,0.6533620357513428
1725891518980495000,20.4634951171875,1.3480515480041504,-1.2648468017578125,0.7010431289672852
1725891518999344000,20.48234423828125,1.0808916091918945,-1.635937213897705,0.23288702964782715
1725891519018193000,20.50119287109375,0.3068099021911621,-1.6592707633972168,0.01766228675842285
1725891519037042000,20.5200419921875,-0.3537726402282715,-0.9087095260620117,0.011028766632080078
1725891519055890700,20.538890625,-0.5819206237792969,-2.333958625793457,0.7411270141601562
1725891519074739700,20.55773974609375,-1.0306572914123535,-2.6114463806152344,0.7948904037475586
1725891519093588500,20.57658837890625,-0.6365184783935547,-2.2236833572387695,0.840919017791748
1725891519112437500,20.5954375,-0.8240265846252441,-1.866340160369873,-0.1083076000213623
1725891519131286300,20.614286376953125,-0.5267853736877441,-1.4423637390136719,0.2111954689025879
1725891519150135300,20.63313525390625,-1.007347583770752,-2.0284194946289062,0.7203876972198486
1725891519168984300,20.651984375,-1.0298070907592773,-2.5706653594970703,1.4570858478546143
1725891519187833000,20.6708330078125,-0.8906979560852051,-2.2087745666503906,1.1072711944580078
1725891519206682000,20.68968212890625,-0.7263898849487305,-1.2686357498168945,1.6208155155181885
1725891519225531000,20.70853076171875,-0.7119598388671875,-1.3706741333007812,1.191633701324463
1725891519244380000,20.7273798828125,-1.2872395515441895,-1.0935039520263672,0.803842306137085
1725891519263228700,20.746228759765625,-1.1977176666259766,-0.9625959396362305,1.1645967960357666
1725891519282077700,20.76507763671875,-0.8445987701416016,-0.7126131057739258,0.4211142063140869
1725891519300926500,20.783926513671876,-0.2547316551208496,-0.0742182731628418,0.04317593574523926
1725891519319775500,20.802775390625,0.25498437881469727,-0.07837677001953125,0.12505841255187988
1725891519338624300,20.821624267578127,-0.008099079132080078,-0.14217424392700195,0.04551410675048828
1725891519357473300,20.840473388671874,-0.23122072219848633,-0.49288225173950195,0.9217722415924072
1725891519376322000,20.859322021484374,-0.3513016700744629,-0.9775333404541016,0.8307070732116699
1725891519395171000,20.878171142578125,0.011232376098632812,-0.5726871490478516,0.16176199913024902
1725891519414020000,20.89702001953125,0.14464092254638672,0.2022686004638672,-0.1294841766357422
1725891519432868900,20.915868896484376,0.11115169525146484,0.2143082618713379,-0.1316385269165039
1725891519451718000,20.9347177734375,-0.36738061904907227,-0.4770946502685547,0.46378016471862793
1725891519470566700,20.953566650390623,-0.46896886825561523,-0.8973193168640137,1.0957343578338623
1725891519489415700,20.972415771484375,-0.21231746673583984,-1.1595368385314941,1.6338975429534912
1725891519508264400,20.991264404296874,0.9186339378356934,-1.075911521911621,1.0107741355895996
1725891519527113500,21.010113525390626,0.5887470245361328,-0.607513427734375,0.8300650119781494
1725891519545962200,21.028962158203125,0.1833820343017578,-0.9471631050109863,1.0701992511749268
1725891519564811300,21.047811279296877,-0.23292207717895508,-1.1452317237854004,1.1193952560424805
1725891519583660000,21.066659912109376,-0.6620450019836426,-1.4684648513793945,1.1420488357543945
1725891519602509000,21.085509033203124,0.32312726974487305,-1.838569164276123,1.864069938659668
1725891519621358000,21.104358154296875,2.1173033714294434,-1.3949813842773438,1.175838828086853
1725891519640206800,21.123206787109375,1.1195039749145508,0.05549192428588867,0.09636557102203369
1725891519659055900,21.142055908203126,0.12670326232910156,1.114743947982788,-0.23311805725097656
1725891519677904600,21.160904541015626,0.6233806610107422,0.3921818733215332,-0.6514463424682617
1725891519696753700,21.179753662109373,0.869143009185791,0.3293464183807373,-0.3410158157348633
1725891519715602400,21.1986025390625,1.895482063293457,-0.7870020866394043,-0.6640486717224121
1725891519734451500,21.217451416015624,1.7594866752624512,-0.9938309192657471,-0.6534634232521057
1725891519753300200,21.23630029296875,1.8864407539367676,0.3890256881713867,-0.6841824054718018
1725891519772149200,21.255149169921875,1.6395759582519531,0.8187675476074219,-0.7617230415344238
1725891519790998000,21.273998046875,1.0163888931274414,0.820404052734375,-0.34716856479644775
1725891519809847000,21.292846923828126,2.7483606338500977,1.419791579246521,-0.6713496446609497
1725891519828695800,21.31169580078125,2.4689278602600098,1.9651089906692505,-1.202343463897705
1725891519847544800,21.330544921875,1.8922629356384277,1.170459270477295,-0.6740082502365112
1725891519866393900,21.349393798828125,3.033694267272949,1.3925814628601074,-0.32231712341308594
1725891519885242600,21.36824267578125,1.886190414428711,1.995112419128418,-1.4488455057144165
1725891519904091600,21.387091552734375,0.1684722900390625,2.267932415008545,-0.8121325373649597
1725891519922940400,21.4059404296875,1.455296516418457,1.2256906032562256,-0.017261862754821777
1725891519941789400,21.42478955078125,1.9227113723754883,0.8313241004943848,-0.6069403886795044
1725891519960638200,21.44363818359375,1.880772590637207,1.5554099082946777,-0.5037468671798706
1725891519979487200,21.4624873046875,1.3635501861572266,1.3967814445495605,-1.1011970043182373
1725891519998336300,21.481336181640625,0.37728071212768555,1.9503421783447266,-0.488300085067749
1725891520017185000,21.50018505859375,2.1008710861206055,1.2601511478424072,0.5147378444671631
1725891520036034000,21.519033935546876,1.5708980560302734,0.39671993255615234,-0.538935661315918
1725891520054882800,21.5378828125,0.9998698234558105,-0.3110623359680176,-0.38129234313964844
1725891520073731800,21.55673193359375,2.203824043273926,-2.0875725746154785,-0.576678991317749
1725891520092580600,21.57558056640625,0.47757387161254883,-2.278810977935791,-0.45925140380859375
1725891520111429600,21.5944296875,-0.17779541015625,-1.7726521492004395,0.8715546131134033
1725891520130278400,21.6132783203125,-0.324338436126709,-1.6010475158691406,1.0559134483337402
1725891520149127400,21.63212744140625,-0.8683829307556152,-2.3710384368896484,0.3965027332305908
1725891520167976400,21.6509765625,-0.6130409240722656,-2.3452773094177246,0.5511951446533203
1725891520186825200,21.6698251953125,-0.8249444961547852,-2.0774154663085938,-0.28432321548461914
1725891520205674200,21.68867431640625,-1.857673168182373,-0.8666605949401855,-0.2647075653076172
1725891520224523000,21.70752294921875,-2.294674873352051,-2.738560199737549,0.39176201820373535
1725891520243372000,21.7263720703125,-2.0994930267333984,-4.304386138916016,2.3599207401275635
1725891520262220800,21.745220703125,-0.8189563751220703,-3.2444076538085938,3.5126311779022217
1725891520281069800,21.76406982421875,-0.6060709953308105,-0.33069610595703125,1.1663119792938232
1725891520299918800,21.7829189453125,-0.1690502166748047,0.8338146209716797,1.194939374923706
1725891520318767600,21.801767578125,-0.6361870765686035,-0.0063037872314453125,1.7732844352722168
1725891520337616600,21.82061669921875,-1.0420317649841309,-1.5407629013061523,1.8192055225372314
1725891520356465400,21.83946533203125,-0.9797854423522949,-2.0876073837280273,1.4826655387878418
1725891520375314400,21.858314453125,-0.607452392578125,-0.4848499298095703,-1.1857608556747437
1725891520394163200,21.8771630859375,0.3141322135925293,1.3201723098754883,-1.4220703840255737
1725891520413012200,21.89601220703125,0.5760293006896973,0.34926700592041016,0.37101244926452637
1725891520431861200,21.914861328125,-0.1737527847290039,-1.878274917602539,-0.14823126792907715
1725891520450710000,21.9337099609375,0.024200439453125,-1.6209149360656738,-0.13371777534484863
1725891520469559000,21.95255908203125,-0.40036869049072266,-0.22655200958251953,-0.5895187854766846
1725891520488407800,21.97140771484375,-0.3307352066040039,0.5703535079956055,0.0876319408416748
1725891520507256800,21.9902568359375,-0.3885769844055176,-0.7289695739746094,1.170661449432373
1725891520526105900,22.00910595703125,-1.3394579887390137,-1.9008469581604004,0.6048448085784912
1725891520544954600,22.02795458984375,-0.7475051879882812,-0.7585268020629883,0.7066454887390137
1725891520563803600,22.0468037109375,0.9364633560180664,0.5188841819763184,0.6307382583618164
1725891520582652400,22.06565234375,1.0865325927734375,0.7901144027709961,0.257476806640625
1725891520601501400,22.08450146484375,-0.5371556282043457,-0.1714468002319336,0.8954696655273438
1725891520620350500,22.1033505859375,-0.6298933029174805,-1.356302261352539,0.9987285137176514
1725891520639199200,22.12219921875,0.07986688613891602,-1.505366325378418,1.1133487224578857
1725891520658048300,22.14104833984375,0.22993040084838867,-0.9817843437194824,1.4350554943084717
1725891520676897000,22.15989697265625,0.7253179550170898,-0.6322541236877441,1.07895827293396
1725891520695746000,22.17874609375,0.8198485374450684,-1.29042387008667,0.5488724708557129
1725891520714595000,22.197594970703125,-0.446685791015625,-0.5679960250854492,0.8351857662200928
1725891520733443800,22.21644384765625,0.746788501739502,-0.9108772277832031,0.4880906343460083
1725891520752292900,22.23529296875,0.6492347717285156,-0.651700496673584,-0.39053773880004883
1725891520771141600,22.2541416015625,0.4194459915161133,0.8895461559295654,-0.7522896528244019
1725891520789990700,22.27299072265625,1.6101889610290527,0.23084735870361328,-0.8565109968185425
1725891520808839700,22.291839599609375,1.8004841804504395,0.07065582275390625,-1.2882498502731323
1725891520827688400,22.3106884765625,1.3967738151550293,0.09117531776428223,-0.9207233190536499
1725891520846537500,22.329537353515626,0.4682168960571289,1.199000358581543,-0.9067326188087463
1725891520865386500,22.348386474609374,1.4837865829467773,-0.38824963569641113,-0.691184401512146
1725891520884235300,22.3672353515625,1.6071267127990723,0.5036478042602539,-0.7856205701828003
1725891520903084300,22.386084228515625,1.9338011741638184,1.2523205280303955,-1.301418662071228
1725891520921933000,22.40493310546875,2.583515167236328,0.7934563159942627,-1.4408807754516602
1725891520940782000,22.423781982421875,1.1665000915527344,1.231866717338562,-1.2742440700531006
1725891520959631000,22.442631103515627,1.7489495277404785,0.9430243968963623,-0.15875661373138428
1725891520978479900,22.46147998046875,3.3188490867614746,1.1346033811569214,-1.0115206241607666
1725891520997329000,22.480328857421874,0.5218133926391602,1.8690131902694702,-1.4512547254562378
1725891521016178000,22.499177978515625,1.3494863510131836,1.866996169090271,-0.3315722942352295
1725891521035026700,22.518026611328125,2.3123221397399902,1.682346224784851,-1.6846776008605957
1725891521053875700,22.536875732421876,0.9504189491271973,1.7530863285064697,-1.783492088317871
1725891521072724500,22.555724365234376,2.099766254425049,1.6969730854034424,-0.370342493057251
1725891521091573500,22.574573486328124,1.7696290016174316,1.3444185256958008,-1.522672414779663
1725891521110422500,22.593422607421875,0.19934749603271484,1.5839943885803223,-1.6219607591629028
1725891521129271300,22.612271240234374,0.9035749435424805,1.2867562770843506,-0.5662176609039307
1725891521148120300,22.631120361328126,1.2287487983703613,0.4927530288696289,-0.5873756408691406
1725891521166969300,22.64996923828125,0.31379222869873047,0.12889432907104492,-0.4353673458099365
1725891521185818000,22.668818115234377,0.045523643493652344,-0.7648777961730957,0.3914322853088379
1725891521204667100,22.687667236328124,-0.46552610397338867,-1.8645038604736328,1.0402846336364746
1725891521223516000,22.706515869140624,-0.4268016815185547,-3.345691680908203,1.252533197402954
1725891521242365000,22.725364990234375,-0.637019157409668,-2.3266682624816895,0.43476414680480957
1725891521261214000,22.7442138671875,-1.407170295715332,-2.8032760620117188,0.21757173538208008
1725891521280063000,22.76306298828125,-1.678868293762207,-2.6327924728393555,-0.13852667808532715
1725891521298911700,22.781911865234374,-1.874173641204834,-2.051342487335205,0.5391232967376709
1725891521317760800,22.8007607421875,-1.1504206657409668,-1.8414230346679688,1.3172719478607178
1725891521336609800,22.81960986328125,-1.057349681854248,-1.4468321800231934,0.9253523349761963
1725891521355458600,22.83845849609375,-0.7641587257385254,-0.566929817199707,0.8871231079101562
1725891521374307600,22.8573076171875,-0.9129691123962402,-1.2082099914550781,1.3290047645568848
1725891521393156600,22.876156494140623,-0.9376139640808105,-2.0743494033813477,0.6599855422973633
1725891521412005400,22.89500537109375,-0.7131166458129883,-1.4867324829101562,0.36545825004577637
1725891521430854400,22.9138544921875,-0.7073979377746582,-0.34178924560546875,0.259371280670166
1725891521449703200,22.932703125,-0.8274989128112793,-0.5657615661621094,0.0886387825012207
1725891521468552200,22.95155224609375,-1.0625252723693848,-0.5466594696044922,0.05676603317260742
1725891521487401200,22.970401123046877,-0.5843710899353027,-0.39640140533447266,0.03337883949279785
1725891521506250000,22.98925,-0.8995771408081055,-0.559539794921875,-0.7343330383300781
1725891521525099000,23.00809912109375,-0.6755681037902832,-0.667356014251709,-0.05813717842102051
1725891521543948000,23.026947998046875,-0.35033512115478516,-1.1610603332519531,0.1900947093963623
1725891521562796800,23.045796875,-0.04876708984375,-0.8751158714294434,0.059073686599731445
1725891521581645800,23.064645751953126,0.23095941543579102,-0.2377185821533203,-0.18694210052490234
1725891521600494800,23.083494873046874,0.2942647933959961,0.23847675323486328,0.3242225646972656
1725891521619343600,23.102343505859373,0.02450084686279297,0.08971595764160156,0.21647143363952637
1725891521638192600,23.121192626953125,-0.3197317123413086,-0.18152379989624023,-0.26087498664855957
1725891521657041700,23.140041748046876,-1.0761356353759766,-0.7545680999755859,0.43454670906066895
1725891521675890700,23.158890625,-1.4567689895629883,-1.5009698867797852,1.0160646438598633
1725891521694739500,23.177739501953123,-0.611229419708252,-0.9197354316711426,1.0893161296844482
1725891521713588500,23.19658837890625,0.6917095184326172,-0.30811500549316406,0.5146434307098389
1725891521732437500,23.2154375,0.04006767272949219,-0.11593341827392578,0.5920555591583252
1725891521751286300,23.234286376953126,0.13914012908935547,-0.5742416381835938,0.9163460731506348
1725891521770135300,23.25313525390625,-0.053965091705322266,-0.7296690940856934,1.2706775665283203
1725891521788984300,23.271984375,-0.19790363311767578,-0.7136573791503906,1.5166029930114746
1725891521807833000,23.2908330078125,0.8510351181030273,-2.2628493309020996,1.1075537204742432
1725891521826682000,23.30968212890625,0.6387624740600586,-1.3005170822143555,-0.007544994354248047
1725891521845531100,23.32853125,0.9250669479370117,-0.5010228157043457,-0.2930046319961548
1725891521864380200,23.347380126953126,1.5086703300476074,0.34934473037719727,-1.357232689857483
1725891521883229000,23.36622900390625,0.6018433570861816,0.8883543014526367,-1.5744240283966064
1725891521902078000,23.385077880859374,0.24344635009765625,0.18403053283691406,-0.7760140299797058
1725891521920927000,23.403927001953125,1.2064900398254395,-0.5424695014953613,-0.7648282051086426
1725891521939775700,23.422775634765625,1.0241765975952148,-0.12351083755493164,-1.340734839439392
1725891521958624800,23.441624755859376,1.087573528289795,0.895334005355835,-0.933897852897644
1725891521977473800,23.460473876953124,1.2877120971679688,-0.033336639404296875,-1.0193336009979248
1725891521996322800,23.47932275390625,0.9649505615234375,0.39651036262512207,-0.7396236658096313
1725891522015171600,23.498171630859375,2.016374111175537,0.9603919982910156,-1.0214436054229736
1725891522034020600,23.5170205078125,3.049238681793213,1.4534591436386108,-1.3925490379333496
1725891522052869600,23.53586962890625,1.640533447265625,2.0269739627838135,-1.0032463073730469
1725891522071718400,23.554718505859373,2.259730815887451,1.552708387374878,-0.6240633726119995
1725891522090567400,23.5735673828125,2.499732494354248,1.5347976684570312,-0.9160310626029968
1725891522109416400,23.59241650390625,1.7756743431091309,1.9266406297683716,-1.7117490768432617
1725891522128265500,23.611265380859376,0.44837474822998047,2.2792513370513916,-1.8624300956726074
1725891522147114200,23.6301142578125,1.2855420112609863,1.325279712677002,-0.9420100450515747
