time,seconds_elapsed,z,y,x
1725891498597805800,0.080805908203125,-0.33231043815612793,-0.44180795550346375,-0.08177952468395233
1725891498616654600,0.099654541015625,0.16004657745361328,-0.4027126133441925,0.16562071442604065
1725891498635503400,0.11850341796875,0.20219624042510986,-0.022449281066656113,0.3840048611164093
1725891498654352100,0.13735205078125,-0.027488915249705315,-0.30894485116004944,0.47899433970451355
1725891498673201000,0.156200927734375,-0.2101374864578247,-0.4482220411300659,0.4612792730331421
1725891498692049700,0.175049560546875,-0.2779434621334076,-0.6265945434570312,0.40233081579208374
1725891498710898400,0.1938984375,-0.3704894781112671,-0.6290380358695984,0.3128391206264496
1725891498729747200,0.212747314453125,-0.5708531141281128,-0.48243045806884766,0.14607304334640503
1725891498748596000,0.231595947265625,-0.6230821013450623,-0.37583455443382263,-0.022220205515623093
1725891498767444500,0.250444580078125,-0.5732966065406799,-0.31291547417640686,-0.13248129189014435
1725891498786293200,0.269293212890625,-0.5748237371444702,-0.2228129357099533,-0.22288928925991058
1725891498805142000,0.28814208984375,-0.6215549111366272,-0.12812888622283936,-0.3108538091182709
1725891498823990800,0.30699072265625,-0.5962040424346924,-0.1262962967157364,-0.32795801758766174
1725891498842839600,0.325839599609375,-0.5534434914588928,-0.26251915097236633,-0.2479347437620163
1725891498861688300,0.344688232421875,-0.41355544328689575,-0.6782126426696777,-0.15386156737804413
1725891498880537000,0.363537109375,-0.3738492429256439,-0.7295252680778503,-0.3545306324958801
1725891498899385600,0.382385498046875,-0.2886336147785187,-0.4845684766769409,-0.3917934000492096
1725891498918234400,0.401234375,-0.34208428859710693,-0.7063124179840088,-0.23419028520584106
1725891498937083100,0.420083251953125,-0.7354812026023865,-0.4442514181137085,-0.13309216499328613
1725891498955932000,0.438931884765625,-1.164919137954712,0.4445568323135376,-0.08636100590229034
1725891498974780700,0.45778076171875,-1.5134174823760986,1.2820523977279663,0.08804088830947876
1725891498993629200,0.476629150390625,-1.9923354387283325,1.7444771528244019,0.3632354736328125
1725891499012478000,0.49547802734375,-2.623969554901123,1.5062397718429565,0.7361684441566467
1725891499031326700,0.51432666015625,-3.042412042617798,0.4173733592033386,1.1249839067459106
1725891499050175500,0.533175537109375,-3.0827291011810303,-2.2337796688079834,0.6927970051765442
1725891499069024300,0.552024169921875,-2.953836679458618,-4.4582438468933105,0.11400263756513596
1725891499087873000,0.570873046875,-3.00698184967041,-4.121963024139404,-0.20028728246688843
1725891499106721800,0.5897216796875,-3.037219762802124,-3.1897830963134766,-0.14256057143211365
1725891499125570300,0.6085703125,-2.715599298477173,-2.431089162826538,-0.04451677203178406
1725891499144419000,0.627419189453125,-2.081827163696289,-1.734092354774475,0.022067490965127945
1725891499163267800,0.646267822265625,-1.4868448972702026,-0.4243983030319214,0.15095995366573334
1725891499182116600,0.66511669921875,-1.1753038167953491,1.799760341644287,0.2972620725631714
1725891499200965400,0.68396533203125,-0.9660826325416565,4.169915676116943,0.2700785994529724
1725891499219814100,0.702814208984375,-0.3689623177051544,3.900218963623047,0.01718057133257389
1725891499238663000,0.721662841796875,0.2461785078048706,2.402378559112549,-0.26534438133239746
1725891499257511700,0.74051171875,0.15057817101478577,1.6546800136566162,-0.733572244644165
1725891499276360200,0.759360107421875,-0.007941242307424545,0.9216422438621521,-0.9000328779220581
1725891499295209000,0.778208984375,-0.1997527778148651,-0.09178243577480316,-0.761366605758667
1725891499314057700,0.7970576171875,-0.047036588191986084,-0.24724751710891724,-0.7124974131584167
1725891499332906500,0.815906494140625,0.10384701192378998,-0.4766272306442261,-0.7528144717216492
1725891499351755300,0.83475537109375,0.10629047453403473,-0.09269873052835464,-0.6630173325538635
1725891499370604000,0.85360400390625,0.16126830875873566,1.806479811668396,-0.02588539570569992
1725891499389452800,0.872452880859375,0.09498947113752365,1.5065453052520752,0.4612792730331421
1725891499408301600,0.891301513671875,0.006108647678047419,0.772591233253479,0.5312232971191406
1725891499427150300,0.910150390625,0.25381430983543396,0.4686860144138336,0.2719111740589142
1725891499445998800,0.928998779296875,1.0903936624526978,0.9781472086906433,-0.06742420047521591
1725891499464847600,0.94784765625,1.8503093719482422,-0.18524473905563354,-0.00847574882209301
1725891499483696400,0.9666962890625,1.9394956827163696,-0.6528617143630981,-0.0017562361899763346
1725891499502545200,0.985545166015625,1.7837251424789429,0.04657844081521034,0.16653701663017273
1725891499521394000,1.004393798828125,1.6658282279968262,0.6449204683303833,0.4502837061882019
1725891499540242700,1.02324267578125,1.8658864498138428,1.2261583805084229,0.7810669541358948
1725891499559091500,1.042091552734375,2.355494499206543,1.9283473491668701,1.1787399053573608
1725891499577940200,1.060940185546875,2.7711880207061768,1.486692190170288,1.7590614557266235
1725891499596788700,1.079788818359375,3.1667230129241943,1.3245075941085815,2.538524866104126
1725891499615637500,1.098637451171875,3.5469863414764404,1.5071561336517334,3.452073335647583
1725891499634486300,1.117486328125,3.948629856109619,-1.068860650062561,3.7107744216918945
1725891499653335000,1.1363349609375,3.327991247177124,-2.4738495349884033,4.193357467651367
1725891499672183800,1.155183837890625,2.777602195739746,-1.8825324773788452,5.060480117797852
1725891499691032600,1.174032470703125,2.822500705718994,-1.7683007717132568,5.826809883117676
1725891499709881300,1.19288134765625,2.8536548614501953,-1.623220443725586,6.388805866241455
1725891499728730000,1.211730224609375,2.906494617462158,-1.2817469835281372,6.466385364532471
1725891499747579000,1.230578857421875,3.61021089553833,-0.1464548259973526,5.542757987976074
1725891499766427400,1.249427490234375,4.19144868850708,-0.10766492038965225,3.73734712600708
1725891499785276200,1.268276123046875,4.402807712554932,-0.2597702443599701,2.0486114025115967
1725891499804124700,1.287124755859375,4.24215030670166,-0.2176205813884735,0.9795980453491211
1725891499822973400,1.305973388671875,3.836841583251953,-0.24174973368644714,0.6020836234092712
1725891499841822200,1.324822265625,3.254687547683716,-0.15531237423419952,0.9163735508918762
1725891499860671000,1.3436708984375,2.6557345390319824,0.20387612283229828,1.6295582056045532
1725891499879519700,1.362519775390625,2.2174391746520996,-0.4335612654685974,2.1955244541168213
1725891499898368300,1.3813681640625,1.8768820762634277,-1.0013600587844849,2.515617609024048
1725891499917217000,1.400217041015625,1.8884884119033813,-1.0062470436096191,2.8833580017089844
1725891499936065800,1.419065673828125,2.2812745571136475,-0.5022835731506348,2.985067129135132
1725891499954914600,1.43791455078125,2.4990477561950684,-0.0062613640911877155,2.673220634460449
1725891499973763300,1.456763427734375,2.059225082397461,0.17791436612606049,1.867795467376709
1725891499992612000,1.475612060546875,1.5409064292907715,0.5337430834770203,1.2737294435501099
1725891500011460900,1.4944609375,1.18446683883667,0.5010618567466736,0.960355818271637
1725891500030309600,1.5133095703125,0.952032744884491,0.5569559335708618,0.8876628875732422
1725891500049158100,1.532158203125,0.9477567076683044,0.8868229389190674,0.9875392913818359
1725891500068007000,1.5510068359375,1.1087195873260498,0.9567669630050659,1.0666462182998657
1725891500086855700,1.569855712890625,1.2440260648727417,0.8339831233024597,1.126205563545227
1725891500105704400,1.588704345703125,1.2617411613464355,0.7680097222328186,1.1674389839172363
1725891500124553200,1.60755322265625,1.025336503982544,-0.13271036744117737,1.1304816007614136
1725891500143402000,1.626402099609375,0.9138537049293518,-2.6250386238098145,0.9927316308021545
1725891500162250800,1.645250732421875,1.3823870420455933,-3.5141522884368896,1.6796491146087646
1725891500181099500,1.664099609375,0.8900299668312073,-2.9216134548187256,1.4374412298202515
1725891500199948300,1.6829482421875,-0.36743515729904175,-2.635423421859741,0.9456950426101685
1725891500218796800,1.701796875,-0.7388409376144409,-1.2695297002792358,2.650007724761963
1725891500237645600,1.7206455078125,-0.9511164426803589,-0.2331976294517517,3.4114506244659424
1725891500256494300,1.739494384765625,-1.4789036512374878,0.6305651664733887,2.0235660076141357
1725891500275343000,1.758343017578125,-1.7791436910629272,0.24999640882015228,1.1793508529663086
1725891500294191900,1.77719189453125,-1.4144574403762817,0.4839576184749603,1.1368956565856934
1725891500313040600,1.79604052734375,-0.880256175994873,0.43722647428512573,1.193095326423645
1725891500331889400,1.814889404296875,-0.20219624042510986,0.05085449293255806,1.1643846035003662
1725891500350738200,1.83373828125,-0.11056652665138245,1.2118029594421387,-0.18532110750675201
1725891500369586700,1.852586669921875,-0.4663952589035034,0.7319687008857727,0.15676318109035492
1725891500388435500,1.871435546875,-0.4046979248523712,0.8407026529312134,0.06360629200935364
1725891500407284200,1.8902841796875,-0.2159406989812851,1.2270746231079102,-0.3355938494205475
1725891500426133000,1.909133056640625,-0.02626718580722809,0.9976949095726013,-0.42966702580451965
1725891500444981800,1.927981689453125,-0.18081597983837128,1.1467459201812744,-0.5823832154273987
1725891500463830500,1.94683056640625,-0.06352993845939636,1.1546871662139893,-0.7809142470359802
1725891500482679300,1.96567919921875,-0.10720676928758621,0.6882919073104858,-0.5967385172843933
1725891500501528000,1.984528076171875,-0.38301220536231995,0.9341649413108826,-0.8145118355751038
1725891500520376800,2.003376953125,-0.4471530318260193,1.2689188718795776,-1.1153627634048462
1725891500539225300,2.022225341796875,-0.3689623177051544,0.8846849203109741,-0.9876919984817505
1725891500558074000,2.04107421875,-0.45326167345046997,0.7738129496574402,-1.011210322380066
1725891500576923000,2.0599228515625,-0.46547895669937134,0.8886555433273315,-1.1361321210861206
1725891500595771600,2.078771728515625,-0.29596397280693054,0.523052990436554,-0.9800561666488647
1725891500614620400,2.097620361328125,-0.3530798554420471,0.47784897685050964,-0.9641736745834351
1725891500633469200,2.11646923828125,-0.3995055556297302,0.5093085169792175,-0.9708932042121887
1725891500652318000,2.13531787109375,-0.4153880476951599,0.3605629503726959,-0.8514691591262817
1725891500671166700,2.154166748046875,-0.4007273018360138,0.2338084876537323,-0.7824414372444153
1725891500690015500,2.173015380859375,-0.34147340059280396,0.19410228729248047,-0.7897717952728271
1725891500708864300,2.1918642578125,-0.40714138746261597,0.25182899832725525,-0.825812816619873
1725891500727713000,2.210713134765625,-0.42882707715034485,0.08750637620687485,-0.835281252861023
1725891500746561800,2.229561767578125,-0.3610210716724396,0.07834340631961823,-0.9504292607307434
1725891500765410600,2.24841064453125,-0.24220788478851318,-0.008399390615522861,-1.0469459295272827
1725891500784259300,2.26725927734375,-0.20616686344146729,-0.05849030241370201,-1.2656354904174805
1725891500803107800,2.28610791015625,-0.39370235800743103,0.3556760251522064,-1.786703109741211
1725891500821956600,2.30495654296875,-0.546113133430481,0.6727148294448853,-2.139477491378784
1725891500840805400,2.323805419921875,-0.33628106117248535,0.22739441692829132,-2.068617105484009
1725891500859654100,2.342654052734375,-0.059864748269319534,-0.3223838806152344,-1.9485822916030884
1725891500878503200,2.361503173828125,-0.011911863461136818,-0.5981893539428711,-1.7760130167007446
1725891500897351700,2.3803515625,-0.05070177838206291,-0.4992292523384094,-1.8306853771209717
1725891500916200400,2.399200439453125,0.003665188793092966,-0.6467530727386475,-1.943084478378296
1725891500935049200,2.41804931640625,0.17715078592300415,-0.8043562173843384,-1.733863353729248
1725891500953898000,2.43689794921875,0.430659681558609,-0.20723587274551392,-1.657199740409851
1725891500972746800,2.455746826171875,0.014966187067329884,-0.2493855506181717,-1.6773582696914673
1725891500991595500,2.474595458984375,-0.010384701192378998,-0.1104138121008873,-1.6724714040756226
1725891501010444300,2.4934443359375,-0.10720676928758621,-0.031612250953912735,-1.5783982276916504
1725891501029293000,2.51229296875,-0.2519817352294922,0.11743875592947006,-1.4482840299606323
1725891501048141800,2.531141845703125,0.1441640853881836,-0.2435823380947113,-1.1526254415512085
1725891501066990600,2.549990478515625,0.3836230933666229,-0.781143307685852,-0.8945351243019104
1725891501085839400,2.56883935546875,-0.33536475896835327,-0.005650499369949102,-1.0554980039596558
1725891501104688000,2.587688232421875,-0.10506874322891235,-0.2799287736415863,-0.7958804368972778
1725891501123537000,2.606536865234375,-0.12553271651268005,-0.40973755717277527,-0.7732784748077393
1725891501142385700,2.6253857421875,-0.41355544328689575,0.03558287397027016,-0.9537889957427979
1725891501161234400,2.644234375,0.06261363625526428,-0.45188722014427185,-0.8303943276405334
1725891501180083200,2.663083251953125,0.3808741867542267,-0.2133445292711258,-0.8310051560401917
1725891501198932000,2.681931884765625,-0.11545344442129135,-0.42164942622184753,-0.5930733680725098
1725891501217780700,2.70078076171875,-0.14752385020256042,-0.6018545031547546,-0.3365101218223572
1725891501236629500,2.71962939453125,-0.08338304609060287,-0.6113229393959045,-0.06711876392364502
1725891501255478300,2.738478271484375,0.054672397673130035,-0.6913462281227112,0.2086866796016693
1725891501274327000,2.7573271484375,-0.07910698652267456,-0.44761115312576294,0.5028180480003357
1725891501293175800,2.77617578125,0.3555232882499695,-1.5453351736068726,1.5391501188278198
1725891501312024600,2.795024658203125,0.022296564653515816,-0.004734201822429895,0.8430697321891785
1725891501330873300,2.813873291015625,-0.11453714966773987,-0.023976443335413933,1.3690242767333984
1725891501349722000,2.83272216796875,0.6071996092796326,-0.6629409790039062,1.089859127998352
1725891501368571000,2.85157080078125,-0.2620609998703003,-0.734106719493866,1.2587631940841675
1725891501387419600,2.870419677734375,0.07849612087011337,-0.5633700489997864,1.2126429080963135
1725891501406268400,2.889268310546875,-0.3805687427520752,-0.09269873052835464,0.8464295268058777
1725891501425117200,2.9081171875,-0.379347026348114,0.31444263458251953,0.5040398240089417
1725891501443966000,2.926966064453125,-0.08307760953903198,0.15806126594543457,0.2300669401884079
1725891501462814700,2.945814697265625,-0.06383536756038666,0.2542724609375,-0.34292420744895935
1725891501481663500,2.96466357421875,-0.024434590712189674,-0.1766926348209381,-0.24915647506713867
1725891501500512300,2.98351220703125,0.19181154668331146,0.015729768201708794,-0.2989419400691986
1725891501519361000,3.002361083984375,0.05283980444073677,0.23105959594249725,-0.34261879324913025
1725891501538209800,3.021209716796875,-0.04886918142437935,0.12324196845293045,-0.32795801758766174
1725891501557058600,3.04005859375,0.564439058303833,-0.10797034949064255,0.02695440873503685
1725891501575907300,3.0589072265625,0.0616973415017128,0.08292489498853683,-0.6902008652687073
1725891501594756000,3.077756103515625,0.0513126403093338,-0.02764163166284561,-0.8416953086853027
1725891501613604900,3.09660498046875,0.34086254239082336,-1.3361139297485352,0.8522327542304993
1725891501632453600,3.11545361328125,0.4046979248523712,-0.8706350326538086,1.876042127609253
1725891501651302400,3.134302490234375,0.49968740344047546,-0.4595230221748352,2.085263252258301
1725891501670151200,3.153151123046875,0.7150171995162964,0.08048143237829208,1.9352959394454956
1725891501689000000,3.172,0.31154105067253113,0.8565851449966431,1.8341978788375854
1725891501707848700,3.1908486328125,-0.11881320178508759,1.1953096389770508,0.6995165348052979
1725891501726697500,3.209697509765625,0.09498947113752365,0.9989166259765625,-0.3823249936103821
1725891501745546200,3.228546142578125,0.37812530994415283,1.0713040828704834,-1.0142645835876465
1725891501764395000,3.24739501953125,0.16646064817905426,0.5282453298568726,-0.7308233380317688
1725891501783243800,3.266243896484375,-0.1233946830034256,0.09544762223958969,-0.01030834298580885
1725891501802092500,3.285092529296875,-0.3335321843624115,0.17547090351581573,0.7056251764297485
1725891501820941300,3.30394140625,-0.4868592321872711,-0.021227551624178886,-0.23388485610485077
1725891501839790000,3.3227900390625,0.0665842592716217,0.1360701322555542,0.2664133906364441
1725891501858639000,3.34163916015625,-0.14508038759231567,0.17791436612606049,1.3290126323699951
1725891501877487900,3.36048779296875,-0.4108065664768219,0.6421716213226318,1.5840487480163574
1725891501896336400,3.37933642578125,-0.11056652665138245,0.7643445730209351,2.4902665615081787
1725891501915185400,3.398185302734375,0.06230820715427399,0.3370446562767029,2.892826557159424
1725891501934034200,3.4170341796875,-0.05345066636800766,0.23747368156909943,2.5595998764038086
1725891501952883000,3.435883056640625,-0.7574723362922668,0.5545125007629395,1.773111343383789
1725891501971731700,3.454731689453125,-2.299905776977539,0.21029019355773926,1.912388563156128
1725891501990580500,3.47358056640625,-3.3292131423950195,0.7209731340408325,1.6020692586898804
1725891502009429200,3.49242919921875,-4.079354763031006,-0.17913609743118286,1.6573524475097656
1725891502028278000,3.511278076171875,-5.026195526123047,-0.03405570983886719,2.284099817276001
1725891502047126800,3.530126708984375,-5.339569091796875,0.19379685819149017,2.871140718460083
1725891502065975600,3.5489755859375,-5.166388988494873,0.670576810836792,2.493626356124878
1725891502084824300,3.56782421875,-4.21954870223999,1.049007534980774,1.4383574724197388
1725891502103673000,3.586673095703125,-2.7925684452056885,1.6433789730072021,0.6842449307441711
1725891502122521900,3.60552197265625,-1.7553199529647827,2.1665847301483154,0.38583746552467346
1725891502141371000,3.624370849609375,-1.5748094320297241,2.5801401138305664,0.4493674039840698
1725891502160219400,3.643219482421875,-1.830456256866455,2.5468480587005615,0.8241329193115234
1725891502179068200,3.662068115234375,-1.8005239963531494,2.2566871643066406,1.5681662559509277
1725891502197917200,3.680917236328125,-1.5839723348617554,1.661399483680725,1.739513874053955
1725891502216766000,3.699765869140625,-0.6236929297447205,0.9686788320541382,1.2483785152435303
1725891502235614700,3.71861474609375,0.5491674542427063,1.0740530490875244,0.3082576394081116
1725891502254463500,3.73746337890625,1.4077378511428833,0.8058833479881287,-1.269911527633667
1725891502273312300,3.756312255859375,2.302043914794922,0.24785839021205902,-2.935128927230835
1725891502292161000,3.7751611328125,3.2476625442504883,-0.2994764447212219,-3.977874994277954
1725891502311009800,3.794009765625,3.774228096008301,-0.911562979221344,-4.18098783493042
1725891502329858600,3.812858642578125,4.062556266784668,-1.0997092723846436,-3.595168352127075
1725891502348707300,3.831707275390625,3.99566650390625,-1.2524255514144897,-2.7103307247161865
1725891502367556400,3.850556396484375,3.5802783966064453,-1.1281145811080933,-1.6724714040756226
1725891502386405000,3.869405029296875,2.9153521060943604,-1.2096649408340454,-0.9015600681304932
1725891502405254000,3.88825390625,1.9199479818344116,-1.4393501281738281,-0.4635699987411499
1725891502424102700,3.9071025390625,1.3393210172653198,-1.513264775276184,-0.7002801299095154
1725891502442951400,3.925951416015625,1.5796962976455688,-1.2942698001861572,-1.444618821144104
1725891502461800200,3.94480029296875,2.1615450382232666,-0.6592758297920227,-2.4449098110198975
1725891502480649200,3.963649169921875,1.7418808937072754,-1.401476502418518,-2.904891014099121
1725891502499497700,3.982497802734375,1.3964369297027588,-1.6953024864196777,-2.519129991531372
1725891502518346800,4.0013466796875,1.5381574630737305,-1.00594162940979,-2.2078943252563477
1725891502537195500,4.020195556640625,2.3784019947052,-1.2961024045944214,-1.3187806606292725
1725891502556044300,4.039044189453125,3.4016005992889404,-3.3351690769195557,-0.6236165761947632
1725891502574893000,4.05789306640625,3.789194345474243,-2.7982187271118164,-0.6364447474479675
1725891502593741800,4.076741943359375,4.000858783721924,-1.1675152778625488,-1.018235206604004
1725891502612590600,4.095590576171875,3.976118803024292,-1.6033673286437988,-1.2415063381195068
1725891502631439600,4.114439697265625,3.5246896743774414,-1.7838778495788574,-0.9999092817306519
1725891502650288400,4.133288330078125,2.8396048545837402,0.07651081681251526,-0.046654798090457916
1725891502669137200,4.15213720703125,1.933692455291748,0.04108065739274025,1.0947459936141968
1725891502687986000,4.17098583984375,1.2263110876083374,-0.7050906419754028,1.672318696975708
1725891502706834700,4.189834716796875,0.5699368119239807,-0.6265945434570312,1.4869211912155151
1725891502725683500,4.208683349609375,0.11026109009981155,-0.2796233594417572,0.6436223983764648
1725891502744532200,4.2275322265625,0.48991355299949646,0.16508620977401733,-0.19753839075565338
1725891502763381200,4.24638134765625,1.433088779449463,0.8575014472007751,-0.5842158198356628
1725891502782230000,4.26522998046875,1.7925827503204346,1.3477203845977783,-0.945847749710083
1725891502801078800,4.284078857421875,1.7626503705978394,-0.5804742574691772,-0.6236165761947632
1725891502819927600,4.302927490234375,1.3322961330413818,0.09697478264570236,0.8036689758300781
1725891502838776300,4.3217763671875,0.739757239818573,-0.05696314200758934,1.9343796968460083
1725891502857625300,4.340625244140625,0.6172788739204407,-0.8058833479881287,1.9887466430664062
1725891502876474000,4.35947412109375,0.6530144214630127,-0.5154171586036682,1.8729877471923828
1725891502895323000,4.378322998046875,1.007315993309021,-0.8235984444618225,1.6060398817062378
1725891502914171600,4.397171630859375,1.3643665313720703,-1.4692825078964233,0.9627992510795593
1725891502933020400,4.4160205078125,1.5244131088256836,-1.3351976871490479,0.41302093863487244
1725891502951869200,4.434869140625,1.7467678785324097,-0.11682789027690887,0.2862665057182312
1725891502970718000,4.453718017578125,1.866497278213501,0.443945974111557,0.6384300589561462
1725891502989567000,4.47256689453125,1.5851941108703613,0.3165806829929352,1.3207659721374512
1725891503008415700,4.491415771484375,1.0192278623580933,0.23655737936496735,1.979889154434204
1725891503027264500,4.510264404296875,0.1081230640411377,-0.43661558628082275,1.8051817417144775
1725891503046113300,4.52911328125,-0.43493571877479553,-0.7426588535308838,1.0538181066513062
1725891503064962300,4.54796240234375,-0.41935867071151733,-0.7047852277755737,0.41851872205734253
1725891503083811000,4.56681103515625,-0.2684750556945801,-0.2185368686914444,0.09445496648550034
1725891503102659800,4.585659912109375,-0.04367683082818985,-0.27656903862953186,0.10942115634679794
1725891503121508600,4.604508544921875,-0.05283980444073677,-0.625067412853241,0.4145480990409851
1725891503140357400,4.623357421875,0.1597411334514618,-1.0138828754425049,0.9353103637695312
1725891503159206400,4.642206298828125,0.5842921733856201,-1.4900518655776978,1.4172827005386353
1725891503178055200,4.66105517578125,0.4508182108402252,-1.0997092723846436,1.799378514289856
1725891503196904000,4.679904052734375,-0.08765909820795059,-0.753043532371521,0.9386700987815857
1725891503215752700,4.698752685546875,-0.8457422852516174,-0.4689914286136627,-2.2970807552337646
1725891503234601500,4.7176015625,-0.16646064817905426,1.152243733406067,-2.78180193901062
1725891503253450200,4.7364501953125,1.1927134990692139,1.0789399147033691,-1.7149264812469482
1725891503272299300,4.75529931640625,0.9972367286682129,0.0642935186624527,-0.9027817845344543
1725891503291148000,4.77414794921875,0.9459241032600403,-0.93813556432724,0.27771440148353577
1725891503309996800,4.792996826171875,0.2883281707763672,-1.317177176475525,1.1237621307373047
1725891503328845600,4.811845458984375,-0.021685699000954628,-1.2063052654266357,1.2025636434555054
1725891503347694600,4.830694580078125,0.6249146461486816,-1.0175479650497437,1.165300965309143
1725891503366543400,4.84954345703125,1.1230748891830444,-0.37583455443382263,1.181794285774231
1725891503385392000,4.86839208984375,1.2351685762405396,0.040775224566459656,1.0199151039123535
1725891503404241000,4.887240966796875,0.8775072693824768,0.8132137656211853,0.49273881316185
1725891503423090000,4.90608984375,0.40286532044410706,0.9531017541885376,-0.5808560252189636
1725891503441938700,4.924938720703125,0.06230820715427399,0.9900590777397156,-1.4256820678710938
1725891503460787500,4.943787353515625,0.06872228533029556,0.8504765033721924,-0.862770140171051
1725891503479636200,4.96263623046875,0.20158538222312927,0.35506516695022583,-0.28122687339782715
1725891503498485200,4.9814853515625,0.06627883017063141,-0.08261945843696594,-0.3395644724369049
1725891503517334000,5.000333984375,-0.1594357043504715,-0.2176205813884735,-0.5148826241493225
1725891503536182800,5.019182861328125,0.024740023538470268,-0.5618428587913513,-0.3407861888408661
1725891503555031800,5.03803173828125,0.2718348205089569,-0.347123920917511,-0.20273074507713318
1725891503573880600,5.056880615234375,0.4529562294483185,-0.1409570425748825,-0.1862373948097229
1725891503592729300,5.075729248046875,0.46059203147888184,0.3981311321258545,-0.35239261388778687
1725891503611578000,5.094578125,0.05955931544303894,0.5682569742202759,-0.8279508352279663
1725891503630427100,5.11342724609375,-0.12492185086011887,0.2390008419752121,-1.0371720790863037
1725891503649276000,5.13227587890625,0.19333870708942413,0.06001746281981468,-0.9363793730735779
1725891503668124700,5.151124755859375,0.5928442478179932,-0.44180795550346375,-0.5946004986763
1725891503686973400,5.169973388671875,0.8240565657615662,-1.2829687595367432,-0.2885572612285614
1725891503705822200,5.188822265625,0.38209593296051025,-0.7658717036247253,-0.2323576956987381
1725891503724671200,5.207671142578125,-0.4007273018360138,0.02977965772151947,-0.3924042582511902
1725891503743520000,5.22652001953125,-0.6740893125534058,-0.5707004070281982,-0.4681515097618103
1725891503762368800,5.24536865234375,-0.7617483735084534,-0.9198096394538879,-0.45685049891471863
1725891503781217800,5.2642177734375,-0.7984002828598022,-0.651639997959137,-0.4214203357696533
1725891503800066600,5.283066650390625,-0.5021308660507202,0.1259908676147461,-0.7405971884727478
1725891503818915300,5.301915283203125,-0.2764163017272949,0.6003273725509644,-0.9589813351631165
1725891503837764000,5.32076416015625,-0.18387030065059662,0.7270817756652832,-0.9220240116119385
1725891503856613000,5.339613037109375,-0.1692095398902893,0.43753188848495483,-0.7121919989585876
1725891503875462000,5.3584619140625,-0.3430005609989166,0.26160284876823425,-0.5384009480476379
1725891503894310700,5.377310546875,-0.5467239618301392,-0.10980294644832611,-0.34322965145111084
1725891503913159700,5.39615966796875,-0.5907062292098999,-0.47143489122390747,-0.14256057143211365
1725891503932008400,5.415008544921875,-0.35582873225212097,-0.7151699662208557,-0.06772962957620621
1725891503950857200,5.433857177734375,-0.22479823231697083,-0.753043532371521,-0.029856016859412193
1725891503969706200,5.452706298828125,-0.2712239623069763,-0.7948877811431885,0.07887791097164154
1725891503988555000,5.471554931640625,-0.3753764033317566,1.03129243850708,-0.18379394710063934
1725891504007403800,5.49040380859375,0.10567960888147354,-0.20967933535575867,-0.170965775847435
1725891504026252500,5.50925244140625,0.24434591829776764,0.23258677124977112,0.3375791609287262
1725891504045101600,5.5281015625,0.814588189125061,1.4311034679412842,0.8937715291976929
1725891504063950300,5.546950439453125,1.2797616720199585,1.9164354801177979,1.108185052871704
1725891504082799000,5.565799072265625,0.7953459620475769,2.1186318397521973,0.5391645431518555
1725891504101648100,5.584648193359375,0.3448331654071808,1.6760601997375488,-0.29222244024276733
1725891504120497000,5.603496826171875,0.5134318470954895,1.5706861019134521,0.0077121676877141
1725891504139345700,5.622345703125,0.6493492722511292,1.23654305934906,0.03550651669502258
1725891504158194700,5.641194580078125,0.637742817401886,1.0245729684829712,0.04528035223484039
1725891504177043500,5.66004345703125,0.5714640021324158,0.5639809370040894,0.2300669401884079
1725891504195892200,5.678892333984375,0.5626064538955688,0.615293562412262,0.24411684274673462
1725891504214741200,5.6977412109375,0.5259546041488647,0.6171261668205261,0.17081306874752045
1725891504233590000,5.716590087890625,0.47036588191986084,0.5758927464485168,0.22120940685272217
1725891504252438800,5.735438720703125,0.5201513767242432,0.6006327867507935,0.48846274614334106
1725891504271287800,5.754287841796875,0.5739074349403381,0.8645263910293579,0.5391645431518555
1725891504290136600,5.773136474609375,0.6175842881202698,0.8626937866210938,0.6573668718338013
1725891504308985300,5.7919853515625,0.6044507026672363,0.4546361267566681,0.7306706309318542
1725891504327834400,5.81083447265625,0.12278381735086441,-0.07895427197217941,0.506483256816864
1725891504346683100,5.82968310546875,-0.07849612087011337,-0.35445427894592285,0.17508912086486816
1725891504365532000,5.848531982421875,0.26389357447624207,-0.9998329281806946,0.15645773708820343
1725891504384381000,5.867380859375,0.39675667881965637,-1.0633628368377686,0.5330559015274048
1725891504403229700,5.886229736328125,0.4407389461994171,-0.6391173005104065,0.9979239702224731
1725891504422078500,5.905078369140625,0.35155269503593445,-0.5813905596733093,1.255708932876587
1725891504440927500,5.923927490234375,0.13225223124027252,-0.3046688139438629,1.1485021114349365
1725891504459776300,5.9427763671875,-0.09407317638397217,0.08689551800489426,0.8513164520263672
1725891504478625000,5.961625,0.26450446248054504,0.4021017551422119,0.553214430809021
1725891504497474000,5.98047412109375,0.14538581669330597,0.19440771639347076,0.3592648506164551
1725891504516322800,5.99932275390625,0.10720676928758621,-0.054214250296354294,0.3155880272388458
1725891504535171600,6.018171630859375,0.31062474846839905,0.023976443335413933,0.31406086683273315
1725891504554020600,6.0370205078125,0.3335321843624115,0.7225003242492676,0.07154753804206848
1725891504572869400,6.055869384765625,0.472198486328125,1.251509189605713,-0.16149736940860748
1725891504591718100,6.07471826171875,1.109025001525879,1.598480463027954,-0.4107302129268646
1725891504610567200,6.093567138671875,0.9355394244194031,1.5050181150436401,-0.3001636862754822
1725891504629416000,6.112416015625,0.5870410799980164,1.2768601179122925,0.020540328696370125
1725891504648264700,6.1312646484375,0.37781986594200134,1.662621259689331,0.3534616231918335
1725891504667113700,6.15011376953125,0.44501498341560364,2.3987133502960205,0.5391645431518555
1725891504685962800,6.168962646484375,0.6911935210227966,2.528827428817749,0.7364738583564758
1725891504704811500,6.1878115234375,0.9337068200111389,2.0410518646240234,0.7661007642745972
1725891504723660300,6.206660400390625,1.1255183219909668,1.5364776849746704,0.36567893624305725
1725891504742509300,6.22550927734375,0.9272927641868591,0.5056433081626892,0.025121813639998436
1725891504761358000,6.244358154296875,0.6713404059410095,-0.559399425983429,-0.25495967268943787
1725891504780206800,6.263206787109375,1.000291109085083,-1.8526002168655396,-0.5261836647987366
1725891504799056000,6.282055908203125,1.3371829986572266,-3.059363603591919,-1.0044907331466675
1725891504817904600,6.300904541015625,1.1056652069091797,-3.5193448066711426,-1.3923898935317993
1725891504836753400,6.31975341796875,0.9865466356277466,-3.0217952728271484,-1.519755244255066
1725891504855602400,6.3386025390625,0.6899717450141907,-2.4326162338256836,-1.7928117513656616
1725891504874451200,6.357451171875,0.021380268037319183,-1.7175990343093872,-1.3658173084259033
1725891504893300200,6.37630029296875,-0.47097674012184143,-1.7637193202972412,-0.528932511806488
1725891504912149000,6.39514892578125,-0.757777750492096,-1.6760601997375488,-0.04390590637922287
1725891504930997800,6.413997802734375,-0.9553925395011902,-1.6143629550933838,0.3895026445388794
1725891504949846800,6.4328466796875,-1.7421863079071045,-2.4402520656585693,0.6347648501396179
1725891504968695600,6.451695556640625,-1.9193371534347534,-2.587165117263794,0.1424078494310379
1725891504987544300,6.47054443359375,-0.32650721073150635,-1.0746638774871826,-0.5539780259132385
1725891505006393300,6.489393310546875,0.5540543794631958,-0.3162752389907837,-0.7134137153625488
1725891505025242000,6.5082421875,0.3610210716724396,-0.7768672704696655,-0.3264308571815491
1725891505044091100,6.527091064453125,0.2263254076242447,-0.9356921315193176,-0.5063305497169495
1725891505062940000,6.54593994140625,0.3970620930194855,-0.6724094152450562,-0.7668643593788147
1725891505081788700,6.56478857421875,0.6298015713691711,-0.5606211423873901,-0.8557451963424683
1725891505100637700,6.5836376953125,0.8707877397537231,-0.9262236952781677,-0.8233693838119507
1725891505119486700,6.60248681640625,0.8005383014678955,-0.7252492308616638,-1.054581642150879
1725891505138335500,6.62133544921875,0.6346884965896606,-0.3400989770889282,-1.1993566751480103
1725891505157184300,6.640184326171875,0.5229002237319946,-0.6308705806732178,-0.9583705067634583
1725891505176033300,6.659033203125,0.5030471682548523,-0.46776971220970154,-0.6862302422523499
1725891505194882000,6.677882080078125,0.435241162776947,0.7157807946205139,-0.6504946351051331
1725891505213731000,6.69673095703125,-0.08277218043804169,0.6388118267059326,-1.0127373933792114
1725891505232579800,6.715579833984375,-0.291687935590744,0.9720385670661926,-0.8093194961547852
1725891505251428600,6.7344287109375,-0.5406153202056885,1.3052653074264526,-1.5878666639328003
1725891505270277600,6.753277587890625,-0.5891790986061096,0.7163916826248169,-1.8380157947540283
1725891505289126400,6.77212646484375,-0.31581708788871765,0.25732678174972534,-1.5448006391525269
1725891505307975400,6.790975341796875,0.03176496922969818,-0.3529271185398102,-1.0982584953308105
1725891505326824200,6.80982421875,0.11575887352228165,-0.717307984828949,-0.6278926134109497
1725891505345673000,6.8286728515625,-0.19792018830776215,-0.3623955249786377,-0.5313760042190552
1725891505364522000,6.84752197265625,-0.5125155448913574,-0.4399753510951996,-0.5921570658683777
1725891505383370800,6.866370849609375,-0.6194168925285339,-0.9967786073684692,-0.5341249108314514
1725891505402219800,6.8852197265625,-0.6826413869857788,-1.195920467376709,-0.5750528573989868
1725891505421068500,6.904068603515625,-0.6921098232269287,-1.0013600587844849,-0.5625301003456116
1725891505439917300,6.922917236328125,-0.7003564834594727,-0.5710058808326721,-0.5701659321784973
1725891505458766300,6.941766357421875,-0.7192932963371277,-0.5746710300445557,-0.5493965148925781
1725891505477615400,6.960615478515625,-0.7107411623001099,-0.6559160351753235,-0.4831176698207855
1725891505496464100,6.979464111328125,-0.7134900689125061,-0.772591233253479,-0.30657777190208435
1725891505515313000,6.99831298828125,-0.6508764028549194,-0.6675224900245667,-0.10743584483861923
1725891505534162000,7.017161865234375,-0.5702422857284546,-0.46166107058525085,0.04711294546723366
1725891505553010700,7.0360107421875,-0.4935787320137024,-0.041386090219020844,0.10331250727176666
1725891505571859700,7.054859619140625,-0.5140427350997925,0.26679518818855286,0.010461059398949146
1725891505590708500,7.07370849609375,-0.500298261642456,0.2835939824581146,0.004657844081521034
1725891505609557500,7.0925576171875,-0.3912588953971863,0.2948949635028839,0.1625663936138153
1725891505628406300,7.11140625,-0.29596397280693054,0.3663661479949951,0.1375209391117096
1725891505647255000,7.130255126953125,-0.0974329337477684,0.5410735011100769,0.09201150387525558
1725891505666104000,7.14910400390625,-0.04550942778587341,0.2906189262866974,0.34582582116127014
1725891505684952800,7.167952880859375,-0.10629047453403473,0.7008146047592163,0.12286017835140228
1725891505703801900,7.1868017578125,-0.0027488914784044027,0.5206094980239868,0.19127702713012695
1725891505722650600,7.205650634765625,0.08582650125026703,0.26251915097236633,0.3983601927757263
1725891505741499600,7.224499755859375,0.10201441496610641,0.09086613357067108,0.6103302836418152
1725891505760348400,7.243348388671875,0.11331541836261749,-0.022449281066656113,0.7694605588912964
1725891505779197400,7.262197509765625,0.19700388610363007,-0.2283107042312622,0.8943824172019958
1725891505798046200,7.281046142578125,-0.023518294095993042,-0.6348412036895752,0.5556578636169434
1725891505816895200,7.299895263671875,0.29901832342147827,0.20540328323841095,0.606970489025116
1725891505835744000,7.318743896484375,0.9523382186889648,0.41126471757888794,0.9783763289451599
1725891505854593000,7.337593017578125,1.4004075527191162,0.5227475166320801,1.33695387840271
1725891505873441800,7.35644189453125,1.0766491889953613,0.6763800382614136,0.8739184141159058
1725891505892290600,7.37529052734375,0.5256491303443909,0.8480330109596252,0.2764926850795746
1725891505911139600,7.3941396484375,0.23365578055381775,0.8672752976417542,0.16928590834140778
1725891505929988400,7.41298828125,0.14172062277793884,1.159574031829834,0.4450913369655609
1725891505948837400,7.43183740234375,0.08277218043804169,1.279914379119873,0.6152172088623047
1725891505967686100,7.45068603515625,0.04001164436340332,1.3874266147613525,0.7938951253890991
1725891505986535200,7.46953515625,0.06352993845939636,1.4048362970352173,0.7963386178016663
1725891506005384000,7.488384033203125,-0.0308486707508564,1.486692190170288,0.5678751468658447
1725891506024233000,7.50723291015625,0.43279770016670227,1.483943223953247,0.3690386712551117
1725891506043081700,7.526081787109375,0.24251331388950348,2.1131339073181152,0.3082576394081116
1725891506061930800,7.5449306640625,-0.05100720748305321,1.7585270404815674,-0.7094430923461914
1725891506080779500,7.563779541015625,-0.08277218043804169,1.2948806285858154,-0.9024763703346252
1725891506099628500,7.582628662109375,0.1591302752494812,0.3416261374950409,-0.10682497918605804
1725891506118477300,7.601477294921875,0.42913252115249634,0.028863361105322838,0.19677481055259705
1725891506137326300,7.620326416015625,0.16004657745361328,0.41462448239326477,-0.22899793088436127
1725891506156175000,7.639175048828125,-0.0204639695584774,-0.15806126594543457,-0.1495855152606964
1725891506175023900,7.65802392578125,-0.05345066636800766,0.7948877811431885,-0.48036879301071167
1725891506193873000,7.676872802734375,-0.3695732057094574,0.5890263915061951,-0.6666825413703918
1725891506212722000,7.695721923828125,-0.02932151034474373,0.29397866129875183,-1.110781192779541
1725891506231570700,7.71457080078125,0.7086031436920166,-0.13332124054431915,-1.5487712621688843
1725891506250419700,7.733419677734375,0.9407317638397217,-0.523969292640686,-0.6908116936683655
1725891506269268500,7.7522685546875,0.6685914993286133,0.5624537467956543,-0.09338594973087311
1725891506288117500,7.771117431640625,0.84177166223526,-0.6601921319961548,0.22365286946296692
1725891506306966300,7.78996630859375,0.7959567904472351,-1.0089958906173706,0.203799769282341
1725891506325815300,7.808815185546875,0.8167262077331543,-0.8416189551353455,-0.04085158184170723
1725891506344664000,7.8276640625,0.6386591196060181,-0.43172869086265564,-0.5347357392311096
1725891506363513000,7.84651318359375,0.38301220536231995,-0.03130681812763214,-0.8740711212158203
1725891506382361900,7.86536181640625,0.17867794632911682,-0.1308777779340744,-0.7088322043418884
1725891506401211400,7.88421142578125,0.013744457624852657,-0.06154462695121765,-0.5710822343826294
1725891506420059600,7.9030595703125,-0.2926042377948761,0.2179260104894638,-0.88995361328125
1725891506438908700,7.92190869140625,-0.25381430983543396,-0.20509785413742065,-0.8804852366447449
1725891506457757400,7.94075732421875,-0.1285870373249054,-0.40637779235839844,-0.668515145778656
1725891506476606500,7.9596064453125,-0.008552107028663158,-0.5227475166320801,-0.4577668011188507
1725891506495455200,7.978455322265625,0.03481929376721382,-0.6201804876327515,-0.5390118360519409
1725891506514304300,7.99730419921875,-0.04428769648075104,-0.6009382009506226,-0.7919098138809204
1725891506533153000,8.016153076171875,-0.2406807243824005,-0.37858346104621887,-0.9742529392242432
1725891506552002000,8.035001953125,-0.38331764936447144,-0.31261005997657776,-0.6083449721336365
1725891506570850800,8.053850830078124,-0.4529562294483185,-0.40026915073394775,-0.6150645017623901
1725891506589699800,8.072699951171876,-0.5626064538955688,-0.4787652790546417,-0.7286853194236755
1725891506608548600,8.091548583984375,-0.6340776681900024,-0.670576810836792,-0.6349175572395325
1725891506627397600,8.110397705078125,-0.8539889454841614,-0.7954986691474915,-0.5799397230148315
1725891506646246400,8.129246337890624,-1.1212422847747803,-0.9005674123764038,-0.5402335524559021
1725891506665095400,8.148095458984375,-1.2177588939666748,-1.032208800315857,-0.4467712342739105
1725891506683944200,8.166944091796875,-1.2055416107177734,-1.060308575630188,-0.31635159254074097
1725891506702793200,8.185793212890625,-1.3304635286331177,-1.0352630615234375,-0.14897464215755463
1725891506721642200,8.204642333984374,-1.425147533416748,-1.3162609338760376,-0.11232276260852814
1725891506740491000,8.223490966796875,-1.211344838142395,-1.1662936210632324,-0.025274530053138733
1725891506759340000,8.242340087890625,-0.48594292998313904,-0.9628756046295166,0.08407026529312134
1725891506778188800,8.261188720703124,-0.6334667801856995,-0.47174033522605896,-0.07261654734611511
1725891506797037800,8.280037841796876,-0.7559451460838318,-0.09117157012224197,-0.36399903893470764
1725891506815886600,8.298886474609375,-0.8118392825126648,0.22434009611606598,-0.5878809690475464
1725891506834735600,8.317735595703125,-0.6530144214630127,0.45769044756889343,-0.7555633783340454
1725891506853584400,8.33658447265625,-0.48502662777900696,0.7948877811431885,-0.9794453382492065
1725891506872433400,8.355433349609376,-0.06047561392188072,1.2093595266342163,-1.270216941833496
1725891506891282200,8.3742822265625,0.17531819641590118,1.2298234701156616,-1.0347285270690918
1725891506910131200,8.393131103515625,0.19181154668331146,0.9158390164375305,-0.6975312232971191
1725891506928980000,8.41197998046875,0.1340848207473755,0.7655662894248962,-0.4027889668941498
1725891506947829000,8.4308291015625,0.25900667905807495,0.567951500415802,-0.0011453714687377214
1725891506966677800,8.449677734375,0.4929678738117218,0.3623955249786377,0.2874882221221924
1725891506985526800,8.46852685546875,0.7935133576393127,0.32788166403770447,0.38125598430633545
1725891507004375600,8.48737548828125,1.0512982606887817,0.16264274716377258,0.4258491098880768
1725891507023224600,8.506224609375,1.0519092082977295,-0.12660172581672668,0.5926151871681213
1725891507042073600,8.525073486328125,1.1163554191589355,-0.013897174037992954,0.7835104465484619
1725891507060922400,8.54392236328125,1.2596031427383423,0.08567378669977188,0.8638391494750977
1725891507079771400,8.562771484375,1.3866630792617798,0.17119485139846802,1.0467931032180786
1725891507098620200,8.5816201171875,1.4410300254821777,0.26190826296806335,1.2050070762634277
1725891507117469200,8.60046923828125,1.2611303329467773,0.009010255336761475,1.2593741416931152
1725891507136318000,8.61931787109375,1.163697361946106,0.03497200831770897,1.4001784324645996
1725891507155167000,8.6381669921875,1.035415768623352,0.14798198640346527,1.476841926574707
1725891507174015700,8.657015625,0.943175196647644,0.1974620372056961,1.5318198204040527
1725891507192864800,8.67586474609375,0.767551600933075,0.35475972294807434,1.6436080932617188
1725891507211713800,8.6947138671875,0.5021308660507202,0.443945974111557,1.7459279298782349
1725891507230562600,8.7135625,0.7617483735084534,0.551152765750885,1.5880193710327148
1725891507249411600,8.73241162109375,0.8622356653213501,0.20540328323841095,1.466762661933899
1725891507268260400,8.75126025390625,1.1646137237548828,0.04108065739274025,1.3946806192398071
1725891507287109400,8.770109375,0.9019418358802795,-0.006566796451807022,1.4462987184524536
1725891507305958100,8.788958251953124,0.8927788734436035,-0.263435423374176,1.3522255420684814
1725891507324807200,8.80780712890625,0.693026065826416,-0.3730856776237488,1.0394628047943115
1725891507343656200,8.82665625,0.40897396206855774,-0.019394956529140472,0.8021417856216431
1725891507362505000,8.8455048828125,0.09987638890743256,0.18463388085365295,0.5125918984413147
1725891507381354000,8.86435400390625,-0.15515965223312378,0.141262486577034,0.3992764949798584
1725891507400202800,8.88320263671875,-0.33719736337661743,-0.04993819445371628,0.3415497839450836
1725891507419051800,8.9020517578125,-0.20280711352825165,-0.17333288490772247,0.3000109791755676
1725891507437900500,8.920900634765625,-0.05283980444073677,-0.27809619903564453,0.10575596243143082
1725891507456749600,8.93974951171875,0.08949168771505356,-0.3324631452560425,-0.09094249457120895
1725891507475598600,8.9585986328125,-0.30482152104377747,-0.21059563755989075,-0.25098907947540283
1725891507494447400,8.977447265625,0.29016077518463135,-0.19624030590057373,-0.6275871992111206
1725891507513296400,8.99629638671875,0.3652971386909485,-0.2857320010662079,-0.5918515920639038
1725891507532145200,9.015145263671876,0.43310311436653137,-0.4897608458995819,-0.8361974954605103
1725891507550994200,9.033994140625,0.4520399272441864,-0.32268932461738586,-1.1966077089309692
1725891507569843000,9.052843017578125,0.32528549432754517,-0.25732678174972534,-1.100701928138733
1725891507588692000,9.07169189453125,0.3295615613460541,-0.5737547278404236,-0.7149408459663391
1725891507607541000,9.090541015625,0.43371400237083435,-0.9323323965072632,-0.3914879560470581
1725891507626389800,9.1093896484375,0.4477638900279999,-1.0151045322418213,-0.4119519293308258
1725891507645238800,9.12823876953125,0.35155269503593445,-0.9472985863685608,-0.6327795386314392
1725891507664087600,9.147087646484374,0.3530798554420471,-0.9451605081558228,-0.8688787817955017
1725891507682936600,9.1659365234375,0.3637699782848358,-0.9384410381317139,-1.003269076347351
1725891507701785300,9.184785400390625,0.2809978127479553,-0.5633700489997864,-1.1342995166778564
1725891507720634400,9.20363427734375,0.13255766034126282,-0.1513417512178421,-1.2937352657318115
1725891507739483400,9.2224833984375,0.0021380267571657896,0.03802633285522461,-1.3627629280090332
1725891507758332200,9.241332275390626,-0.023212861269712448,-0.0019853105768561363,-1.3780345916748047
1725891507777181200,9.26018115234375,-0.005192350596189499,0.051159925758838654,-1.5249475240707397
1725891507796044000,9.2790439453125,-0.07330377399921417,-0.01908952370285988,-1.6156610250473022
1725891507814879000,9.29787890625,-0.15577052533626556,-0.2176205813884735,-1.6352086067199707
1725891507833727700,9.316727783203126,-0.3127627670764923,-0.3761399984359741,-1.6739985942840576
1725891507852576800,9.33557666015625,-0.5073232054710388,-0.5337430834770203,-1.8300745487213135
1725891507871425500,9.354425537109375,-0.6887500286102295,-0.8501710295677185,-1.9916481971740723
1725891507890274600,9.373274658203124,-0.7739656567573547,-1.1406372785568237,-2.0597596168518066
1725891507909123600,9.39212353515625,-0.7470875978469849,-1.5511384010314941,-1.9485822916030884
1725891507927972400,9.410972412109375,-0.7809906005859375,-1.6800308227539062,-1.8016693592071533
1725891507946821400,9.4298212890625,-0.8005383014678955,-1.4604250192642212,-1.6000839471817017
1725891507965670100,9.448670166015624,-0.7779362797737122,-1.1204787492752075,-1.352378249168396
1725891507984519200,9.467519287109376,-0.6398808360099792,-0.7701478004455566,-1.148654818534851
1725891508003368000,9.486367919921875,-0.42271843552589417,-0.3733910918235779,-1.0649664402008057
1725891508022217000,9.505217041015625,-0.43921178579330444,0.06337722390890121,-1.0506110191345215
1725891508041066000,9.52406591796875,-0.27000224590301514,0.1104138121008873,-0.6605738997459412
1725891508059914800,9.542914794921876,-0.44379326701164246,0.8107702732086182,-0.4748710095882416
1725891508078763800,9.561763671875,-0.40255987644195557,1.1204787492752075,-0.3264308571815491
1725891508097612500,9.580612548828125,-0.025961752980947495,1.291215419769287,-0.23571744561195374
1725891508116461600,9.599461669921874,0.29474225640296936,1.3706278800964355,-0.150196373462677
1725891508135310600,9.618310546875,0.6774490475654602,1.4262166023254395,-0.0057268571108579636
1725891508154159400,9.637159423828125,1.047938585281372,1.577405571937561,0.3876700699329376
1725891508173008400,9.65600830078125,1.397047758102417,1.6030619144439697,0.8971312642097473
1725891508191857200,9.674857177734374,1.612377643585205,1.5163191556930542,1.496389627456665
1725891508210706200,9.6937060546875,1.5192207098007202,1.1824815273284912,1.9832488298416138
1725891508229555200,9.71255517578125,1.0458004474639893,0.7136427760124207,2.2269840240478516
1725891508248404000,9.731404052734375,0.6511818766593933,0.54962557554245,2.4530038833618164
1725891508267253000,9.7502529296875,0.4920515716075897,0.4332558512687683,2.7718753814697266
1725891508286102000,9.76910205078125,0.4569268524646759,0.38011062145233154,2.9728498458862305
1725891508304950800,9.78795068359375,0.6698132157325745,0.20998476445674896,2.9560511112213135
1725891508323799800,9.8067998046875,0.9022472500801086,-0.043829549103975296,2.7052910327911377
1725891508342648600,9.825648681640626,0.990517258644104,-0.08048143237829208,2.502789258956909
1725891508361497600,9.84449755859375,1.0396918058395386,-0.1204930767416954,2.318308115005493
1725891508380346400,9.863346435546875,1.0852012634277344,-0.20479241013526917,2.0397539138793945
1725891508399195400,9.8821953125,1.1044435501098633,-0.30253079533576965,1.7770819664001465
1725891508418044400,9.90104443359375,0.9330959320068359,-0.2680169343948364,1.5095232725143433
1725891508436893200,9.91989306640625,0.7776308655738831,0.1672242283821106,1.2871685028076172
1725891508455742200,9.9387421875,0.9025527238845825,0.45738500356674194,1.0357975959777832
1725891508474591000,9.957591064453124,0.971580445766449,0.6776017546653748,0.7086794972419739
1725891508493440000,9.97643994140625,0.990517258644104,1.272889494895935,-0.06131555140018463
1725891508512288800,9.995288818359375,0.8362739086151123,1.2359321117401123,-0.29222244024276733
1725891508531137800,10.0141376953125,0.6881392002105713,1.3721550703048706,-0.005421424750238657
1725891508549986800,10.03298681640625,-0.35735589265823364,1.0514509677886963,-0.345062255859375
1725891508568835600,10.051835693359376,-0.01435532234609127,0.21639885008335114,-0.10254892706871033
1725891508587684600,10.0706845703125,-0.28038692474365234,0.09941824525594711,0.010766491293907166
1725891508606533600,10.08953369140625,-0.37720900774002075,0.29367324709892273,-0.2531270980834961
1725891508625382400,10.10838232421875,-0.3491092324256897,0.21151192486286163,-0.584826648235321
1725891508644231400,10.1272314453125,-0.2721402645111084,0.029474224895238876,-0.8349757790565491
1725891508663080400,10.14608056640625,-0.164322629570961,-0.06765327602624893,-0.9595922231674194
1725891508681929200,10.16492919921875,-0.05192350596189499,-0.4173733592033386,-1.0335068702697754
1725891508700778200,10.1837783203125,0.024740023538470268,-0.7588467597961426,-1.0594686269760132
1725891508719627000,10.202626953125,0.06566796451807022,-0.9680679440498352,-1.1254420280456543
1725891508738476000,10.22147607421875,0.06872228533029556,-0.9891427755355835,-1.204243540763855
1725891508757325000,10.240324951171875,0.039706211537122726,-0.8752164840698242,-1.0814597606658936
1725891508776173800,10.259173828125,-0.000305432389723137,-0.7762564420700073,-1.0405317544937134
1725891508795022800,10.27802294921875,-0.0054977829568088055,-0.8077159523963928,-1.1178061962127686
1725891508813871600,10.29687158203125,0.026878049597144127,-1.0108284950256348,-1.1590396165847778
1725891508832720600,10.315720703125,0.10109812021255493,-1.0401500463485718,-1.2118793725967407
1725891508851569400,10.3345693359375,0.13683371245861053,-1.1366666555404663,-1.4061343669891357
1725891508870418400,10.35341845703125,0.08124501258134842,-1.2075269222259521,-1.5521310567855835
1725891508889267500,10.372267333984375,-0.05558869615197182,-1.190117359161377,-1.5075379610061646
1725891508908116200,10.3911162109375,-0.08857539296150208,-1.1174243688583374,-1.4513384103775024
1725891508926965200,10.40996533203125,-0.11331541836261749,-1.1369720697402954,-1.4983749389648438
1725891508945814300,10.428814208984376,-0.12095122784376144,-1.1213949918746948,-1.5371648073196411
1725891508964663000,10.4476630859375,-0.19914191961288452,-1.11345374584198,-1.5622103214263916
1725891508983512000,10.466511962890625,-0.45417797565460205,-1.2863285541534424,-1.564959168434143
1725891509002361000,10.485361083984374,-0.8576541543006897,-1.4790563583374023,-1.5502984523773193
1725891509021209900,10.5042099609375,-0.82436203956604,-1.0874919891357422,-1.59122633934021
1725891509040059000,10.523058837890625,-0.7153226733207703,-0.6641627550125122,-1.4669153690338135
1725891509058907600,10.54190771484375,-0.8161153197288513,-0.46746426820755005,-1.3859758377075195
1725891509077756700,10.560756591796874,-0.8249728679656982,-0.18921536207199097,-1.378645420074463
1725891509096605400,10.57960546875,-0.8026763200759888,0.07040216773748398,-1.269606113433838
1725891509115454500,10.598454345703125,-0.8002328872680664,0.34956738352775574,-1.1752275228500366
1725891509134303500,10.617303466796875,-0.6887500286102295,0.39599308371543884,-1.039615511894226
1725891509153152300,10.63615234375,-0.6875283122062683,0.569173276424408,-0.6141481995582581
1725891509172001300,10.655001220703125,-0.5995637774467468,0.773202121257782,-0.26167920231819153
1725891509190850000,10.67385009765625,-0.45509424805641174,0.7460185885429382,-0.01763872057199478
1725891509209699000,10.692698974609375,-0.37171122431755066,0.8816305994987488,0.3898080885410309
1725891509228548000,10.711548095703124,-0.20311254262924194,1.2114975452423096,0.7224239706993103
1725891509247397000,10.730397216796876,-0.039706211537122726,1.5294526815414429,1.0131956338882446
1725891509266246000,10.749245849609375,0.11362084746360779,1.8626794815063477,1.2929716110229492
1725891509285095000,10.768094970703125,0.2461785078048706,2.0584616661071777,1.5556435585021973
1725891509303943700,10.786943603515626,0.4886918365955353,2.2725696563720703,1.7309616804122925
1725891509322792700,10.805792724609375,0.7464767694473267,2.1778857707977295,1.754480004310608
1725891509341641700,10.824641845703125,0.8930842876434326,1.9051345586776733,1.8213696479797363
1725891509360490500,10.843490478515625,1.08978271484375,1.567326307296753,1.8256458044052124
1725891509379339500,10.862339599609374,1.242193579673767,1.3364194631576538,1.8057926893234253
1725891509398188300,10.881188232421875,1.314886450767517,1.0997092723846436,1.902920126914978
1725891509417037300,10.900037353515625,1.2910627126693726,0.9659299254417419,1.9908846616744995
1725891509435886000,10.918885986328124,1.296560525894165,0.8034399151802063,1.9264384508132935
1725891509454735000,10.937735107421876,1.232114315032959,0.8129082918167114,1.8897866010665894
1725891509473584000,10.956584228515625,1.166751742362976,0.7451022863388062,1.89284086227417
1725891509492433000,10.975432861328125,1.0693187713623047,0.4033234715461731,1.9297982454299927
1725891509511282000,10.994281982421874,0.8588758707046509,0.34406960010528564,1.8818453550338745
1725891509530131000,11.013130859375,0.7568614482879639,0.2655734717845917,1.7211878299713135
1725891509548979700,11.031979736328125,0.7449495792388916,0.01847865991294384,1.448742151260376
1725891509567828700,11.050828857421875,0.6407971382141113,-0.09789107739925385,1.0697005987167358
1725891509586677800,11.069677734375,0.41233372688293457,0.05177079141139984,0.7297543287277222
1725891509605526500,11.088526611328126,0.12644900381565094,0.005955931730568409,0.44875654578208923
1725891509624375600,11.10737548828125,-0.17898337543010712,0.05604684352874756,0.14943279325962067
1725891509643224300,11.126224365234375,-0.33078327775001526,0.11743875592947006,-0.05581776797771454
1725891509662073300,11.1450732421875,-0.40927940607070923,0.2897026240825653,-0.26534438133239746
1725891509680922400,11.16392236328125,-0.4013381600379944,0.42531460523605347,-0.49808385968208313
1725891509699771100,11.182771240234375,-0.35705047845840454,0.34376415610313416,-0.6364447474479675
1725891509718620200,11.2016201171875,-0.29138249158859253,0.27748534083366394,-0.7271581888198853
1725891509737469200,11.22046923828125,-0.22479823231697083,0.16386447846889496,-0.8505528569221497
1725891509756318000,11.23931787109375,-0.16126830875873566,0.162031888961792,-0.9543998837471008
1725891509775167000,11.2581669921875,-0.04428769648075104,0.1821904182434082,-1.0170135498046875
1725891509794015700,11.277015625,0.028405211865901947,0.228921577334404,-0.9941060543060303
1725891509812864800,11.29586474609375,0.024434590712189674,0.28206682205200195,-0.9418771266937256
1725891509831713800,11.3147138671875,0.0308486707508564,0.208152174949646,-0.9696714878082275
1725891509850562600,11.3335625,0.09010255336761475,0.10735948383808136,-1.1727839708328247
1725891509869411600,11.35241162109375,0.1585194170475006,-0.04413498193025589,-1.4039963483810425
1725891509888260400,11.37126025390625,0.185092031955719,-0.2188423126935959,-1.4623339176177979
1725891509907109400,11.390109375,0.20799945294857025,-0.4610501825809479,-1.501734733581543
1725891509925958400,11.40895849609375,0.2666424810886383,-0.6262891292572021,-1.5814526081085205
1725891509944807200,11.42780712890625,0.3039052188396454,-0.7921388745307922,-1.6330705881118774
1725891509963656200,11.44665625,0.28588470816612244,-0.9753983616828918,-1.7485240697860718
1725891509982505200,11.465505126953126,0.2254091054201126,-1.151021957397461,-1.8285473585128784
1725891510001354000,11.48435400390625,0.15729768574237823,-1.3129011392593384,-1.8896338939666748
1725891510020203000,11.503203125,0.08155044913291931,-1.6012293100357056,-1.9436954259872437
1725891510039052000,11.522052001953124,-0.05070177838206291,-1.947589635848999,-2.0893867015838623
1725891510057900800,11.54090087890625,-0.05406153202056885,-1.9772166013717651,-2.0115013122558594
1725891510076749800,11.559749755859375,0.027488915249705315,-1.985463261604309,-1.9766820669174194
1725891510095598600,11.5785986328125,0.03634645417332649,-1.688888430595398,-1.8447352647781372
1725891510114447600,11.597447509765624,0.019242240116000175,-1.4689770936965942,-1.7161482572555542
1725891510133296400,11.61629638671875,-0.04062250629067421,-1.162017583847046,-1.593975305557251
1725891510152145400,11.6351455078125,-0.07757982611656189,-0.7667880058288574,-1.3905572891235352
1725891510170994400,11.653994384765625,-0.13133592903614044,-0.4027126133441925,-1.1987457275390625
1725891510189843500,11.672843505859374,-0.16523891687393188,0.025503603741526604,-0.9992983937263489
1725891510208692200,11.691692138671876,-0.2098320573568344,0.2750418782234192,-0.8105412125587463
1725891510227541200,11.710541259765625,-0.2861901521682739,0.43600472807884216,-0.5588648915290833
1725891510246390000,11.72939013671875,-0.25931209325790405,0.539851725101471,-0.12209659814834595
1725891510265239000,11.748239013671874,-0.1340848207473755,0.5749764442443848,0.18119776248931885
1725891510284088000,11.767088134765626,-0.07024945318698883,0.6998983025550842,0.4756345748901367
1725891510302936800,11.785936767578125,0.004276053514331579,0.9091194868087769,0.9218713045120239
1725891510321785900,11.804785888671875,0.07635809481143951,1.0850485563278198,1.2031745910644531
1725891510340634600,11.823634521484376,0.11942406743764877,1.2490657567977905,1.3681080341339111
1725891510359483600,11.842483642578125,0.2000582218170166,1.3556616306304932,1.653076410293579
1725891510378332700,11.861332763671875,0.27488914132118225,1.4543163776397705,1.9096397161483765
1725891510397181400,11.880181396484375,0.44409868121147156,1.4808889627456665,1.9893574714660645
1725891510416030500,11.899030517578124,0.5482511520385742,1.468366265296936,2.0956480503082275
1725891510434879500,11.91787939453125,0.5403099060058594,1.3523019552230835,2.214461088180542
1725891510453728300,11.936728271484375,0.5418370366096497,1.1837031841278076,2.2431719303131104
1725891510472577300,11.955577392578125,0.5952877402305603,0.9860884547233582,2.339688539505005
1725891510491426300,11.97442626953125,0.6582068204879761,0.7014254927635193,2.361984968185425
1725891510510275000,11.993275146484375,0.5232056975364685,0.48701193928718567,2.4148247241973877
1725891510529124000,12.0121240234375,0.4419606626033783,0.37552911043167114,2.3387720584869385
1725891510547972900,12.030972900390625,0.44348782300949097,0.29794928431510925,2.21171236038208
1725891510566822000,12.04982177734375,0.4657844007015228,0.18524473905563354,2.0736567974090576
1725891510585685800,12.068685791015625,0.5485565662384033,-0.003512472379952669,1.8531346321105957
1725891510604519700,12.087519775390625,0.5317577719688416,0.08903354406356812,1.5150209665298462
1725891510623368700,12.10636865234375,0.43279770016670227,0.1663079410791397,1.1958441734313965
1725891510642217700,12.1252177734375,0.2977965772151947,0.20143266022205353,0.9050725102424622
1725891510661066500,12.14406640625,0.15546508133411407,0.08597921580076218,0.5865065455436707
1725891510679915500,12.16291552734375,0.05406153202056885,0.06215549260377884,0.31436628103256226
1725891510698764300,12.181764404296874,-0.0665842592716217,0.07620538026094437,0.07612902671098709
1725891510717613300,12.20061328125,-0.15546508133411407,0.12415826320648193,-0.13828451931476593
1725891510736462300,12.21946240234375,-0.21410810947418213,0.07009673118591309,-0.34842199087142944
1725891510755311000,12.23831103515625,-0.2730565667152405,0.012980876490473747,-0.5768854022026062
1725891510774160100,12.25716015625,-0.2712239623069763,-0.05787943676114082,-0.789466381072998
1725891510793009000,12.2760087890625,-0.22876885533332825,-0.14278964698314667,-0.9253838062286377
1725891510811858000,12.29485791015625,-0.21135921776294708,-0.10338886082172394,-1.0054070949554443
1725891510830707000,12.31370703125,-0.19914191961288452,-0.0850629210472107,-0.9974658489227295
1725891510849556000,12.332555908203124,-0.1585194170475006,-0.11346813291311264,-0.9831104874610901
1725891510868404700,12.35140478515625,-0.0922405794262886,-0.16539163887500763,-0.9840267896652222
1725891510887253800,12.370253662109375,-0.026878049597144127,-0.19990549981594086,-0.9965495467185974
1725891510906102500,12.3891025390625,-0.01802051067352295,-0.23503021895885468,-1.0026581287384033
1725891510924951600,12.40795166015625,0.013744457624852657,-0.28298309445381165,-1.0912336111068726
1725891510943800600,12.426800537109376,0.04153880476951599,-0.3455967605113983,-1.207297921180725
1725891510962649300,12.4456494140625,0.11056652665138245,-0.45799586176872253,-1.3032037019729614
1725891510981498400,12.464498291015625,0.11606431007385254,-0.5099193453788757,-1.3484076261520386
1725891511000347100,12.48334716796875,0.10201441496610641,-0.7209731340408325,-1.4867684841156006
1725891511019196200,12.502196044921876,0.03298669680953026,-0.9088140726089478,-1.6428444385528564
1725891511038045200,12.521045166015625,-0.09865466505289078,-1.0337358713150024,-1.721035122871399
1725891511056894000,12.53989404296875,-0.235793799161911,-1.152549147605896,-1.8221333026885986
1725891511075743000,12.558742919921874,-0.26939135789871216,-1.317482590675354,-1.926896572113037
1725891511094592000,12.577592041015626,-0.20861032605171204,-1.3348922729492188,-1.9904265403747559
1725891511113440800,12.596440673828125,-0.17043127119541168,-1.4912736415863037,-1.954690933227539
1725891511132289800,12.615289794921875,-0.2513708472251892,-1.5184571743011475,-1.8203006982803345
1725891511151138600,12.634138671875,-0.3035998046398163,-1.4601194858551025,-1.7961715459823608
1725891511169987600,12.652987548828126,-0.3075704276561737,-1.1840087175369263,-1.704236388206482
1725891511188836600,12.671836669921875,-0.2611446976661682,-0.8477275967597961,-1.509981393814087
1725891511207685400,12.690685302734375,-0.2467893660068512,-0.5902481079101562,-1.3227512836456299
1725891511226534400,12.709534423828124,-0.3072649836540222,-0.3568977415561676,-1.1422407627105713
1725891511245383400,12.728383544921876,-0.39736753702163696,-0.15867212414741516,-0.9394336938858032
1725891511264232200,12.747232177734375,-0.43432486057281494,0.19562944769859314,-0.733572244644165
1725891511283081200,12.766081298828125,-0.3689623177051544,0.476321816444397,-0.4996110200881958
1725891511301930200,12.78493017578125,-0.30451610684394836,0.6449204683303833,-0.1700494885444641
1725891511320779000,12.803779052734376,-0.22815799713134766,0.8031344413757324,0.15706861019134521
1725891511339628000,12.8226279296875,-0.1389717310667038,0.9433279633522034,0.4450913369655609
1725891511358476800,12.841476806640625,-0.000305432389723137,1.0890191793441772,0.7416661977767944
1725891511377325800,12.860325927734374,0.04428769648075104,1.2050834894180298,1.1158208847045898
1725891511396174800,12.8791748046875,0.08765909820795059,1.3165663480758667,1.377271056175232
1725891511415023600,12.898023681640625,0.14294235408306122,1.3584105968475342,1.4860049486160278
1725891511433872600,12.91687255859375,0.16798780858516693,1.3874266147613525,1.682092547416687
1725891511452721700,12.9357216796875,0.33169957995414734,1.4805835485458374,1.8161773681640625
1725891511471570400,12.9545703125,0.5424479246139526,1.541059136390686,1.849774956703186
1725891511490419500,12.97341943359375,0.6172788739204407,1.4579814672470093,1.941710114479065
1725891511509268500,12.9922685546875,0.5702422857284546,1.473863959312439,2.2043819427490234
1725891511528117200,13.0111171875,0.4944950342178345,1.2078323364257812,2.317697286605835
1725891511546966300,13.02996630859375,0.5464185476303101,0.92072594165802,2.3186135292053223
1725891511565815000,13.04881494140625,0.5329795479774475,0.634230375289917,2.382143497467041
1725891511584664000,13.0676640625,0.5054906010627747,0.6491965651512146,2.4285693168640137
1725891511603513000,13.08651318359375,0.41935867071151733,0.378888875246048,2.3720643520355225
1725891511622361900,13.10536181640625,0.3503309488296509,0.23961171507835388,2.270660638809204
1725891511641211000,13.1242109375,0.2730565667152405,0.35323256254196167,2.0250930786132812
1725891511660060000,13.143059814453125,0.26358816027641296,0.2591593861579895,1.6378048658370972
1725891511678908700,13.16190869140625,0.3445277214050293,0.2790125012397766,1.2346340417861938
1725891511697757700,13.1807578125,0.40927940607070923,0.31444263458251953,0.9047670960426331
1725891511716606700,13.199606689453125,0.43463030457496643,0.33307403326034546,0.6094139814376831
1725891511735455500,13.21845556640625,0.3652971386909485,0.20479241013526917,0.3427715003490448
1725891511754304500,13.237304443359376,0.1945604383945465,0.20998476445674896,0.06940951198339462
1725891511773153300,13.2561533203125,0.0870482325553894,0.23533566296100616,-0.14103341102600098
1725891511792002300,13.275002197265625,0.01740964688360691,0.2234237939119339,-0.3194059133529663
1725891511810851300,13.293851318359375,-0.04825831577181816,0.2900080680847168,-0.4889208972454071
1725891511829700400,13.312700439453126,-0.10201441496610641,0.2646571695804596,-0.6254491806030273
1725891511848549000,13.331549072265625,-0.13683371245861053,0.26282456517219543,-0.7567850947380066
1725891511867398100,13.350398193359375,-0.10140355676412582,0.1818849891424179,-0.881401538848877
1725891511886247000,13.369246826171874,-0.07544180005788803,0.09269873052835464,-0.9641736745834351
1725891511905096000,13.388095947265626,-0.08032871782779694,-0.018784092739224434,-0.9666171669960022
1725891511923944700,13.40694482421875,-0.09682206809520721,-0.03405570983886719,-1.0023527145385742
1725891511942793700,13.425793701171875,-0.10079269111156464,-0.027336198836565018,-1.0350340604782104
1725891511961642800,13.444642822265624,-0.06108647957444191,-0.1153007298707962,-1.138880968093872
1725891511980491800,13.46349169921875,0.03145953640341759,-0.14492766559123993,-1.230816125869751
1725891511999340500,13.482340576171875,0.17287473380565643,-0.33307403326034546,-1.2848776578903198
1725891512018189600,13.501189453125,0.20922118425369263,-0.559399425983429,-1.3960551023483276
1725891512037038600,13.52003857421875,0.17134757339954376,-0.7295252680778503,-1.5173118114471436
1725891512055887400,13.538887451171876,0.1542433500289917,-0.9314160943031311,-1.5814526081085205
1725891512074736400,13.557736328125,0.1340848207473755,-1.0847431421279907,-1.640401005744934
1725891512093585200,13.576585205078125,0.12583814561367035,-1.1241439580917358,-1.686521291732788
1725891512112434200,13.59543408203125,0.05283980444073677,-1.299156665802002,-1.725616693496704
1725891512131283200,13.614283203125,-0.05955931544303894,-1.4924954175949097,-1.8468732833862305
1725891512150132000,13.633132080078125,-0.0870482325553894,-1.7389793395996094,-1.9302563667297363
1725891512168981000,13.65198095703125,-0.08826996386051178,-1.8687881231307983,-1.9672136306762695
1725891512187830000,13.670830078125,-0.11392628401517868,-1.6045891046524048,-1.7818162441253662
1725891512206678800,13.6896787109375,-0.15790854394435883,-1.4686716794967651,-1.6852995157241821
1725891512225527800,13.70852783203125,-0.1847866028547287,-1.3147337436676025,-1.6969059705734253
1725891512244376600,13.72737646484375,-0.22174391150474548,-1.0413717031478882,-1.531361699104309
1725891512263225600,13.7462255859375,-0.258395791053772,-0.7838922142982483,-1.3306925296783447
1725891512282074600,13.76507470703125,-0.35613417625427246,-0.523969292640686,-1.1822524070739746
1725891512300923400,13.78392333984375,-0.46914416551589966,-0.35475972294807434,-1.0613012313842773
1725891512319772400,13.8027724609375,-0.5641336441040039,-0.0038179049734026194,-0.8872047066688538
1725891512338621400,13.821621337890624,-0.5904008150100708,0.305585116147995,-0.6795107126235962
1725891512357470500,13.840470458984376,-0.5934551358222961,0.5884155035018921,-0.3823249936103821
1725891512376319200,13.8593193359375,-0.4831940531730652,0.7780889868736267,0.004657844081521034
1725891512395168300,13.878168212890625,-0.38759371638298035,0.8602503538131714,0.3904189467430115
1725891512414017000,13.89701708984375,-0.24892739951610565,1.0661118030548096,0.6576722860336304
1725891512432866000,13.915865966796876,-0.19211697578430176,1.2035562992095947,0.9075160026550293
1725891512451714800,13.93471484375,-0.22204934060573578,1.2997674942016602,1.3082432746887207
1725891512470563800,13.953563720703125,-0.10415244847536087,1.51448655128479,1.497611403465271
1725891512489412900,13.972412841796874,0.06597339361906052,1.6757547855377197,1.551061987876892
1725891512508262000,13.991261962890626,0.0974329337477684,1.6085597276687622,1.8626030683517456
1725891512527110700,14.010110595703125,0.17073670029640198,1.5447243452072144,2.0678536891937256
1725891512545959700,14.028959716796875,0.33597561717033386,1.560606837272644,2.1515421867370605
1725891512564808700,14.04780859375,0.4404335021972656,1.6143629550933838,2.307007312774658
1725891512583657500,14.066657470703126,0.6090322136878967,1.3736821413040161,2.3390777111053467
1725891512602506500,14.085506591796875,0.7293725609779358,1.1320852041244507,2.3302199840545654
1725891512621355300,14.104355224609375,0.7840449213981628,0.7273872494697571,2.300593137741089
1725891512640204300,14.123204345703124,0.6878337264060974,0.6235402226448059,2.199800491333008
1725891512659053300,14.14205322265625,0.7583886384963989,0.4017963111400604,2.1686463356018066
1725891512677902000,14.160902099609375,0.6957749724388123,0.20937390625476837,1.9838597774505615
1725891512696751000,14.179751220703125,0.6050615906715393,0.3837758004665375,1.7734167575836182
1725891512715600100,14.19860009765625,0.6462949514389038,0.3462076187133789,1.58954656124115
1725891512734449000,14.217448974609376,0.7785471677780151,0.21456626057624817,1.2932771444320679
1725891512753298000,14.2362978515625,0.7620537877082825,0.1663079410791397,0.9835686683654785
1725891512772146700,14.255146728515625,0.6343830823898315,0.15775582194328308,0.6543125510215759
1725891512790995700,14.27399560546875,0.6004800796508789,-0.19349141418933868,0.2960403561592102
1725891512809844700,14.2928447265625,0.4248564541339874,-0.07192932814359665,0.046196650713682175
1725891512828693500,14.311693603515625,0.2730565667152405,0.23991714417934418,-0.04176788032054901
1725891512847542500,14.33054248046875,0.07849612087011337,0.3013090491294861,-0.13920080661773682
1725891512866391600,14.3493916015625,-0.021685699000954628,0.27168211340904236,-0.25068363547325134
1725891512885240600,14.368240478515625,-0.07941242307424545,0.06337722390890121,-0.4678460657596588
1725891512904089300,14.38708935546875,-0.08429934084415436,-0.10797034949064255,-0.7616720199584961
1725891512922938400,14.4059384765625,0.0030543238390237093,-0.32391104102134705,-0.9134719371795654
1725891512941787100,14.424787109375,0.15515965223312378,-0.5206094980239868,-1.0408371686935425
1725891512960636200,14.44363623046875,0.35766133666038513,-0.5251910090446472,-0.9657008647918701
1725891512979485000,14.46248486328125,0.30543237924575806,-0.6910407543182373,-0.8215367794036865
1725891512998334000,14.481333984375,0.1954767256975174,-0.5688678026199341,-0.9525672793388367
1725891513017183000,14.500182861328126,0.19853104650974274,-0.6284271478652954,-1.2928189039230347
1725891513036031700,14.51903173828125,0.22266021370887756,-0.7087558507919312,-1.5328887701034546
1725891513054880800,14.537880859375,0.2367101013660431,-0.6186532974243164,-1.4794381856918335
1725891513073729800,14.556729736328125,0.29596397280693054,-0.7802270650863647,-1.363373875617981
1725891513092578600,14.57557861328125,0.3072649836540222,-0.8339831233024597,-1.5026509761810303
1725891513111427600,14.594427490234375,0.25320345163345337,-0.8862120509147644,-1.7369176149368286
1725891513130276600,14.613276611328125,0.1493564397096634,-1.1103994846343994,-1.887495756149292
1725891513149125400,14.63212548828125,0.029016077518463135,-0.9970840215682983,-1.9385030269622803
1725891513167974400,14.650974365234376,-0.07330377399921417,-0.9033163189888,-1.9354486465454102
1725891513186823200,14.6698232421875,-0.15179990231990814,-0.9824233055114746,-1.962632179260254
1725891513205672200,14.688672119140625,-0.18875721096992493,-0.9057597517967224,-1.9589669704437256
1725891513224521200,14.707521240234374,-0.23029601573944092,-1.0288490056991577,-1.8383212089538574
1725891513243370200,14.726370361328126,-0.4013381600379944,-1.1296416521072388,-1.7500512599945068
1725891513262219000,14.745218994140625,-0.5693259835243225,-0.8605557680130005,-1.6370412111282349
1725891513281068000,14.764068115234375,-0.6093376278877258,-0.5795579552650452,-1.4974586963653564
1725891513299916800,14.782916748046874,-0.574212908744812,-0.5169443488121033,-1.3487130403518677
1725891513318765800,14.801765869140626,-0.6178897023200989,-0.23258677124977112,-1.1712568998336792
1725891513337614800,14.82061474609375,-0.6927206516265869,-0.05787943676114082,-0.9666171669960022
1725891513356463600,14.839463623046875,-0.6939423680305481,0.13484840095043182,-0.7570905089378357
1725891513375312600,14.858312744140624,-0.6313287615776062,0.5178605914115906,-0.566500723361969
1725891513394161400,14.877161376953126,-0.5155698657035828,0.6589703559875488,-0.4638754427433014
1725891513413010400,14.896010498046875,-0.49021899700164795,0.6293434500694275,-0.252210795879364
1725891513431859500,14.914859375,-0.5039634704589844,0.7283035516738892,0.11614066362380981
1725891513450708500,14.93370849609375,-0.2464839369058609,0.8587231636047363,0.42248934507369995
1725891513469557200,14.95255712890625,-0.08521563559770584,0.7557924389839172,0.644844114780426
1725891513488406300,14.97140625,0.10690133273601532,1.0328196287155151,1.0076978206634521
1725891513507255000,14.990255126953125,0.29046618938446045,1.2469277381896973,1.0739766359329224
1725891513526104000,15.00910400390625,0.3396408259868622,1.2411245107650757,1.2410482168197632
1725891513544952800,15.027952880859376,0.4105011224746704,1.2915208339691162,1.6139811277389526
1725891513563801900,15.0468017578125,0.5910117030143738,1.4188861846923828,1.616729974746704
1725891513582651000,15.06565087890625,0.6829468011856079,1.4188861846923828,1.680565357208252
1725891513601499600,15.084499755859374,0.7202095985412598,1.4420989751815796,1.9129993915557861
1725891513620348700,15.1033486328125,0.7855721116065979,1.4763075113296509,2.1576507091522217
1725891513639197700,15.12219775390625,0.8683443069458008,1.1467459201812744,2.2049927711486816
1725891513658046500,15.14104638671875,0.8011491298675537,0.7692314982414246,2.2862377166748047
1725891513676895500,15.1598955078125,0.7003564834594727,0.7246383428573608,2.485685110092163
1725891513695744500,15.17874462890625,0.5952877402305603,0.44791659712791443,2.4218497276306152
1725891513714593300,15.19759326171875,0.4816668927669525,0.4540252387523651,2.216599225997925
1725891513733442300,15.2164423828125,0.5980366468429565,0.5065596103668213,2.181474447250366
1725891513752291000,15.235291015625,0.6737838387489319,0.1974620372056961,1.9120831489562988
1725891513771140000,15.25414013671875,0.5467239618301392,0.388662725687027,1.559308648109436
1725891513789989000,15.272989013671875,0.4401280879974365,0.2680169343948364,1.3094650506973267
1725891513808838000,15.291837890625,0.4560105502605438,0.2536616027355194,0.9292016625404358
1725891513827687000,15.31068701171875,0.38331764936447144,0.19562944769859314,0.5544361472129822
1725891513846536000,15.329535888671876,0.2464839369058609,0.17883066833019257,0.2795470058917999
1725891513865384700,15.348384765625,0.10598503798246384,0.15347976982593536,0.013515383005142212
1725891513884233700,15.367233642578125,-0.03023780696094036,0.13698641955852509,-0.23357942700386047
1725891513903082800,15.386082763671874,-0.10201441496610641,0.12996147572994232,-0.42050403356552124
1725891513921931500,15.404931640625,-0.14263692498207092,0.025809036567807198,-0.5774962902069092
1725891513940780500,15.423780517578125,-0.1597411334514618,-0.019700389355421066,-0.7183006405830383
1725891513959629300,15.44262939453125,-0.15302163362503052,-0.08872810751199722,-0.7686969637870789
1725891513978478300,15.461478271484374,-0.14508038759231567,-0.1418733447790146,-0.8120683431625366
1725891513997327000,15.4803271484375,-0.18784092366695404,-0.14706569910049438,-0.8285617232322693
1725891514016176000,15.499176025390625,-0.2205221801996231,-0.10186170041561127,-0.9415717124938965
1725891514035025200,15.518025146484375,-0.2611446976661682,-0.1815795600414276,-1.0988693237304688
1725891514053874000,15.5368740234375,-0.18875721096992493,-0.12965604662895203,-1.2274564504623413
1725891514072723000,15.555722900390625,-0.07910698652267456,-0.04780016839504242,-1.2204314470291138
1725891514091572000,15.574572021484375,-0.0009162971982732415,-0.26740604639053345,-1.1807252168655396
1725891514110421000,15.5934208984375,0.03451386094093323,-0.5493201613426208,-1.3459641933441162
1725891514129269800,15.612269775390626,-0.02107483521103859,-0.6302597522735596,-1.5154792070388794
1725891514148118800,15.631118896484375,-0.06994401663541794,-0.7619010806083679,-1.5738167762756348
1725891514166967600,15.649967529296875,-0.0772743970155716,-0.920115053653717,-1.6144392490386963
1725891514185816600,15.668816650390625,-0.06719512492418289,-1.0001384019851685,-1.5292235612869263
1725891514204665300,15.687665283203126,-0.08002328872680664,-1.1186461448669434,-1.601000189781189
1725891514223514400,15.706514404296875,-0.22388194501399994,-1.381623387336731,-1.807778000831604
1725891514242363400,15.72536328125,-0.26511532068252563,-1.5737403631210327,-1.8071670532226562
1725891514261212200,15.744212158203124,-0.19089524447917938,-1.724013090133667,-1.8370994329452515
1725891514280061200,15.763061279296876,-0.2052505612373352,-1.8953607082366943,-1.8765002489089966
1725891514298910200,15.78191015625,-0.2254091054201126,-1.644600749015808,-1.7805944681167603
1725891514317759000,15.800759033203125,-0.1496618688106537,-1.4931062459945679,-1.7283655405044556
1725891514336608000,15.81960791015625,-0.17684535682201385,-1.0997092723846436,-1.546327829360962
1725891514355457000,15.83845703125,-0.20127993822097778,-0.7588467597961426,-1.3584868907928467
1725891514374305800,15.857305908203125,-0.21868959069252014,-0.6000219583511353,-1.2179880142211914
1725891514393154800,15.87615478515625,-0.3023780584335327,-0.42103853821754456,-1.0011310577392578
1725891514412003600,15.895003662109374,-0.3689623177051544,-0.12018764764070511,-0.7635046243667603
1725891514430852600,15.9138525390625,-0.39797839522361755,0.33765551447868347,-0.5270999670028687
1725891514449701400,15.932701416015625,-0.31520622968673706,0.7005091905593872,-0.3242928385734558
1725891514468550400,15.95155029296875,-0.2721402645111084,0.6843212842941284,-0.05887209251523018
1725891514487399400,15.9703994140625,-0.2571740746498108,0.7961094975471497,0.34032803773880005
1725891514506248200,15.989248291015626,-0.24434591829776764,0.9549343585968018,0.6830231547355652
1725891514525097200,16.00809716796875,-0.16554436087608337,1.0025818347930908,0.9353103637695312
1725891514543946000,16.026946044921875,-0.11026109009981155,1.08810293674469,1.2419644594192505
1725891514562795000,16.045794921875,-0.046425722539424896,1.180343508720398,1.4609594345092773
1725891514581644000,16.06464404296875,-0.0009162971982732415,1.3782637119293213,1.5727477073669434
1725891514600492800,16.083492919921873,0.10720676928758621,1.5169299840927124,1.6967532634735107
1725891514619341800,16.102341796875,0.23762640357017517,1.530063509941101,1.9380449056625366
1725891514638190800,16.12119091796875,0.3081812858581543,1.6284128427505493,2.155512809753418
1725891514657039600,16.14003955078125,0.3652971386909485,1.7478368282318115,2.342742681503296
1725891514675888600,16.158888671875,0.39858928322792053,1.5951206684112549,2.4310126304626465
1725891514694737700,16.177737548828127,0.5445859432220459,1.244484305381775,2.348851442337036
1725891514713586400,16.19658642578125,0.6872228980064392,0.8040507435798645,2.155207395553589
1725891514732435500,16.215435546875,0.5677987933158875,0.8397863507270813,2.281045436859131
1725891514751284200,16.2342841796875,0.41416633129119873,0.6400335431098938,2.2804346084594727
1725891514770133200,16.25313330078125,0.43921178579330444,0.3666715919971466,2.1912484169006348
1725891514788982000,16.27198193359375,0.5158752799034119,0.3269653618335724,1.920940637588501
1725891514807831000,16.2908310546875,0.6487383842468262,0.2799287736415863,1.690339207649231
1725891514826679800,16.3096796875,0.6966912746429443,0.15286891162395477,1.3992621898651123
1725891514845528800,16.32852880859375,0.5876519083976746,0.22983787953853607,1.09688401222229
1725891514864377900,16.3473779296875,0.4581485986709595,0.2848156988620758,0.7856484651565552
1725891514883226600,16.3662265625,0.3298669755458832,0.28848087787628174,0.4701367914676666
1725891514902075600,16.38507568359375,0.19394956529140472,0.20570871233940125,0.17753258347511292
1725891514920924700,16.403924560546876,0.060781046748161316,0.20967933535575867,-0.04512763395905495
1725891514939773400,16.4227734375,-0.04459312930703163,0.01908952370285988,-0.2012035846710205
1725891514958622500,16.44162255859375,-0.1954767256975174,0.04566214233636856,-0.3969857394695282
1725891514977471500,16.460471435546875,-0.30085089802742004,0.06337722390890121,-0.5967385172843933
1725891514996320300,16.4793203125,-0.35216355323791504,-0.022754713892936707,-0.7369319796562195
1725891515015169300,16.498169189453126,-0.38301220536231995,0.06795870512723923,-0.8578832149505615
1725891515034018000,16.51701806640625,-0.3759872615337372,0.1363755613565445,-0.899727463722229
1725891515052867000,16.5358671875,-0.29413139820098877,0.11194097250699997,-0.8691841959953308
1725891515071716000,16.554716064453125,-0.22266021370887756,0.012675444595515728,-0.918664276599884
1725891515090564900,16.57356494140625,-0.14110976457595825,-0.06795870512723923,-0.9785290360450745
1725891515109414000,16.592413818359375,0.024434590712189674,-0.2393062710762024,-1.0835977792739868
1725891515128262700,16.6112626953125,0.1750127524137497,-0.3889681398868561,-1.261359453201294
1725891515147111700,16.630111572265626,0.18814635276794434,-0.41462448239326477,-1.4088832139968872
1725891515165960400,16.64896044921875,0.2055560052394867,-0.47693267464637756,-1.4867684841156006
1725891515184809500,16.6678095703125,0.2202167510986328,-0.5215258002281189,-1.5191442966461182
1725891515203658500,16.686658447265625,0.22876885533332825,-0.7215840220451355,-1.585423231124878
1725891515222507300,16.70550732421875,0.16554436087608337,-1.0435097217559814,-1.6098577976226807
1725891515241356300,16.724356201171876,0.15729768574237823,-1.4356849193572998,-1.7320307493209839
1725891515260205000,16.743205078125,0.10629047453403473,-1.6452115774154663,-1.7680717706680298
1725891515279054000,16.76205419921875,0.07910698652267456,-1.8293873071670532,-1.880165457725525
1725891515297903000,16.780903076171874,0.14538581669330597,-1.7866268157958984,-1.9678245782852173
1725891515316752000,16.799751953125,0.035124726593494415,-1.8767293691635132,-2.007836103439331
1725891515335601000,16.818600830078125,-0.053145237267017365,-1.7130175828933716,-1.8780274391174316
1725891515354450000,16.837449951171877,-0.12064579129219055,-1.4781399965286255,-1.7555490732192993
1725891515373298700,16.856298583984376,-0.143553227186203,-1.2930480241775513,-1.771736979484558
1725891515392147700,16.875147705078124,-0.23732095956802368,-1.2209659814834595,-1.6956843137741089
1725891515410996500,16.89399658203125,-0.33536475896835327,-0.8657481074333191,-1.398193120956421
1725891515429845500,16.912845458984375,-0.4459312856197357,-0.33918267488479614,-1.0906226634979248
1725891515448694500,16.931694580078126,-0.5302306413650513,0.10705405473709106,-0.9146936535835266
1725891515467543300,16.950543212890626,-0.5619956254959106,0.4970912039279938,-0.761366605758667
1725891515486392300,16.969392333984374,-0.5677987933158875,0.7130318880081177,-0.4947241246700287
1725891515505241000,16.988240966796877,-0.5870410799980164,0.7481566667556763,-0.14347685873508453
1725891515524090000,17.007090087890624,-0.6545416116714478,0.8477275967597961,0.25725042819976807
1725891515542939000,17.02593896484375,-0.5427533388137817,0.9980003237724304,0.6735547780990601
1725891515561788000,17.044787841796875,-0.3582721948623657,1.1284199953079224,0.9069051146507263
1725891515580637000,17.063636962890627,-0.24831652641296387,1.2951860427856445,1.0907753705978394
1725891515599485700,17.082485595703126,-0.13469567894935608,1.4356849193572998,1.3638319969177246
1725891515618334700,17.101334716796874,-0.03023780696094036,1.3449715375900269,1.4838669300079346
1725891515637183500,17.12018359375,0.05803215503692627,1.1220059394836426,1.6494113206863403
1725891515656032500,17.139032470703125,0.20463970303535461,1.096960425376892,1.783801555633545
1725891515674881300,17.15788134765625,0.4114174246788025,1.1238384246826172,1.7951024770736694
1725891515693730300,17.176730224609376,0.656679630279541,1.2573124170303345,1.894368052482605
1725891515712579300,17.195579345703123,0.8045089244842529,1.3614648580551147,2.0987021923065186
1725891515731428000,17.214427978515626,0.7965676784515381,1.1739293336868286,2.2080471515655518
1725891515750277000,17.233277099609374,0.7107411623001099,0.9320269227027893,2.2349252700805664
1725891515769126000,17.2521259765625,0.6811142563819885,0.7322741746902466,2.318308115005493
1725891515787975000,17.270974853515625,0.6737838387489319,0.8058833479881287,2.278907299041748
1725891515806823700,17.28982373046875,0.7037162184715271,0.5487092733383179,2.250807523727417
1725891515825672700,17.308672607421876,0.5488619804382324,0.40698865056037903,2.181474447250366
1725891515844521700,17.327521728515624,0.5024362802505493,0.35017824172973633,2.0232605934143066
1725891515863370500,17.34637060546875,0.6273581385612488,0.10858121514320374,1.7602832317352295
1725891515882219500,17.365219482421875,0.6679806113243103,-0.028863361105322838,1.3797144889831543
1725891515901068300,17.384068359375,0.5412262082099915,0.13729186356067657,1.0648136138916016
1725891515919917300,17.402917236328125,0.34788748621940613,0.20662501454353333,0.8091667294502258
1725891515938766300,17.421766357421873,0.18356487154960632,0.19593487679958344,0.5266417860984802
1725891515957615000,17.440614990234376,0.07788526266813278,0.1925751268863678,0.23831361532211304
1725891515976464100,17.459464111328124,-0.04550942778587341,0.20021092891693115,-0.05215258151292801
1725891515995313000,17.47831298828125,-0.17776164412498474,0.09636391699314117,-0.2848920524120331
1725891516014162000,17.497161865234375,-0.2666424810886383,-0.006872228812426329,-0.4956403970718384
1725891516033011000,17.516010986328126,-0.3277289569377899,-0.01847865991294384,-0.7097485065460205
1725891516051859700,17.534859619140626,-0.35613417625427246,0.025809036567807198,-0.8591049313545227
1725891516070708700,17.553708740234374,-0.32620179653167725,0.02153298258781433,-0.8533017635345459
1725891516089557500,17.5725576171875,-0.22296564280986786,-0.06612611562013626,-0.779692530632019
1725891516108406500,17.591406494140625,-0.16096286475658417,-0.2188423126935959,-0.7567850947380066
1725891516127255600,17.610255615234376,-0.16554436087608337,-0.16355904936790466,-0.8673516511917114
1725891516146104300,17.629104248046875,-0.10567960888147354,-0.1821904182434082,-1.0176243782043457
1725891516164953300,17.647953369140627,-0.004276053514331579,-0.2179260104894638,-1.1599558591842651
1725891516183802000,17.666802001953126,0.1331685185432434,-0.24052800238132477,-1.2247074842453003
1725891516202651100,17.685651123046874,0.2000582218170166,-0.47265663743019104,-1.2189042568206787
1725891516221508400,17.70450830078125,0.22235478460788727,-0.6794343590736389,-1.3688715696334839
1725891516240349000,17.723348876953125,0.23426663875579834,-0.855668842792511,-1.6168826818466187
1725891516259198000,17.742197998046876,0.19120067358016968,-0.9983057379722595,-1.6730822324752808
1725891516278046700,17.761046630859376,0.1542433500289917,-1.1381938457489014,-1.659948706626892
1725891516296895700,17.779895751953124,0.0665842592716217,-1.253341794013977,-1.7479132413864136
1725891516315744500,17.79874462890625,0.007941242307424545,-1.290910005569458,-1.8264093399047852
1725891516334593500,17.817593505859374,-0.04764745384454727,-1.5712969303131104,-1.9568289518356323
1725891516353442600,17.836442626953126,-0.0461202897131443,-1.649793028831482,-1.9647701978683472
1725891516372291300,17.855291259765625,-0.19639302790164948,-1.5599958896636963,-1.832823395729065
1725891516391140400,17.874140380859377,-0.20861032605171204,-1.300683856010437,-1.778761863708496
1725891516409989000,17.892989013671876,-0.24434591829776764,-1.2441788911819458,-1.7250057458877563
1725891516428838100,17.911838134765624,-0.24556763470172882,-1.0361794233322144,-1.6419281959533691
1725891516447687000,17.93068701171875,-0.26480987668037415,-0.6690496206283569,-1.507232427597046
1725891516466536000,17.949535888671875,-0.24556763470172882,-0.443945974111557,-1.3532946109771729
1725891516485384700,17.968384765625,-0.3130682110786438,-0.15745039284229279,-1.2537236213684082
1725891516504233700,17.987233642578126,-0.3494146466255188,-0.020922118797898293,-1.1352158784866333
1725891516523082800,18.006082763671873,-0.42791077494621277,-0.026419902220368385,-0.9989929795265198
1725891516541931500,18.024931640625,-0.5235111117362976,0.2228129357099533,-0.7332668304443359
1725891516560780500,18.043780517578124,-0.4764745235443115,0.38408124446868896,-0.43485936522483826
1725891516579629300,18.06262939453125,-0.3436114490032196,0.46196648478507996,-0.1914297491312027
1725891516598478300,18.081478271484375,-0.24526220560073853,0.5432115197181702,0.08865175396203995
1725891516617327000,18.1003271484375,-0.2055560052394867,0.6174315810203552,0.4255436658859253
1725891516636176100,18.119176025390626,-0.1698204129934311,0.7927497625350952,0.8036689758300781
1725891516655025200,18.138025146484374,-0.14508038759231567,0.8553634285926819,1.1087958812713623
1725891516673874000,18.1568740234375,-0.10965022444725037,1.0096067190170288,1.3308452367782593
1725891516692723000,18.175722900390625,0.007635809946805239,1.1446079015731812,1.5067743062973022
1725891516711571700,18.19457177734375,0.10048725455999374,1.2438733577728271,1.6384156942367554
1725891516730420700,18.213420654296876,0.1795942485332489,1.4085015058517456,1.8671845197677612
1725891516749269500,18.23226953125,0.3399462401866913,1.4314088821411133,2.0085997581481934
1725891516768118500,18.251118408203126,0.4838049113750458,1.4204133749008179,2.0342559814453125
1725891516786967600,18.269967529296874,0.5326740741729736,1.327256441116333,2.214766502380371
1725891516805816300,18.28881640625,0.5293143391609192,1.2114975452423096,2.356792688369751
1725891516824665300,18.307665283203125,0.5748237371444702,0.8608611822128296,2.4200172424316406
1725891516843514000,18.32651416015625,0.6545416116714478,0.6834049820899963,2.456974506378174
1725891516862363100,18.345363037109376,0.43890634179115295,0.6159043908119202,2.4389538764953613
1725891516881212000,18.3642119140625,0.44501498341560364,0.3318522870540619,2.2746312618255615
1725891516900061000,18.38306103515625,0.3799578845500946,0.2964221239089966,2.194607973098755
1725891516918910000,18.401909912109375,0.35185810923576355,0.25641047954559326,1.985081434249878
1725891516937758700,18.4207587890625,0.39858928322792053,0.20418155193328857,1.746538758277893
1725891516956607700,18.439607666015625,0.5039634704589844,0.12812888622283936,1.4872266054153442
1725891516975456500,18.45845654296875,0.48594292998313904,0.1815795600414276,1.1894301176071167
1725891516994305500,18.477305419921876,0.33322674036026,0.23625195026397705,0.8803325295448303
1725891517013154300,18.496154296875,0.1902843713760376,0.2240346521139145,0.5385536551475525
1725891517032003300,18.51500341796875,0.09651663154363632,0.14737112820148468,0.2096029818058014
1725891517050852400,18.533852294921875,-0.007024944759905338,0.09056070446968079,-0.08177952468395233
1725891517069701000,18.552701171875,-0.08765909820795059,0.06765327602624893,-0.3297906219959259
1725891517088550100,18.571550048828126,-0.1945604383945465,0.09666935354471207,-0.5212967395782471
1725891517107399000,18.59039892578125,-0.25503605604171753,0.09575305134057999,-0.6660717129707336
1725891517126248000,18.609248046875,-0.2822195291519165,0.013286309316754341,-0.7454841136932373
1725891517145096700,18.6280966796875,-0.2828303873538971,0.044440411031246185,-0.853607177734375
1725891517163945700,18.64694580078125,-0.2770271897315979,-0.04566214233636856,-0.9357684850692749
1725891517182794500,18.66579443359375,-0.2678641974925995,-0.051159925758838654,-1.00052011013031
1725891517201643500,18.6846435546875,-0.2309068888425827,-0.07040216773748398,-1.0145699977874756
1725891517220492300,18.7034921875,-0.20280711352825165,-0.17547090351581573,-1.0063233375549316
1725891517239341300,18.72234130859375,-0.21288637816905975,-0.21090106666088104,-1.0692424774169922
1725891517258190300,18.7411904296875,-0.12278381735086441,-0.3061959743499756,-1.2366193532943726
1725891517277039000,18.7600390625,-0.03329212963581085,-0.3712530732154846,-1.3978877067565918
1725891517295888100,18.77888818359375,0,-0.5215258002281189,-1.461112141609192
1725891517314737000,18.79773681640625,-0.022907428443431854,-0.6928733587265015,-1.5496876239776611
1725891517333586000,18.8165859375,-0.059864748269319534,-0.8825469017028809,-1.6147446632385254
1725891517352434700,18.8354345703125,-0.08460476994514465,-1.014493703842163,-1.611079454421997
1725891517371283700,18.85428369140625,-0.12034036219120026,-1.0120502710342407,-1.6141338348388672
1725891517390132500,18.873132568359374,-0.10598503798246384,-1.0728312730789185,-1.6791908740997314
1725891517408981500,18.8919814453125,-0.16829325258731842,-1.2423462867736816,-1.7857868671417236
1725891517427830300,18.910830322265625,-0.189673513174057,-1.5007420778274536,-1.8499276638031006
1725891517446679300,18.92967919921875,-0.2049451321363449,-1.5474731922149658,-1.7754020690917969
1725891517465528300,18.9485283203125,-0.27947062253952026,-1.5089887380599976,-1.7711260318756104
1725891517484377000,18.967377197265623,-0.3017672002315521,-1.254868984222412,-1.6709442138671875
1725891517503226000,18.98622607421875,-0.3170388340950012,-1.162322998046875,-1.5823688507080078
1725891517522075000,19.005074951171874,-0.35277441143989563,-0.9741765856742859,-1.492266297340393
1725891517540924000,19.023923828125,-0.46364638209342957,-0.8049670457839966,-1.344131588935852
1725891517559772700,19.042772705078125,-0.47036588191986084,-0.5749764442443848,-1.0970368385314941
1725891517578621700,19.06162158203125,-0.4783071279525757,-0.22678354382514954,-0.8960622549057007
1725891517597470500,19.080470458984376,-0.4682278633117676,-0.06582067906856537,-0.7457895278930664
1725891517616319500,19.099319580078124,-0.5064069032669067,0.2176205813884735,-0.50144362449646
1725891517635168300,19.118168212890627,-0.4816668927669525,0.37552911043167114,-0.2943604588508606
1725891517654017300,19.137017333984375,-0.4318813979625702,0.4143190383911133,-0.05581776797771454
1725891517672866300,19.1558662109375,-0.3698786199092865,0.5355756878852844,0.18608468770980835
1725891517691715000,19.174715087890625,-0.26878049969673157,0.661413848400116,0.4337903559207916
1725891517710564000,19.193564208984377,-0.12370011955499649,0.8254310488700867,0.6650026440620422
1725891517729412900,19.212412841796876,-0.0668896958231926,0.985783040523529,0.9151517748832703
1725891517748262000,19.231261962890624,0.007941242307424545,1.172402262687683,1.2615121603012085
1725891517767110700,19.250110595703124,0.18753549456596375,1.2536472082138062,1.4004838466644287
1725891517785959700,19.268959716796875,0.27488914132118225,1.3165663480758667,1.5260165929794312
1725891517804808700,19.28780859375,0.35735589265823364,1.4075851440429688,1.781358003616333
1725891517823657500,19.306657470703126,0.4663952589035034,1.366351842880249,1.9108613729476929
1725891517842506500,19.325506591796874,0.5473348498344421,1.3129011392593384,2.1008403301239014
1725891517861355300,19.344355224609377,0.5864301919937134,1.197142243385315,2.2627193927764893
1725891517880204300,19.363204345703124,0.6429351568222046,0.9338595271110535,2.27829647064209
1725891517899053000,19.382052978515624,0.6731730103492737,0.5416843295097351,2.275242328643799
1725891517917902000,19.400902099609375,0.6212494969367981,0.4647153913974762,2.3503785133361816
1725891517936750800,19.419750732421875,0.47494736313819885,0.5236638188362122,2.32869291305542
1725891517955600000,19.438599853515626,0.4514290690422058,0.2945895493030548,2.203465700149536
1725891517974449000,19.457448974609374,0.4459312856197357,0.24205516278743744,2.0541090965270996
1725891517993297700,19.476297607421873,0.4862483739852905,0.2176205813884735,1.785634160041809
1725891518012146700,19.495146728515625,0.5073232054710388,0.2026543915271759,1.4798963069915771
1725891518030995500,19.513995361328124,0.47006043791770935,0.11866047978401184,1.1766018867492676
1725891518049844500,19.532844482421876,0.3585776388645172,0.24052800238132477,0.9139300584793091
1725891518068693200,19.551693359375,0.2663370370864868,0.13820815086364746,0.7282271981239319
1725891518087542300,19.570542236328127,0.17165300250053406,0.1253799945116043,0.5425242781639099
1725891518132294400,19.61529443359375,-0.020769402384757996,0.12935061752796173,-0.013973532244563103
1725891518151143200,19.63414306640625,-0.1441640853881836,0.06704241037368774,-0.21922409534454346
1725891518169992200,19.6529921875,-0.20891575515270233,0.07009673118591309,-0.40492698550224304
1725891518188841000,19.671841064453126,-0.22724169492721558,0.011453714221715927,-0.5515345335006714
1725891518207690000,19.69068994140625,-0.22235478460788727,0.06582067906856537,-0.6578249931335449
1725891518226539000,19.7095390625,-0.17531819641590118,-0.009315688163042068,-0.6975312232971191
1725891518245387800,19.7283876953125,-0.12400554865598679,-0.06856957077980042,-0.7366265654563904
1725891518264236800,19.74723681640625,-0.08002328872680664,-0.10705405473709106,-0.798323929309845
1725891518283085600,19.76608544921875,-0.08124501258134842,-0.08811724185943604,-0.8789580464363098
1725891518301934600,19.7849345703125,-0.10384701192378998,-0.010537417605519295,-0.9479857683181763
1725891518320783400,19.803783447265626,-0.10506874322891235,-0.09544762223958969,-1.0347285270690918
1725891518339632400,19.82263232421875,-0.08552107214927673,-0.14248420298099518,-1.1831687688827515
1725891518358481200,19.841481201171874,-0.06536252796649933,-0.23655737936496735,-1.3022873401641846
1725891518377330200,19.860330078125,0.030543239787220955,-0.42103853821754456,-1.332830548286438
1725891518396179000,19.879178955078125,0.10384701192378998,-0.5389354228973389,-1.3823106288909912
1725891518415028000,19.898028076171876,0.10506874322891235,-0.735633909702301,-1.493488073348999
1725891518433876700,19.916876708984375,0.02260199747979641,-0.8419243693351746,-1.592448115348816
1725891518452725800,19.935725830078123,-0.020769402384757996,-0.9683734178543091,-1.6058871746063232
1725891518471574800,19.95457470703125,-0.05192350596189499,-1.0709986686706543,-1.6211587190628052
1725891518490423600,19.973423583984374,-0.12278381735086441,-1.2200497388839722,-1.7048472166061401
1725891518509272600,19.9922724609375,-0.2522871494293213,-1.447291374206543,-1.785481333732605
1725891518528121300,20.011121337890625,-0.2864955961704254,-1.3752093315124512,-1.740888237953186
1725891518546970400,20.029970458984376,-0.28405213356018066,-1.4686716794967651,-1.7812052965164185
1725891518565819100,20.048819091796876,-0.29565855860710144,-1.3617702722549438,-1.6663627624511719
1725891518584668200,20.067668212890624,-0.3384190797805786,-1.3263401985168457,-1.6150500774383545
1725891518603517000,20.086516845703127,-0.3750709891319275,-1.0807725191116333,-1.5179226398468018
1725891518622366000,20.105365966796874,-0.38301220536231995,-0.8773545622825623,-1.425071120262146
1725891518641214700,20.124214599609374,-0.3402516841888428,-0.6183478832244873,-1.2295944690704346
1725891518660063700,20.143063720703125,-0.3842339515686035,-0.26648977398872375,-1.0426697731018066
1725891518678912800,20.161912841796877,-0.41355544328689575,-0.11316270381212234,-0.8887318968772888
1725891518697761500,20.180761474609376,-0.4838049113750458,0.08231402933597565,-0.7415134906768799
1725891518716610600,20.199610595703124,-0.5345066785812378,0.33887723088264465,-0.5509236454963684
1725891518735459300,20.218459228515623,-0.42088583111763,0.5007563829421997,-0.28519749641418457
1725891518754308400,20.237308349609375,-0.35735589265823364,0.5618428587913513,-0.01030834298580885
1725891518773157000,20.2561572265625,-0.33536475896835327,0.6656898856163025,0.30367615818977356
1725891518792006100,20.275006103515626,-0.24006985127925873,0.7933606505393982,0.6237692832946777
1725891518810855000,20.29385498046875,-0.1539379209280014,0.9540180563926697,0.9438624382019043
1725891518829704000,20.312703857421877,-0.06780599057674408,1.0560325384140015,1.2480731010437012
1725891518848552700,20.331552734375,-0.03176496922969818,1.1653772592544556,1.4343868494033813
1725891518867401700,20.350401611328124,0.009773836471140385,1.1592686176300049,1.615202784538269
1725891518886250500,20.36925048828125,0.08491020649671555,1.2380702495574951,1.8228968381881714
1725891518905099500,20.388099609375,0.17531819641590118,1.2118029594421387,1.979889154434204
1725891518923948500,20.406948486328126,0.27366742491722107,1.1922553777694702,2.136270523071289
1725891518942797300,20.42579736328125,0.32192572951316833,1.236237645149231,2.3085343837738037
1725891518961646300,20.444646240234373,0.389120876789093,1.1665990352630615,2.3085343837738037
1725891518980495000,20.4634951171875,0.3597993552684784,0.9961677193641663,2.3830599784851074
1725891518999344000,20.48234423828125,0.36285367608070374,0.7151699662208557,2.4728569984436035
1725891519018193000,20.50119287109375,0.3689623177051544,0.5581777095794678,2.3531274795532227
1725891519037042000,20.5200419921875,0.4923570156097412,0.3358229100704193,2.1234424114227295
1725891519055890700,20.538890625,0.40255987644195557,0.29794928431510925,2.0342559814453125
1725891519074739700,20.55773974609375,0.39828383922576904,0.3572031855583191,1.9108613729476929
1725891519093588500,20.57658837890625,0.4575377106666565,0.27656903862953186,1.6781219244003296
1725891519112437500,20.5954375,0.49968740344047546,0.2240346521139145,1.4343868494033813
1725891519131286300,20.614286376953125,0.5955931544303894,0.0902552679181099,1.2358558177947998
1725891519150135300,20.63313525390625,0.6414080262184143,0.12935061752796173,0.9627992510795593
1725891519168984300,20.651984375,0.5149590373039246,0.19165882468223572,0.627434492111206
1725891519187833000,20.6708330078125,0.3341430425643921,0.13790272176265717,0.3745364546775818
1725891519206682000,20.68968212890625,0.1948658674955368,0.10125083476305008,0.16012293100357056
1725891519225531000,20.70853076171875,0.03481929376721382,0.05849030241370201,-0.05734493210911751
1725891519244380000,20.7273798828125,-0.10079269111156464,0.08903354406356812,-0.31146466732025146
1725891519263228700,20.746228759765625,-0.21991132199764252,0.14462223649024963,-0.5044979453086853
1725891519282077700,20.76507763671875,-0.2981020212173462,0.20387612283229828,-0.6730966567993164
1725891519300926500,20.783926513671876,-0.3035998046398163,0.07131846249103546,-0.7934370040893555
1725891519319775500,20.802775390625,-0.28038692474365234,-0.08689551800489426,-0.8496365547180176
1725891519338624300,20.821624267578127,-0.25900667905807495,-0.1363755613565445,-0.8526908755302429
1725891519357473300,20.840473388671874,-0.2577849328517914,-0.19929464161396027,-0.8172607421875
1725891519376322000,20.859322021484374,-0.3402516841888428,-0.04535670951008797,-0.8197041749954224
1725891519395171000,20.878171142578125,-0.37262752652168274,0.021227551624178886,-0.900338351726532
1725891519414020000,20.89702001953125,-0.26022839546203613,-0.1357647031545639,-1.0133483409881592
1725891519432868900,20.915868896484376,-0.08979712426662445,-0.26710063219070435,-1.1410191059112549
1725891519451718000,20.9347177734375,0.04581485688686371,-0.4503600597381592,-1.2259292602539062
1725891519470566700,20.953566650390623,0.07024945318698883,-0.6128500699996948,-1.314504623413086
1725891519489415700,20.972415771484375,0,-0.6812669634819031,-1.4488948583602905
1725891519508264400,20.991264404296874,-0.004276053514331579,-0.7728966474533081,-1.5496876239776611
1725891519527113500,21.010113525390626,0.006719512399286032,-0.9408844709396362,-1.5240312814712524
1725891519545962200,21.028962158203125,-0.02932151034474373,-1.0147991180419922,-1.5570179224014282
1725891519564811300,21.047811279296877,-0.08796452730894089,-1.0166317224502563,-1.6181044578552246
1725891519583660000,21.066659912109376,-0.11545344442129135,-1.1143701076507568,-1.6840778589248657
1725891519602509000,21.085509033203124,-0.2003636509180069,-1.4778345823287964,-1.8545091152191162
1725891519621358000,21.104358154296875,-0.26511532068252563,-1.5700751543045044,-1.816024661064148
1725891519640206800,21.123206787109375,-0.28954991698265076,-1.4900518655776978,-1.684688687324524
1725891519659055900,21.142055908203126,-0.2864955961704254,-1.3391683101654053,-1.5887829065322876
1725891519677904600,21.160904541015626,-0.2981020212173462,-1.1919498443603516,-1.6034437417984009
1725891519696753700,21.179753662109373,-0.35124725103378296,-1.0600031614303589,-1.44584059715271
1725891519715602400,21.1986025390625,-0.3756818473339081,-0.9812015295028687,-1.3670389652252197
1725891519734451500,21.217451416015624,-0.47097674012184143,-0.7307469844818115,-1.2906808853149414
1725891519753300200,21.23630029296875,-0.4728093445301056,-0.5578722357749939,-1.128801703453064
1725891519772149200,21.255149169921875,-0.49602219462394714,-0.22495095431804657,-0.9577596187591553
1725891519790998000,21.273998046875,-0.5510000586509705,0.17944152653217316,-0.8966731429100037
1725891519809847000,21.292846923828126,-0.5668824911117554,0.3730856776237488,-0.6773726940155029
1725891519828695800,21.31169580078125,-0.4874700903892517,0.5923861265182495,-0.16180281341075897
1725891519847544800,21.330544921875,-0.3787361681461334,0.5551233887672424,0.07948877662420273
1725891519866393900,21.349393798828125,-0.3488037884235382,0.5325213670730591,0.40080365538597107
1725891519885242600,21.36824267578125,-0.22418737411499023,0.754265308380127,0.7807615399360657
1725891519904091600,21.387091552734375,-0.09162971377372742,1.0077741146087646,0.9267582297325134
1725891519922940400,21.4059404296875,-0.11667517572641373,1.1549925804138184,1.1937061548233032
1725891519941789400,21.42478955078125,-0.13011419773101807,1.2282963991165161,1.5480077266693115
1725891519960638200,21.44363818359375,-0.03298669680953026,1.2331832647323608,1.7819689512252808
1725891519979487200,21.4624873046875,0.10323614627122879,1.2704460620880127,1.8907028436660767
1725891519998336300,21.481336181640625,0.31031930446624756,1.2704460620880127,1.9053635597229004
1725891520017185000,21.50018505859375,0.38301220536231995,1.299156665802002,2.0837361812591553
1725891520036034000,21.519033935546876,0.430659681558609,1.2686134576797485,2.334801435470581
1725891520054882800,21.5378828125,0.6151408553123474,1.0169371366500854,2.18025279045105
1725891520073731800,21.55673193359375,0.5992583632469177,0.9301943182945251,2.1545963287353516
1725891520092580600,21.57558056640625,0.6805033683776855,0.7573196291923523,2.2694389820098877
1725891520111429600,21.5944296875,0.7617483735084534,0.40973755717277527,2.158872604370117
1725891520130278400,21.6132783203125,0.720820426940918,0.3046688139438629,2.01898455619812
1725891520149127400,21.63212744140625,0.6420188546180725,0.28267768025398254,2.0226495265960693
1725891520167976400,21.6509765625,0.8203914165496826,-0.04718930274248123,1.7715842723846436
1725891520186825200,21.6698251953125,0.767857015132904,-0.006872228812426329,1.588324785232544
1725891520205674200,21.68867431640625,0.7855721116065979,-0.004428769461810589,1.5089123249053955
1725891520224523000,21.70752294921875,0.7984002828598022,0.0847574844956398,1.237688422203064
1725891520243372000,21.7263720703125,0.5674933791160583,0.09392046183347702,0.950581967830658
1725891520262220800,21.745220703125,0.18753549456596375,0.03894263133406639,0.6414843797683716
1725891520281069800,21.76406982421875,-0.03481929376721382,0.2490801066160202,0.4087449014186859
1725891520299918800,21.7829189453125,-0.10751219838857651,0.03894263133406639,0.25358524918556213
1725891520318767600,21.801767578125,-0.18264856934547424,-0.007483093533664942,0.051389001309871674
1725891520337616600,21.82061669921875,-0.2889390289783478,-0.005039634648710489,-0.057955797761678696
1725891520356465400,21.83946533203125,-0.4367683231830597,-0.1107192412018776,-0.20517420768737793
1725891520375314400,21.858314453125,-0.5125155448913574,0.04810560122132301,-0.5179370045661926
1725891520394163200,21.8771630859375,-0.35674503445625305,-0.04230238497257233,-0.7060832977294922
1725891520413012200,21.89601220703125,-0.2412915825843811,-0.24022257328033447,-0.7573959827423096
1725891520431861200,21.914861328125,-0.27916520833969116,-0.06123919412493706,-0.7360156774520874
1725891520450710000,21.9337099609375,-0.3139844834804535,-0.039858926087617874,-0.7164680361747742
1725891520469559000,21.95255908203125,-0.33169957995414734,-0.0025961752980947495,-0.8148172497749329
1725891520488407800,21.97140771484375,-0.15271618962287903,-0.045967575162649155,-0.973642110824585
1725891520507256800,21.9902568359375,-0.06291907280683517,-0.15775582194328308,-1.0237330198287964
1725891520526105900,22.00910595703125,-0.1288924664258957,-0.1815795600414276,-1.0719913244247437
1725891520544954600,22.02795458984375,-0.13683371245861053,-0.35445427894592285,-1.2369247674942017
1725891520563803600,22.0468037109375,-0.06047561392188072,-0.46135562658309937,-1.3639847040176392
1725891520582652400,22.06565234375,0.05497783049941063,-0.49739664793014526,-1.3138937950134277
1725891520601501400,22.08450146484375,0.07513637095689774,-0.6299542784690857,-1.3291654586791992
1725891520620350500,22.1033505859375,-0.017104214057326317,-0.6776017546653748,-1.4843250513076782
1725891520639199200,22.12219921875,-0.09468404203653336,-0.7215840220451355,-1.5417463779449463
1725891520658048300,22.14104833984375,-0.12767073512077332,-0.9518800377845764,-1.567402720451355
1725891520676897000,22.15989697265625,-0.14538581669330597,-1.0795507431030273,-1.6376521587371826
1725891520695746000,22.17874609375,-0.24923282861709595,-1.1381938457489014,-1.6889647245407104
1725891520714595000,22.197594970703125,-0.2822195291519165,-1.2426517009735107,-1.7476078271865845
1725891520733443800,22.21644384765625,-0.25534147024154663,-1.3978112936019897,-1.7812052965164185
1725891520752292900,22.23529296875,-0.35735589265823364,-1.3501639366149902,-1.665140986442566
1725891520771141600,22.2541416015625,-0.3329212963581085,-1.1155917644500732,-1.4898228645324707
1725891520789990700,22.27299072265625,-0.3182605504989624,-1.1107048988342285,-1.4977641105651855
1725891520808839700,22.291839599609375,-0.3530798554420471,-0.9579886794090271,-1.4134647846221924
1725891520827688400,22.3106884765625,-0.38728827238082886,-0.7771727442741394,-1.2760201692581177
1725891520846537500,22.329537353515626,-0.39767298102378845,-0.47174033522605896,-1.1819469928741455
1725891520865386500,22.348386474609374,-0.4825831651687622,-0.1455385386943817,-1.0982584953308105
1725891520884235300,22.3672353515625,-0.5393936038017273,0.18982623517513275,-0.9418771266937256
1725891520903084300,22.386084228515625,-0.5088503360748291,0.4237874448299408,-0.733572244644165
1725891520921933000,22.40493310546875,-0.4630354940891266,0.6962331533432007,-0.3548360764980316
1725891520940782000,22.423781982421875,-0.2987128794193268,0.7872520089149475,-0.06467530876398087
1725891520959631000,22.442631103515627,-0.2614501118659973,0.7689260244369507,0.18516838550567627
1725891520978479900,22.46147998046875,-0.23518294095993042,0.7835868000984192,0.6543125510215759
1725891520997329000,22.480328857421874,-0.07819069176912308,0.9253074526786804,0.8589522242546082
1725891521016178000,22.499177978515625,-0.08613193035125732,0.97600919008255,0.9902881383895874
1725891521035026700,22.518026611328125,-0.043371398001909256,1.0810779333114624,1.3506983518600464
1725891521053875700,22.536875732421876,0.14049890637397766,1.2460113763809204,1.5309034585952759
1725891521072724500,22.555724365234376,0.235793799161911,1.2374593019485474,1.689117431640625
1725891521091573500,22.574573486328124,0.32681265473365784,1.2539526224136353,1.8870376348495483
1725891521110422500,22.593422607421875,0.5479456782341003,1.2722786664962769,1.8186208009719849
1725891521129271300,22.612271240234374,0.6340776681900024,1.3040435314178467,1.9175808429718018
1725891521148120300,22.631120361328126,0.6591231226921082,1.1977530717849731,2.1155011653900146
1725891521166969300,22.64996923828125,0.7715222239494324,0.9778417944908142,2.127718448638916
1725891521185818000,22.668818115234377,0.8344413042068481,0.7389936447143555,2.125274896621704
1725891521204667100,22.687667236328124,0.8918625712394714,0.5062541961669922,2.166813611984253
1725891521223516000,22.706515869140624,0.7562506198883057,0.37430739402770996,2.1075599193573
1725891521242365000,22.725364990234375,0.7006618976593018,0.18432845175266266,2.0366995334625244
1725891521261214000,22.7442138671875,0.5583304166793823,0.0487164668738842,2.071518898010254
1725891521280063000,22.76306298828125,0.5039634704589844,0.06582067906856537,1.84855318069458
1725891521298911700,22.781911865234374,0.49052441120147705,0.187382772564888,1.6677372455596924
1725891521317760800,22.8007607421875,0.4062250852584839,0.08842267841100693,1.3586395978927612
1725891521336609800,22.81960986328125,0.2883281707763672,0.10308343172073364,1.0727548599243164
1725891521355458600,22.83845849609375,0.2919933497905731,0.03222311660647392,0.8339067697525024
1725891521374307600,22.8573076171875,0.2565632164478302,0.010842849500477314,0.5742892622947693
1725891521393156600,22.876156494140623,0.09468404203653336,0.1153007298707962,0.32566729187965393
1725891521412005400,22.89500537109375,-0.08429934084415436,0.05482511222362518,0.14118611812591553
1725891521430854400,22.9138544921875,-0.14599667489528656,0.05238165333867073,-0.06406444311141968
1725891521449703200,22.932703125,-0.20463970303535461,-0.006872228812426329,-0.21311545372009277
1725891521468552200,22.95155224609375,-0.25534147024154663,0.09697478264570236,-0.3872119188308716
1725891521487401200,22.970401123046877,-0.2608392536640167,0.0591011680662632,-0.478841632604599
1725891521506250000,22.98925,-0.2419024556875229,0.07070759683847427,-0.60406893491745
1725891521525099000,23.00809912109375,-0.19425499439239502,-0.02764163166284561,-0.714024543762207
1725891521543948000,23.026947998046875,-0.2156352698802948,-0.008093958720564842,-0.797102153301239
1725891521562796800,23.045796875,-0.2516762912273407,0.08170316368341446,-0.8502474427223206
1725891521581645800,23.064645751953126,-0.20158538222312927,0.0951421856880188,-0.9204968810081482
1725891521600494800,23.083494873046874,-0.17592905461788177,0.03588830679655075,-0.9907463192939758
1725891521619343600,23.102343505859373,-0.1588248461484909,-0.052076224237680435,-1.049389362335205
1725891521638192600,23.121192626953125,-0.053145237267017365,-0.1107192412018776,-1.1281908750534058
1725891521657041700,23.140041748046876,0.03237583488225937,-0.3165806829929352,-1.232037901878357
1725891521675890700,23.158890625,-0.014049889519810677,-0.3935496211051941,-1.416519045829773
1725891521694739500,23.177739501953123,-0.06719512492418289,-0.40576693415641785,-1.492266297340393
1725891521713588500,23.19658837890625,-0.037262752652168274,-0.5181660652160645,-1.4886010885238647
1725891521732437500,23.2154375,-0.013439024798572063,-0.6672170758247375,-1.4305689334869385
1725891521751286300,23.234286376953126,-0.07330377399921417,-0.8443678617477417,-1.5252529382705688
1725891521770135300,23.25313525390625,-0.13439024984836578,-0.9903645515441895,-1.5900046825408936
1725891521788984300,23.271984375,-0.13011419773101807,-1.0050252676010132,-1.5900046825408936
1725891521807833000,23.2908330078125,-0.22174391150474548,-1.3556616306304932,-1.7641011476516724
1725891521826682000,23.30968212890625,-0.27488914132118225,-1.4436261653900146,-1.7476078271865845
1725891521845531100,23.32853125,-0.3042106628417969,-1.5083779096603394,-1.7476078271865845
1725891521864380200,23.347380126953126,-0.2981020212173462,-1.3758201599121094,-1.6382629871368408
1725891521883229000,23.36622900390625,-0.21380266547203064,-1.0832159519195557,-1.4751620292663574
1725891521902078000,23.385077880859374,-0.19914191961288452,-0.9140064120292664,-1.4763838052749634
1725891521920927000,23.403927001953125,-0.29443681240081787,-0.6873756051063538,-1.425071120262146
1725891521939775700,23.422775634765625,-0.318871408700943,-0.5364919900894165,-1.2747983932495117
1725891521958624800,23.441624755859376,-0.2816086709499359,-0.4381427764892578,-1.1178061962127686
1725891521977473800,23.460473876953124,-0.32009315490722656,-0.15775582194328308,-0.9669225811958313
1725891521996322800,23.47932275390625,-0.34636032581329346,0.14950916171073914,-0.8441387414932251
