time,seconds_elapsed,z,y,x
1725631399562214700,0.023214599609375,2.1816548880189655,0.23792554354369638,1.1045408389981834
1725631399572167700,0.033167724609375,2.731754868143797,1.1440607292860745,-0.6643854808006435
1725631399582120700,0.04312060546875,1.9610376221507786,0.829905348020792,-1.0485580358177422
1725631399592073700,0.05307373046875,0.5411842677414417,0.32502515032589435,-0.3310749153515324
1725631399602026800,0.06302685546875,-0.1541395913541317,2.690000131475925,1.3201855040855706
1725631399611978800,0.072978759765625,-1.0015952091127633,2.752060574069619,1.7925328208357094
1725631399621931800,0.082931884765625,-1.857685968747735,2.313219074949622,1.125916877569258
1725631399631884800,0.092884765625,0.19139935469031333,2.434774493563175,0.8030407950360328
1725631399641837600,0.102837646484375,0.8924310700386762,2.1871698520481586,0.6663293814100325
1725631399651790600,0.11279052734375,0.22815993633270262,1.2305933498352766,1.0240900956459342
1725631399661743600,0.12274365234375,-0.3800555481523275,0.5961281563282013,0.8702445918675512
1725631399671695600,0.132695556640625,-0.8869897557675838,0.4392898274093866,-0.0755721775304526
1725631399681648600,0.142648681640625,-1.1008072784930467,-0.09203998579382897,-0.5884894050780684
1725631399691601700,0.1526015625,-1.0831909577816725,-1.4855676433354614,0.5993018179282545
1725631399701554700,0.1625546875,0.3018745763629675,-0.9868646729707717,0.78461264648512
1725631399711507700,0.1725078125,1.1331249092519282,0.9394149395316839,-0.016640169155597687
1725631399721459700,0.182459716796875,0.3005132248818874,2.7996833259880542,-1.542713572011143
1725631399731412700,0.192412841796875,0.4566536346644163,3.797930978238582,-3.125791010853648
1725631399741365800,0.20236572265625,1.1351245586365462,3.885286021086573,-4.369041597688198
1725631399751318800,0.21231884765625,1.1585516114532948,-0.6250906314402819,1.9009177922308444
1725631399761271800,0.222271728515625,3.6819291020989415,-0.033570261168479915,3.6202550284743307
1725631399771224800,0.232224853515625,3.9014012895852326,4.630737892919779,-0.7171567745886742
1725631399781176800,0.2421767578125,2.035191822642088,4.806552724987268,-0.9753580673113464
1725631399791129900,0.2521298828125,0.10687690491974353,6.1355181862473485,-0.7596537079259753
1725631399801082600,0.26208251953125,-1.4750713837623595,7.24025052922964,-0.6848571178779006
1725631399811035600,0.27203564453125,-1.559974941805005,7.732734186688065,-0.1617480205312371
1725631399820988700,0.28198876953125,-1.0447674113631247,8.658089621207118,0.5571253487169743
1725631399830941700,0.291941650390625,-0.3113286334067583,9.447246779254078,1.150865148603916
1725631399840893700,0.301893798828125,0.7180921557426452,10.107425090688466,2.0238404075443746
1725631399850846700,0.3118466796875,1.9766192221641539,10.63836736587882,2.506784375502169
1725631399860799700,0.3217998046875,3.3220985958516596,10.955329036736488,2.4019892452925444
1725631399870752800,0.331752685546875,7.283059743386507,11.86958673865795,1.4812521182239056
1725631399880705500,0.34170556640625,7.3441691688656805,9.860147781431674,3.4896190623044965
1725631399890658600,0.351658447265625,6.547109274870157,11.132845996546745,3.2786013994306322
1725631399900610600,0.361610595703125,6.7668199472874395,11.763347547119855,1.6584049208968876
1725631399910563600,0.3715634765625,6.2944187083929775,10.79366547961831,1.1507821464955805
1725631399920516600,0.3815166015625,4.988134450018405,10.60830306700468,-0.051885670059919356
1725631399930469600,0.3914697265625,2.476772391337156,10.225673868972063,-1.7398276510864494
1725631399940422700,0.401422607421875,0.449529774133861,9.856882642155885,-4.751144726020097
1725631399950374700,0.411374755859375,-1.0794047172412276,7.8915739185571665,-6.596233663523197
1725631399960327700,0.42132763671875,-1.488183378791809,6.749581812238693,-8.100605376049876
1725631399970280700,0.43128076171875,0.1435562380194664,5.751290905368328,-9.91828900475502
1725631399980233700,0.441233642578125,-1.6112278669193385,3.3391979069516062,-8.120257586503028
1725631399990186800,0.451186767578125,-1.818020605574548,4.357060067993403,-8.146367010271549
1725631400000139800,0.461139892578125,-2.9674685808569192,2.9718615551188585,-7.9949659039705985
1725631400010091800,0.471091796875,-5.068794963663816,-0.4581665965106338,-9.904024332559109
1725631400020044800,0.481044921875,-4.435600813005864,-4.745511980830132,-14.31858381884098
1725631400029997800,0.490997802734375,-0.6129951199769973,-3.7253348208442327,-21.957952908611297
1725631400039950600,0.50095068359375,-2.886018670399487,-3.6532413522750136,-14.903974308055638
1725631400049903600,0.510903564453125,-6.504678830897808,-3.814895557042956,-11.73163255842924
1725631400059856600,0.520856689453125,-3.035830169421434,-0.9798080324575305,-9.195038443335891
1725631400069808600,0.53080859375,-2.670906723949313,-3.3840053091883657,-8.335064704787731
1725631400079761700,0.54076171875,-1.9154992752909659,-0.6691425391346216,-8.231746369132399
1725631400089714700,0.550714599609375,-1.8297756330370902,-2.7783988381579516,-8.553716223540901
1725631400099667700,0.560667724609375,-3.2558184897363183,-3.1085671965911983,-8.717922450879216
1725631400109620700,0.570620849609375,-3.76611837439239,-3.0675922121241688,-6.623473552626371
1725631400119573500,0.580573486328125,-3.5314778438687324,-2.0936834668383,-5.739544937995076
1725631400129525800,0.59052587890625,-4.44575454275161,-1.5940630893677472,-8.069194923263789
1725631400139478800,0.600478759765625,-6.316126682332158,0.6969739643901586,-4.255529784798622
1725631400149431800,0.610431884765625,-9.676813659775256,1.4447919808328151,0.4510451471328735
1725631400159384800,0.620384765625,-8.198297688516973,-0.5620370861560106,0.20700492010116575
1725631400169337900,0.630337890625,3.291728299768269,-2.645079624253511,-14.673582667148112
1725631400179291000,0.640290771484375,-1.4163859705597162,-1.1329103897184132,1.2202981657922267
1725631400189242600,0.65024267578125,-1.4059592690914868,0.450022233825922,4.525308848720789
1725631400199195600,0.660195556640625,-6.247306828606129,2.906214778470993,0.1267763681322336
1725631400209148700,0.670148681640625,-7.294462596410512,1.5836889948695898,-4.195895108047128
1725631400219101700,0.680101806640625,-5.596369223725795,-1.3122832065284251,-5.1826230028957125
1725631400229054700,0.6900546875,-4.456979408860207,0.9016209231883286,-2.0341502046346664
1725631400239007700,0.7000078125,-4.419920721054077,1.6654250287920236,0.2149529564961791
1725631400248959700,0.709959716796875,-5.415391894328594,1.411432732066512,-0.42764907397627827
1725631400258912800,0.719912841796875,-6.486112077593803,0.5912450604617595,-2.302502742885053
1725631400268865800,0.72986572265625,-6.293186536249518,-0.179083478474617,-3.0024355570808052
1725631400278818600,0.739818603515625,-5.766352865421772,-0.7601824079751968,-3.325456966368854
1725631400288771600,0.749771484375,-4.183939881837368,-1.3882038321703671,-3.584229775369167
1725631400298723600,0.7597236328125,-3.169322109544277,-1.6089005930155516,-3.549846151991188
1725631400308676600,0.769676513671875,0.03248363497555256,-3.0603736590474844,-5.093657017719745
1725631400318629600,0.779629638671875,-5.642813579514622,-3.08125044285953,-4.596526995760202
1725631400328582700,0.789582763671875,-19.884590637528895,0.3301858940899372,-3.949866629807651
1725631400338535700,0.79953564453125,-5.485368516874313,-2.579803142222762,-6.6265189116716385
1725631400348488700,0.80948876953125,6.218952840781212,-6.562306259480119,-7.043114676713943
1725631400358440700,0.819440673828125,19.26256816148758,-13.246401161807775,-12.819347131115197
1725631400368393700,0.829393798828125,-4.056002653232216,-5.9260664575159545,-7.438529122039675
1725631400378346800,0.8393466796875,-4.137052458456158,-5.23833495324552,-6.533727815249562
1725631400388299800,0.8492998046875,-2.345491113001108,-4.787550502875447,-4.472060365875065
1725631400398252800,0.859252685546875,1.8671604840576648,-5.887578029167652,-5.438182402807474
1725631400408205800,0.869205810546875,7.271859134936332,-9.427848835822939,-9.348711001700162
1725631400418157800,0.87915771484375,7.103139814087748,-9.434266301649808,-10.550595558923483
1725631400428110600,0.889110595703125,1.7393261313050985,-6.048161974355578,-8.161782021546363
1725631400438063600,0.899063720703125,2.4888176339179275,-3.3633167414247986,-2.4496976296678183
1725631400448016600,0.9090166015625,5.415503538009524,-2.4926585272550583,-0.7383558491576463
1725631400457969700,0.9189697265625,5.4063914262712,-1.5982167019158602,-0.5220362439507619
1725631400467922700,0.928922607421875,3.2316403262913225,1.0009697706907987,0.6777154294297099
1725631400477874700,0.938874755859375,5.072342427012324,0.5781342344760895,0.9971521851640194
1725631400487827700,0.94882763671875,11.031700328755377,-4.874216394415497,-0.3926498759832233
1725631400497780700,0.95878076171875,11.665188786184787,-13.480407486081123,-7.132937570980191
1725631400507733800,0.968733642578125,-0.22135931640714407,-7.758304096752405,-11.717352688664198
1725631400517686500,0.9786865234375,-1.8123723705545067,-2.279479302433133,-1.4477908703878521
1725631400527639600,0.9886396484375,-7.694296027222276,0.9825526549905538,3.1636051932021974
1725631400537592000,0.998592041015625,-17.697029155814647,6.7795058258593075,10.601639517462253
1725631400547545000,1.008545166015625,-11.489142483448981,5.557495595452189,5.981685468885302
1725631400557498000,1.018498046875,-2.678678526994586,4.333858056104183,2.1684432320073244
1725631400567451100,1.028451171875,3.3720290401905775,5.01569114998579,-0.6313961613252759
1725631400577404200,1.038404052734375,4.978427879518271,4.36717288120687,-2.0661077699095007
1725631400587356400,1.0483564453125,3.208959123405814,5.959529751178622,-2.1786007611453533
1725631400597309200,1.05830908203125,1.8236764393791556,6.49958355358541,-1.8366667077250778
1725631400607262200,1.06826220703125,1.8272870310917495,5.927096969607472,-1.7551884479559956
1725631400617215200,1.07821533203125,1.0292197136193513,4.897772042047977,-1.3352623694472014
1725631400627168300,1.088168212890625,0.07173983282595872,3.283266468632221,-1.2206804431080818
1725631400637121300,1.098121337890625,-0.7015417106971145,1.4304647647947073,-0.9591314473927021
1725631400647073300,1.1080732421875,-1.0230103375852106,0.5497282242029905,-0.7873315500549971
1725631400657026300,1.1180263671875,-1.3140493394181132,-0.5547983670741319,-0.33018823217749593
1725631400666979300,1.127979248046875,-1.5094804338425396,-0.6645113722026348,-0.4681086562670767
1725631400676932000,1.13793212890625,-1.8365110787719487,-0.558546905952692,-0.7972001792490482
1725631400686885000,1.147885009765625,-2.1518407645136115,-0.35592473098039623,-1.7387657209433613
1725631400696838100,1.157838134765625,-2.1571365328341723,-0.4249082508355379,-2.7632404319927093
1725631400706790100,1.1677900390625,-1.6291645056262611,0.2673456992954016,-2.080971577042341
1725631400716743200,1.1777431640625,-1.5299021673634647,1.7028665784358978,-1.928241998616606
1725631400726696200,1.1876962890625,-1.830650370045006,1.5587334173113108,-1.8001535249724983
1725631400736649200,1.197649169921875,-1.9674407671913503,3.1209500005632638,-1.7672540026724337
1725631400746602200,1.207602294921875,-0.6330486047074199,2.2143787614911794,-1.9007697620622812
1725631400756555300,1.21755517578125,0.45958048189654943,0.5445528673917055,-1.8666564800582826
1725631400766507300,1.22750732421875,2.2211162530526516,0.018863105902075766,-7.333589907184243
1725631400776460300,1.237460205078125,2.8026947827637194,-0.34878888775110245,-5.92762303930819
1725631400786413300,1.247413330078125,2.157866016152501,0.9287637816578149,-3.625964638292789
1725631400796366300,1.257366455078125,2.2212661829173563,-0.6273083074897527,-5.649599878653883
1725631400806319400,1.2673193359375,1.3861749566912651,-0.04551555050611496,-2.613661572682857
1725631400816272400,1.2772724609375,0.7235317164480686,0.4560299498081207,2.1152686911806464
1725631400826224400,1.287224365234375,-0.5860360936418175,1.8138585174590347,8.304578381109238
1725631400836177200,1.29717724609375,0.30941578552275895,2.1280174058556556,16.07197413133383
1725631400846130200,1.307130126953125,0.5440060471639037,-2.9368928253293034,7.014981638163328
1725631400856083200,1.317083251953125,-0.7469704597026109,-3.9844419763654466,1.6348732386618852
1725631400866036200,1.3270361328125,0.01993921070098877,-3.7148213178753853,1.7909300618141888
1725631400875989200,1.3369892578125,1.1295941047772764,-4.207580869665741,1.415140354412794
1725631400885941200,1.346941162109375,1.5677572662442922,-4.652983042475581,1.450047709403932
1725631400895894300,1.356894287109375,2.1147683404430744,-4.629477079203725,1.9402191443972288
1725631400905847300,1.366847412109375,2.077553000770509,-3.4825095225602385,2.071491801035404
1725631400915800000,1.376800048828125,2.5786186086133123,-3.48586409368515,1.8300180634908376
1725631400925753000,1.386753173828125,2.4821459010690448,-3.381334044152498,2.4253987624526023
1725631400935706000,1.3967060546875,1.4520622640967369,-2.172558558371663,2.673580911594629
1725631400945658000,1.406658203125,0.31515023752152915,-1.933279846653342,1.8255735051721333
1725631400955611100,1.416611083984375,-1.080170440916717,-0.883524125483632,1.5391305989578365
1725631400965564200,1.426564208984375,0.5978980886101722,-1.508422449222207,2.108963745817542
1725631400975517200,1.43651708984375,-0.9032233899489045,1.100042139339447,0.5219324547827243
1725631400985470200,1.44647021484375,2.667240602657199,-3.607361060109734,0.33199908099174497
1725631400995423200,1.45642333984375,-0.4954604813121259,-0.2739671632617712,-2.673994460831582
1725631401005375200,1.466375244140625,-0.4345405870556831,-0.08921616054475306,-2.195912253691256
1725631401015328300,1.476328369140625,-1.1443306322686373,3.266990456613898,-3.3699767838358876
1725631401025281300,1.48628125,-0.485779045253247,5.103149653208256,-2.3008549756780265
1725631401035234300,1.496234375,1.030158455774188,4.884387659817934,-1.1940955107823013
1725631401045187300,1.506187255859375,1.1120482189536094,4.8319981318891045,-0.7740843843385576
1725631401055140400,1.516140380859375,0.7437520821779966,4.581382033598422,0.012092881114780902
1725631401065092400,1.52609228515625,0.15678922908008097,3.292845028838515,0.20089462052732704
1725631401075045000,1.536045166015625,-0.35677184932902456,2.508496732378006,0.06667626582607626
1725631401084998100,1.545998046875,0.2073129631370306,1.716963492849469,-0.08478139296770096
1725631401094951200,1.555951171875,0.18292729442119599,0.5838502740353345,-0.24007322309687731
1725631401104904200,1.565904296875,-0.11415113370642066,0.6315501828432083,-0.9004799364596605
1725631401114857200,1.575857177734375,-1.3835498688846826,-1.5733423729002476,-0.17426584905982018
1725631401124810200,1.585810302734375,0.8881057541854679,-3.5745436631351706,-1.1588465027466415
1725631401134762200,1.59576220703125,0.24598200874924658,-1.227642098814249,-0.33589375034272667
1725631401144715300,1.60571533203125,0.7171444996289909,-0.7384925542145967,-0.14066168562173842
1725631401154668300,1.615668212890625,1.1647843683630228,-0.9721429046571254,-0.3618751638174057
1725631401164621000,1.62562109375,0.14113120282962918,1.0992466050475835,0.041240357404947275
1725631401174574000,1.635573974609375,0.03455518055260181,0.6317290465414523,-0.6476496692508459
1725631401184527000,1.645527099609375,-0.4902139589607715,0.9193675922811031,-0.834357066732645
1725631401194479000,1.65547900390625,-1.0324209938786924,0.6861790141314268,-0.8289791730865835
1725631401204432100,1.66543212890625,-0.8331003446698189,0.5146101490706205,-0.5660735020652413
1725631401214385200,1.67538525390625,-0.4095457004003227,1.4679045608729122,0.21668343355059622
1725631401224338200,1.685338134765625,-0.044022097077965734,0.7163695697337389,0.2559799634113908
1725631401234291200,1.695291259765625,0.07803966362252832,3.123590285938978,0.2225315750569105
1725631401244244200,1.705244140625,-0.0032329905718564986,3.5960891399890182,0.40177404348552226
1725631401254196200,1.7151962890625,-0.24394421931132673,1.4999252545118331,0.16175912644714116
1725631401264149200,1.725149169921875,-0.39179683935046195,1.0910533617198466,-0.4733160156518221
1725631401274102300,1.735102294921875,-0.8568335408262908,0.4432201525956392,-0.22731822481155395
1725631401284055300,1.74505517578125,0.34016265983358024,-1.3031325163453817,0.5000774735882878
1725631401294008300,1.75500830078125,0.7753291237026453,-0.8758674732506274,1.1236992015197873
1725631401303961300,1.76496142578125,0.8398973113335668,-2.067127760607004,0.9682938280135392
1725631401313914400,1.774914306640625,1.007933179962635,-1.7929150981515645,1.196524199233949
1725631401323866000,1.7848662109375,-1.0550701941907406,-1.1250801344841719,0.8001102214768528
1725631401333819100,1.794819091796875,-1.4700141003727911,-1.053195047968626,0.5698822466984391
1725631401343772200,1.804772216796875,-0.695166038185358,-1.02758071424067,0.5042246563956141
1725631401353725200,1.81472509765625,-0.2749497445583343,-1.2547153991788624,0.2528752753943205
1725631401363678200,1.82467822265625,0.38554004397802055,-1.2541390605956315,0.3968286960378289
1725631401373631200,1.83463134765625,0.29574126123972233,-1.5361743795007465,0.7896805973991751
1725631401383583200,1.844583251953125,-0.25806239570863543,-1.0706944643020628,-0.042161856164038176
1725631401393536300,1.854536376953125,-1.521811507627368,-2.9083769249409435,0.4367743374571204
1725631401403489000,1.864489013671875,-1.863704206123948,-1.1841548392653465,-0.4299763478800654
1725631401413442000,1.874442138671875,-1.3977858995079993,-2.4085434892416,-0.17418664634376763
1725631401423395000,1.88439501953125,-1.4387825112849473,-4.086054092624783,-0.4526525823295116
1725631401433348000,1.89434814453125,-2.0034031841933726,-3.7793256464898586,-0.015262158800661563
1725631401443301000,1.904301025390625,-1.4188643433719872,0.29072189870774745,0.8017743552967905
1725631401453253400,1.91425341796875,-1.3920634302079677,-1.7361399024844169,2.6187115495488045
1725631401463206400,1.924206298828125,-0.4370294812619686,-1.869690879318118,2.2239438776940106
1725631401473159400,1.934159423828125,-2.597111419898271,-0.0016413374662399291,1.4811879669465124
1725631401483112200,1.9441123046875,-0.17350538608133792,0.5895633909851312,0.0946953226082027
1725631401493065200,1.954065185546875,-1.9916712453454732,1.1697878757387399,-2.0409400109052656
1725631401503018200,1.964018310546875,-2.8473113386034963,1.0548433996975422,-1.8948462172321974
1725631401512970200,1.97397021484375,-1.7698317442059517,1.3190823651492596,-1.543309345947206
1725631401522923300,1.98392333984375,-0.5123830476056784,2.4934406175434587,-1.7251348166063427
1725631401532876000,1.9938759765625,0.8813573759038,4.490850698801875,-2.125685455776751
1725631401542829000,2.0038291015625,-0.163040690690279,5.586151196572184,-2.494143212854862
1725631401552782000,2.013781982421875,-0.8066366275709121,4.6047681698828935,-2.0022879164278504
1725631401562735000,2.023735107421875,-0.05465221216380596,4.9763358756750815,-1.7145675376236438
1725631401572688100,2.033688232421875,0.7932464731872081,3.417873091998696,-0.6420882357314228
1725631401582640000,2.04364013671875,0.029448285867646334,1.9360060567468405,0.35766087059061974
1725631401592593200,2.05359326171875,-0.12311382703669368,1.858649845343828,0.6293941007878631
1725631401602546000,2.0635458984375,-0.5702670812975615,1.6515321125179527,0.8549886436119675
1725631401612499000,2.0734990234375,-1.1564654528290033,1.174144317382574,0.37118981239050625
1725631401622452000,2.083451904296875,-1.0734095684796572,1.1768605906039475,-0.20950323972292242
1725631401632405000,2.093405029296875,-0.3738432495087385,0.518223663392663,-0.28450170901864763
1725631401642357000,2.10335693359375,0.24586225482709703,-0.7699398318797349,-0.5347235472947359
1725631401652310000,2.11331005859375,-0.659217941969633,-0.49280514449775215,-0.5441663522921503
1725631401662263000,2.123262939453125,-1.6358482211738823,0.9130892426639795,-0.5193679380569607
1725631401672216000,2.133216064453125,-1.2114806530863047,-0.039033202749490736,-0.3986020623859018
1725631401682169000,2.143169189453125,-0.8409352760791778,-1.340469436571002,0.028773528411239382
1725631401692121900,2.153121826171875,-1.1705622941773384,-1.0019225413709878,0.46471178037039934
1725631401702075000,2.163074951171875,-1.0557400562763213,-0.4520341581702232,0.49610477056503294
1725631401712027100,2.173027099609375,-0.6724000065606087,-0.8366612520217895,0.38477527015060187
1725631401721980200,2.182980224609375,-0.6734206548452377,-0.9535182836860417,0.3303676803976297
1725631401731933200,2.19293310546875,-0.6616355245053768,-1.299944533959031,0.42759164470061656
1725631401741886200,2.20288623046875,-0.026730112950131297,-1.239217970317602,0.6233452490776777
1725631401751839200,2.212839111328125,0.07448277485854923,-0.985631331783533,0.9893203955598175
1725631401761792300,2.222792236328125,0.1251296238385141,-0.8048901492297649,1.136208992872387
1725631401771744000,2.232743896484375,-0.14026296862773596,-0.8412766368627548,1.0864899993270636
1725631401781697000,2.242697021484375,-0.19443828399479388,-1.0783604688853026,0.7648447006978094
1725631401791650000,2.252650146484375,-0.03960603420138359,-1.104913544768095,0.7738402003191411
1725631401801603000,2.26260302734375,-0.02444704351425171,-0.4998357737869024,0.6933101811856031
1725631401811556000,2.27255615234375,-0.6274450856119393,0.2729460035204887,0.3200231042549014
1725631401821509000,2.282509033203125,-0.872335718927905,0.14582535199522972,-0.1269862114906311
1725631401831462100,2.292462158203125,-0.560170269370824,-0.13386778769791124,-0.022162001316994428
1725631401841414000,2.302413818359375,0.04860416417121887,0.12143909875750541,0.6485955717988312
1725631401851367000,2.312366943359375,0.6698293523550033,0.5983762275159359,0.7683014170229434
1725631401861320000,2.32231982421875,0.0449568206448108,0.9627765258967876,0.2753694312751293
1725631401871273000,2.33227294921875,-0.676810224218294,0.5218260717988014,-0.46136415044292806
1725631401881226000,2.34222607421875,-0.5817565166264772,0.10273089115619659,-0.1581362597748637
1725631401891179000,2.352178955078125,0.09119140614047647,0.15378127943575381,0.5510198714487254
1725631401901131300,2.36213134765625,0.646703912833333,0.31929157510995865,1.056146445120126
1725631401911084300,2.372084228515625,0.21676468209326266,0.1302092651903629,1.1189436775557695
1725631401921037300,2.382037353515625,-0.10244330638647078,-0.060325581625103944,0.568973169029504
1725631401930990000,2.391989990234375,0.1478045431137085,-0.04864917235672474,0.05380070990100503
1725631401940943000,2.401943115234375,0.05246142412126064,0.23686872796714303,-0.18608721975684164
1725631401950896000,2.411896240234375,0.25782544514760375,0.6267097570747137,-0.5144790700368583
1725631401960849200,2.42184912109375,0.207853061363101,0.32592122238278387,-0.37630320988148447
1725631401970801200,2.43180126953125,0.2462263388991356,0.38603637612760067,-0.6077186408787966
1725631401980754200,2.441754150390625,0.3443107194237411,0.7975222508102655,-0.7959415574900806
1725631401990707200,2.451707275390625,-0.24023367435559628,-0.00015489830076694487,-0.30678938254192467
1725631402000660200,2.46166015625,-0.5879951187551021,-0.1966366708219051,-0.28937969031855465
1725631402010613200,2.47161328125,-0.04082768495082855,0.37017654369473457,-0.27361659625843165
1725631402020566000,2.48156591796875,0.07587167193368077,-0.5287912346363067,0.2879005576767027
1725631402030518000,2.49151806640625,0.354898456672579,-0.1816360855668783,0.28650895718783137
1725631402040471000,2.501470947265625,0.6563748274981975,-0.5852262385636567,0.6853722277931869
1725631402050424000,2.511424072265625,1.2074686409659683,0.555221560922265,0.4845430737175047
1725631402060377000,2.521377197265625,-0.2833813266865909,0.9778706346541642,-0.3500781969092786
1725631402070330000,2.531330078125,-0.7299754857599735,0.6960077497065067,-0.49291371943876144
1725631402080283100,2.541283203125,-0.23567454974651336,0.15321253963708878,0.07689297780543565
1725631402090236200,2.551236083984375,0.811121883226186,0.9371423184245824,0.3309833280779421
1725631402100188000,2.56118798828125,0.8381880231976508,0.3227735720068216,0.46600320842042564
1725631402110141000,2.571140869140625,-0.2338243918351829,-0.4831570261865854,0.1547350730292499
1725631402120094000,2.581093994140625,-0.4191682458788156,-1.0287684627205134,0.245463683963567
1725631402130047000,2.591046875,0.3514699435286224,-1.658969569042325,1.0557656291089952
1725631402140000000,2.601,2.3453443980067967,-0.10895721832513809,0.3242052122451365
1725631402149953000,2.610953125,2.178493939770013,0.2313333056718111,0.38595059754028915
1725631402159905300,2.6209052734375,1.1572865599535405,-0.42025721015930173,0.7422036836922168
1725631402169858000,2.630858154296875,0.7818506344258784,-0.8387824819594621,1.0918331139206885
1725631402179811000,2.64081103515625,0.2313163545370102,-1.3946014242529867,1.202006576167792
1725631402189764000,2.65076416015625,0.3910775851652026,-1.6204612669497727,1.422106394033134
1725631402199717000,2.660717041015625,-0.11303192041814326,-1.3714777382969856,0.8064568140245973
1725631402209670100,2.670670166015625,-0.29824162668809295,-1.5213567495971918,0.377995693013072
1725631402219622100,2.6806220703125,0.0602361497759819,-1.2908558030962942,0.23017463715597986
1725631402229575200,2.6905751953125,-0.21274989349395035,-0.9725304426699877,-0.05533829473182559
1725631402239528200,2.700528076171875,-0.10334756174981594,-1.2289882527261973,0.1172797871209681
1725631402249481200,2.710481201171875,-0.49045302841365335,-0.8959668429493903,-0.15227350522130728
1725631402259434000,2.72043408203125,-0.33121173000633714,-0.8209317679703235,-0.3765368725068867
1725631402269387000,2.730386962890625,0.08356354161053896,-0.572044100907445,-0.42619609868898983
1725631402279340000,2.740340087890625,0.36903657987937327,-0.10835048460364341,-0.6279375453040004
1725631402289292000,2.7502919921875,0.2619175367668271,0.3921919761478901,-0.6674005177728831
1725631402299245000,2.7602451171875,0.14040800312161444,0.6883885068744421,-0.39330636713057754
1725631402309198000,2.770197998046875,-0.1160498069345951,0.5208434905022382,-0.3537392036348581
1725631402319151000,2.780151123046875,0.237948632158339,0.4744207620233297,0.22625424884185194
1725631402329104100,2.790104248046875,-0.6944093745991587,1.2090309218466282,-0.3004031886361539
1725631402339057000,2.800056884765625,-0.8726686772093176,1.3459978446036576,-0.5989388298347592
1725631402349009200,2.810009033203125,-0.6010656127303838,1.9564239908754824,-0.7828986821740865
1725631402358962200,2.819962158203125,-0.13451602247357367,2.228230176711082,-0.8017147340640425
1725631402368915200,2.829915283203125,0.34259295572042464,1.9839631551861763,-0.5822770333692431
1725631402378868200,2.8398681640625,0.13143617663681506,1.914991910290718,-0.7664958289057016
1725631402388821200,2.8498212890625,0.08908128211870789,1.6130127045094966,-0.9586915946707129
1725631402398774300,2.859774169921875,0.3594390227116644,1.0600234326839446,-0.8583195416003465
1725631402408726000,2.86972607421875,0.3532639873385429,1.0854384444475174,-0.7893513654448091
1725631402418679000,2.879678955078125,-0.22832404085323213,0.9431903664171695,-0.7721306199222803
1725631402428632000,2.889632080078125,-0.17157807128056882,0.15096505297124385,-0.3548214459136128
1725631402438585000,2.899585205078125,0.14798413746431469,-0.25939795516133307,0.4203203385233879
1725631402448538000,2.9095380859375,-0.48477615182101724,-0.008115501916408538,0.17027955590263008
1725631402458491100,2.9194912109375,-0.27703648770451544,-0.4836842649310827,0.09174421771764754
1725631402468443100,2.929443115234375,0.1611842491686344,-0.7396031458050012,0.4861738897897303
1725631402478396200,2.939396240234375,0.1381185770101845,-0.7323205875813961,0.7181812953308224
1725631402488349200,2.94934912109375,0.5936123741149902,-1.2023814008295535,0.723742582719773
1725631402498302000,2.959302001953125,0.0747951287433505,-1.163853224992752,0.2191844565860927
1725631402508255000,2.9692548828125,-0.24907106080576777,-0.8392752339124679,-0.06821852683201432
1725631402518208000,2.9792080078125,-0.29707039095163346,-0.7777104658812284,0.03423310899138451
1725631402528161000,2.9891611328125,-0.5166529069446028,-0.5218605585902929,0.15115473032444715
1725631402538112800,2.99911279296875,-0.8520061206698417,-0.22819734573364256,-0.030904110699146985
1725631402548065800,3.009065673828125,-1.2362934611730276,0.10996259597539901,-0.27200521553903817
1725631402558018800,3.019018798828125,-0.7514489202909171,-0.2682254047393799,-0.4625228189587593
1725631402567971800,3.028971923828125,-0.6247282278686761,0.16660335160791873,-0.4391486653730273
1725631402577924900,3.0389248046875,-1.028034303227067,0.7363292387008666,-0.9237973183568566
1725631402587878000,3.0488779296875,-1.0815396834433078,1.2248860781043767,-1.4818606055110692
1725631402597830000,3.058829833984375,-1.2193202606707811,1.2244424259901046,-1.5309747650310397
1725631402607783000,3.068782958984375,-0.9448644371092318,1.14832130934,-1.5377391445994377
1725631402617736000,3.07873583984375,-0.8422237084545194,1.2575690350443125,-1.6711881223633884
1725631402627689000,3.08868896484375,-1.5333439783804117,1.5098334850639104,-1.7611583161458373
1725631402637642000,3.09864208984375,-1.9070989650838075,0.9202110573679209,-2.112382614350319
1725631402647595000,3.108594970703125,-1.4864344892978667,0.49747138274312014,-1.6751108487650752
1725631402657547000,3.118547119140625,-1.3236638477206228,0.08136077086925506,-1.0128938711099327
1725631402667499800,3.128499755859375,-0.8466821491681039,-0.11695113968849181,-0.8851315606802701
1725631402677452800,3.138452880859375,-0.983917513602972,-0.6191366914719343,-0.49784982413407414
1725631402687405800,3.14840576171875,-1.250479369044304,-0.6938362508863211,-0.9136480455905198
1725631402697358800,3.15835888671875,-0.6474087731670588,-0.832765998148918,-1.3708011542096734
1725631402707311900,3.168311767578125,-0.6374545845814049,-1.18131347835958,-0.9285630714539438
1725631402717264000,3.178263916015625,-0.2354454171657562,-1.4513187522530555,-0.6806283212017268
1725631402727217000,3.188216796875,-0.33539223056137557,-1.725119326776266,-1.1281715246282518
1725631402737170000,3.198169921875,-0.7049351525276899,-1.5434066688418386,-1.5544474105551838
1725631402747122700,3.208122802734375,-0.9245118963669985,-2.119592691859603,-1.6322474202029407
1725631402757075700,3.21807568359375,-0.43138409578613934,-2.4664929893851277,-0.851661033559218
1725631402767028700,3.22802880859375,0.015904402226954696,-1.9664421115428208,-0.25776998863331974
1725631402776981800,3.237981689453125,-0.08144369991235434,-1.323159989851713,-0.5516234633650631
1725631402786934000,3.24793408203125,-0.5296060581505299,-1.464557588532567,-0.8526038673672824
1725631402796887000,3.257886962890625,-0.14421141399256884,-2.428679683819413,-1.5981336998075246
1725631402806840000,3.267840087890625,0.4181904138226062,-2.0209569610625504,-1.3640091559819876
1725631402816793000,3.27779296875,0.8080922332067042,-0.954592050397396,-1.0678143788211047
1725631402826746000,3.28774609375,1.0005057333756238,-0.2731383112221956,-1.2555489273935556
1725631402836699000,3.297698974609375,0.5362422082293778,0.426271355882287,-0.7021829312101006
1725631402846651000,3.30765087890625,0.34721835049875077,0.7992489284723997,-0.9739598909512162
1725631402856604000,3.31760400390625,0.17089615343101322,0.31795068189501763,-0.20798582089729606
1725631402866557000,3.327556884765625,0.23906013706419615,0.3512830426543951,0.2678111613826826
1725631402876510000,3.337510009765625,0.43597266568541526,0.8677654153376817,-0.4606754740590229
1725631402886463000,3.347462890625,-0.07547237041778862,0.278883576875925,-0.009611329964734613
1725631402896416000,3.357416015625,1.0389910929840058,0.4171609977096319,-0.8098835005376488
1725631402906367700,3.36736767578125,0.9083586339455098,0.6691197427809238,-1.2828187732435763
1725631402916320800,3.37732080078125,-0.35785774486958977,0.2745417482793331,-1.0352351745165884
1725631402926273800,3.387273681640625,-0.5596558170426637,0.6040262161016464,-1.1791384724080562
1725631402936226800,3.397226806640625,-0.4532984790176153,-0.39273324341773985,-0.2572683592541143
1725631402946179800,3.407179931640625,-0.3364068874966353,0.2783282810807228,0.46357857508938755
1725631402956132900,3.4171328125,-0.14635544028393924,0.22378362094461918,1.323170365115255
1725631402966084900,3.4270849609375,0.21489077798016368,0.4306248749166727,1.118983644239977
1725631402976038000,3.437037841796875,-0.13779402123093604,1.1343664337456225,0.5548384068235754
1725631402985990700,3.44699072265625,-0.13568857338428497,1.3433090439110993,0.640258389955759
1725631402995943700,3.456943603515625,1.2300392230838537,1.553335357660055,0.6304838687859475
1725631403005896700,3.466896728515625,0.8118822000741958,2.4542343963146207,0.3067612158933654
1725631403015849700,3.476849609375,-0.7169839022397995,2.6562825707912445,-0.352401050366275
1725631403025802000,3.486802001953125,-1.094293951076269,2.532570266404748,-0.8842378267109393
1725631403035755000,3.496755126953125,-0.07866020667366683,2.043604846200347,-0.5031716036787256
1725631403045708000,3.5067080078125,0.9991408016979694,1.65101539516747,-0.26975634063370524
1725631403055661000,3.5166611328125,1.6415999165683983,0.8737076648682356,-0.23345427988115697
1725631403065614000,3.526614013671875,1.3910691584736108,0.05986088672280311,-0.4151874691469595
1725631403075566800,3.53656689453125,1.1365766571409999,0.07293430330753325,-0.14625238176826386
1725631403085518800,3.546518798828125,0.8515198715228587,0.4329284756839275,-0.2855391988402232
1725631403095471900,3.556471923828125,0.5687479819715022,0.6427174735456704,-0.6256148014448583
1725631403105425000,3.5664248046875,0.14763978100605307,0.42379122950434683,-0.1185820653585717
1725631403115378000,3.5763779296875,0.40686230653524397,0.5688929434001445,0.7031200659297406
1725631403125331000,3.5863310546875,1.198598375159502,0.036115853998064995,1.0154252892836928
1725631403135284000,3.596283935546875,0.9880874927639961,0.4575368472397327,1.296157562766224
1725631403145237000,3.606237060546875,3.1255753222763536,0.720589817777276,1.8766956435136495
1725631403155188700,3.616188720703125,1.7653513839215038,-1.0707944175451993,2.04349641738981
1725631403165141800,3.626141845703125,0.39583880821764467,-1.2027321139633655,1.8186046890728174
1725631403175094800,3.6360947265625,0.19265023153424263,-1.742577826577425,1.6566485787488519
1725631403185047800,3.6460478515625,0.19716683217585085,-2.6238462820887563,1.6944482941806316
1725631403195000800,3.656000732421875,0.4720265603631735,-2.714693258705735,1.091401444505155
1725631403204953900,3.665953857421875,0.5811691451925785,-2.377664951375127,0.602609627301991
1725631403214905900,3.67590576171875,0.06012384850792586,-2.075077842828631,0.3393813732627779
1725631403224859000,3.68585888671875,-0.2695044116992503,-1.9900725779771804,0.431683407526277
1725631403234812000,3.69581201171875,-0.6754254918616265,-1.9510849679350852,0.693042616290599
1725631403244765000,3.705764892578125,-1.1836240203242747,-2.4454993011951447,-0.20124562592208384
1725631403254718000,3.715718017578125,-1.5666174485594033,0.033809915143251414,-0.23645408275164662
1725631403264671000,3.7256708984375,-1.1962696399509907,-0.0751239223062992,0.6283610314130783
1725631403274623000,3.735623046875,-0.5549784728813916,-0.6415057596683502,0.9365867303684353
1725631403284576000,3.745575927734375,-0.3009071195703,-0.675885583654046,1.1446944971449673
1725631403294529000,3.755529052734375,-0.22138708119690417,-0.2892892355561256,0.9314591582216322
1725631403304482000,3.76548193359375,-0.3661680387057364,0.29625030674040315,0.5818704253297299
1725631403314434800,3.775434814453125,-0.6964466525804252,0.3055693392276764,0.5836059804180637
1725631403324387800,3.785387939453125,-0.6358826590895652,0.37539223251640796,0.5142650984926149
1725631403334339800,3.79533984375,-0.32117607368230816,0.46096039194762706,0.2431898572800681
1725631403344292900,3.80529296875,-0.23802140513360498,0.7445008547186851,-0.36202428996451197
1725631403354246000,3.815245849609375,-0.5406833324819803,1.3381167359650135,-1.1145121248491108
1725631403364199000,3.825198974609375,-0.5719893019802869,1.3370681036949157,-1.0991910754680634
1725631403374152000,3.83515185546875,-0.09190905289053916,1.3244038524329662,-1.000516181704402
1725631403384105000,3.84510498046875,0.12292319983541965,1.2472761890888213,-0.8695573402557522
1725631403394056700,3.855056640625,-0.23588724264912306,1.161878125527501,-0.7224056350275874
1725631403404009700,3.865009765625,-0.5070323342274874,0.8804846116572618,-0.6746435477036983
1725631403413962800,3.874962646484375,-0.015002265755459666,0.1078413660377264,-0.18502145368885248
1725631403423915800,3.884915771484375,-0.23964272272512316,0.5715308906883001,-0.11991057401597499
1725631403433868800,3.894868896484375,-0.8090460998654365,1.101985090100765,-0.16689254381284116
1725631403443821800,3.90482177734375,-0.7181492927573621,1.080199959272146,-0.002727379137277603
1725631403453774000,3.914774169921875,-0.38038054232299323,0.8888239854574203,0.033114151431433855
1725631403463727000,3.92472705078125,0.6128040543843061,0.8083633782982825,-0.2732163814270869
1725631403473680000,3.934679931640625,0.6885806684456766,1.100610879138112,-0.43483997186105694
1725631403483633000,3.9446328125,0.4388485133826732,1.3905173698097466,-0.7510087753079832
1725631403493586000,3.9545859375,0.09188274940550327,1.60067870811522,-1.1019892548192292
1725631403503539000,3.9645390625,-0.7233042643677443,1.502514101961255,-1.1684301775194703
1725631403513491000,3.974490966796875,-0.7605395508497953,1.060196451163292,-1.1864715917751192
1725631403523444000,3.98444384765625,-1.1753612188916653,0.9284767814099788,-0.9973493151713162
1725631403533397000,3.99439697265625,-1.4206827909708022,1.0221861617207526,-1.0082274867340921
1725631403543350000,4.00435009765625,-1.9345774852484463,0.48475744712054725,-0.19516367565989493
1725631403553303000,4.014302978515625,-1.67052322871387,0.07124912669956683,0.1068975823815912
1725631403563256000,4.024256103515625,-0.7081604712497442,-0.5530763655871153,0.40151057024374603
1725631403573208000,4.0342080078125,-0.4591921401660889,-0.7815466830432415,0.5616838888041675
1725631403583161000,4.0441611328125,0.047153965362906454,-0.8821312098205089,0.09500131981745362
1725631403593113900,4.05411376953125,0.40108956835269927,-1.07194943279922,-0.05295242250859737
1725631403603067000,4.06406689453125,0.78502992204912,-1.0504688378751277,-0.5149612275306135
1725631403613020000,4.07402001953125,0.7343834383953363,-1.0532125836253166,-0.6104870096135884
1725631403622973000,4.083972900390625,-0.0145873282790184,-0.9182230984210967,-0.6732389416027814
1725631403632925000,4.093925048828125,-0.43343993233740324,-1.2341940046757458,-0.5914207823548465
1725631403642878000,4.1038779296875,-0.5236807597547769,-1.3897878864914177,-0.027235359058529137
1725631403652831000,4.1138310546875,-0.9776122029136866,-1.353906425771117,0.058813350431248544
1725631403662784000,4.123783935546875,-0.7376286308616399,-1.5417361052811145,0.10227116468995809
1725631403672737000,4.133737060546875,-0.25094569557122887,-1.7478028677493334,-0.1121579140625894
1725631403682689800,4.143689697265625,0.26362455988042055,-1.654346000894904,-0.3985501130029559
1725631403692642000,4.15364208984375,-0.17624737826585768,-1.0452654240131378,-0.7451886908523738
1725631403702595000,4.163594970703125,-0.5049065742451697,-0.8118143955349921,-0.8041353853397071
1725631403712548000,4.173548095703125,-0.4811579613238573,-1.0324456899285317,-0.3179093269713223
1725631403722501000,4.183501220703125,-0.27009529026448725,-1.0002911407768726,-0.13423589035794137
1725631403732454100,4.1934541015625,0.4650491225659847,-1.0728864213883875,-0.2960651594318449
1725631403742407200,4.2034072265625,0.7438398335266858,-0.7377800220310687,-0.43447804321348665
1725631403752360200,4.213360107421875,0.02470364862382412,-0.4110165036052465,-0.5112447642907499
1725631403762312000,4.22331201171875,-0.7454016029506921,-0.2300344980329275,-0.33642142747864123
1725631403772265000,4.233264892578125,-0.7539367915838956,-0.31885026108324527,0.09583280220553278
1725631403782218000,4.243218017578125,-0.26073592576682564,-0.1864420245438814,0.7566697236791252
1725631403792171000,4.2531708984375,0.12700608523488044,0.22254852619171142,0.9504314235866069
1725631403802124000,4.2631240234375,0.4125982198387384,0.43693888036906714,0.9122820179343223
1725631403812076000,4.273075927734375,0.6217595873214304,0.6406459279686212,0.7104246898546814
1725631403822029000,4.283029052734375,0.3707714408479631,0.5466740973293781,0.49582288488373155
1725631403831981800,4.29298193359375,0.21376199314594269,0.6662082392483949,0.08273322826623916
1725631403841934800,4.302934814453125,0.4719188622049987,0.1918710638552904,0.7121687570430338
1725631403851887900,4.312887939453125,1.026989762610197,0.14206629172265528,0.77964698690176
1725631403861841000,4.3228408203125,0.14052709945663808,0.044504327636957164,0.11093450974747537
1725631403871794000,4.3327939453125,-0.6472657844997942,-0.24531916092634198,-0.5028044143341481
1725631403881746200,4.34274609375,0.21140929253995416,0.0017594108879566191,-0.4135829930923879
1725631403891699200,4.35269921875,0.7438773159928619,0.7639654336452484,-0.18195830325856804
1725631403901652200,4.36265234375,0.43469680053070187,0.6707926444292068,-0.039945933680236335
1725631403911605000,4.37260498046875,0.44095805288255213,0.6480383763074874,-0.143094465726614
1725631403921558000,4.38255810546875,0.12539338934123515,0.4549766413629055,-0.07781886047869921
1725631403931511000,4.392510986328125,0.6370728917874395,0.3692185123175382,0.3942341494999826
1725631403941463000,4.402463134765625,0.5955282907389104,0.7673650129556655,0.28455358533635733
1725631403951416000,4.412416015625,0.14112491921931505,0.2888432453542948,0.03567322479709983
1725631403961369000,4.422369140625,0.9936579863727092,0.28193828827142714,0.04801978841200471
1725631403971322000,4.432322021484375,1.6819599840074777,0.18717501499354838,0.27677330672368405
1725631403981275100,4.442275146484375,1.3884414403185248,0.16360416979193687,-0.2400001578606665
1725631403991228200,4.452228271484375,0.2954898437619209,-0.04080079694390297,-1.2070400402903556
1725631404001180000,4.462179931640625,0.514029134312272,-0.6234656605869531,-0.8116187268324195
1725631404011133000,4.4721328125,1.0109856994010507,-0.7149456744104623,-0.13249869130179284
1725631404021086000,4.4820859375,0.7363533502288162,-0.9022446080446243,0.41442061296030874
1725631404031039000,4.4920390625,0.669025196365267,-1.1718307797431946,0.09235665052756667
1725631404040992000,4.501991943359375,0.7873059772223233,-1.5269062004178762,0.16564371279552578
1725631404050944000,4.511944091796875,0.4894220779307186,-1.2339917601019144,0.08595379774793982
1725631404060897000,4.52189697265625,-0.20339184417054057,-1.2132155140548944,-0.4534516237527132
1725631404070849800,4.531849853515625,-0.4621240288995206,-1.1701730756640434,-0.3608149872399866
1725631404080802800,4.541802734375,0.3320654242262244,-0.7210071664065122,-0.28311434631347654
1725631404090755800,4.551755859375,-0.13449001124948262,-0.15543664542734623,-0.6840066385284066
1725631404100708900,4.561708984375,-0.4058808942824602,-0.044267011749744414,-1.3924053755134342
1725631404110662000,4.571661865234375,0.04171615822315216,-0.12229425428211688,-1.4191104270875452
1725631404120614100,4.5816142578125,0.390664620450139,-0.1138841533333063,-1.0152622076764701
1725631404130567200,4.591567138671875,0.27852833369746804,-0.08674538651704787,-0.5348826833792031
1725631404140520200,4.601520263671875,-0.33935864997431636,-0.16477672070264815,-0.5323572565548121
1725631404150473200,4.61147314453125,0.09530483280867337,-0.43726212097406386,-0.266251035926491
1725631404160426000,4.621426025390625,0.23598025469481942,0.09487140982747078,-0.07736804797127843
1725631404170379000,4.63137890625,0.045241702000796795,0.5730781201303005,-0.238500713083148
1725631404180331000,4.6413310546875,-0.10431552999913692,0.7870107936680316,-0.33316666346639395
1725631404190284000,4.651283935546875,-0.263477771820873,0.7213911972880364,-0.37218963708281516
1725631404200237000,4.661237060546875,-0.08026464619562029,0.8029501210778951,-0.41234716768711804
1725631404210190000,4.671190185546875,-0.16901494279429316,1.1642343332648277,-0.42931086970865723
1725631404220143000,4.68114306640625,-0.1960126937046647,1.3475234467357395,-0.333180545861274
1725631404230096100,4.69109619140625,-0.07341507256180048,1.3651333377063273,-0.15433993623182177
1725631404240047900,4.7010478515625,-0.031637247279286386,0.9705869073867798,-0.1743862605690956
1725631404250001000,4.7110009765625,0.0854122382171452,0.6423720211088657,-0.1449827636912465
1725631404259954000,4.720953857421875,-0.22020503180548548,0.6049789867818355,-0.10116028083860873
1725631404269907000,4.730906982421875,-0.24706308198422192,0.48432490092217917,-0.05178600907772779
1725631404279860000,4.74085986328125,-0.06261091608330607,0.34601650042831894,0.08413169688731431
1725631404289813000,4.75081298828125,0.3545417521893978,0.31919103734493254,0.06784399443119764
1725631404299765000,4.760764892578125,0.2504337274610996,0.8025421247988939,-0.07769041179344058
1725631404309718000,4.770718017578125,0.1969267398096621,0.6280582490742206,-0.27854937648549677
1725631404319671000,4.780671142578125,0.19717852261364457,0.05864040501713753,-0.41608942295536394
1725631404329624000,4.7906240234375,0.08533245097920299,-0.5216922162860632,-0.5293918308779597
1725631404339576800,4.800576904296875,-0.31425752646550537,-0.9085340635776519,-0.7915136580452322
1725631404349529900,4.81052978515625,-0.9619925359122454,-1.127705806812644,-0.7936160371519625
1725631404359482000,4.820482177734375,-0.5549596951156854,-1.3138491406708954,0.15850523921772836
1725631404369435100,4.83043505859375,-0.018548633125424385,-1.3326894502192734,0.34988062851056456
1725631404379388200,4.84038818359375,0.24807182063534855,-1.3684078293323516,-0.1524992768011987
1725631404389341200,4.850341064453125,-0.15967837465032933,-1.418484404143691,-0.5091056333702058
1725631404399294000,4.8602939453125,-0.2830694842584431,-1.8795020792365074,-0.549453206653893
1725631404409247000,4.8702470703125,-0.22216259561404583,-2.3207260895788666,-0.3341655383106321
1725631404419199000,4.880198974609375,-0.8359364448785781,-1.7704525064527987,-0.5269264636777341
1725631404429152000,4.890152099609375,-1.2316517728470264,-1.0848860712617636,-0.4740384116422385
1725631404439105000,4.90010498046875,-0.2943839283466339,-0.4927338328272104,0.43765630792342125
1725631404449058000,4.91005810546875,0.6112457920916378,-0.07379238144159317,0.9970930753879248
1725631404459011000,4.920010986328125,0.5880981407381594,0.6329939519107342,0.46610995673052963
1725631404468964000,4.929964111328125,-0.8720271644353866,1.145081889027357,-0.6643642918821424
1725631404478915800,4.939915771484375,-1.6185915275551377,0.9449310726046561,-0.8220450629744678
1725631404488868900,4.949868896484375,-1.0933738405566662,0.9146750505506992,-0.09560082008056342
1725631404498822000,4.95982177734375,-0.27462650395333765,1.329892512977123,0.2013224174853414
1725631404508775000,4.96977490234375,-0.10441723680794239,1.8749527453690766,-0.02004696365809068
1725631404518728000,4.97972802734375,0.2755939607460052,1.5787766729086636,-0.11355389846563338
1725631404528681000,4.989680908203125,0.39187516528367994,1.3574790235608816,-0.08245826551606879
1725631404538633500,4.999633544921875,-0.17019699218571185,1.3452432268440722,-0.29010420520082114
1725631404548586500,5.00958642578125,-0.49603053628504273,0.9335890098571776,-0.742019705427438
1725631404558539300,5.019539306640625,-0.5409329963941126,-0.2357674887269735,-0.4111412990286946
1725631404568492300,5.0294921875,-0.2838959251452237,-0.44035950246751304,-0.06790717759421094
1725631404578445300,5.0394453125,-0.20953765344917774,-0.4161889378070831,-0.28361434999117624
1725631404588398300,5.0493984375,-0.2242687375804409,-0.5389496405571699,-0.7225960430331527
1725631404598350300,5.059350341796875,0.30509112725667653,-1.0684119063228368,-1.3951485367417336
1725631404608303400,5.069303466796875,-0.4254618661303073,-0.8988292466431855,-1.7166002124950288
1725631404618256400,5.07925634765625,-0.500588711046055,-0.7302928811460733,-1.784175472987443
1725631404628209400,5.08920947265625,-0.8241863127868622,-0.16282207950353622,-0.8527250825941562
1725631404638162400,5.099162353515625,0.09160977768301963,-0.13894845196306704,-0.4332249013472348
1725631404648115500,5.109115478515625,0.8316822945654392,-0.10281097065508366,-0.03572934803166426
1725631404658067200,5.119067138671875,1.1159732834428548,0.43618601617515085,-0.6024620355248451
1725631404668020200,5.129020263671875,-0.1693932380547747,0.7798825492233038,-0.36305385220795866
1725631404677973200,5.13897314453125,0.2235164944410324,0.5584761788040399,0.0713058435891755
1725631404687926300,5.14892626953125,1.4571324069678782,-0.044694297251105304,0.37569939876943825
1725631404697879300,5.15887939453125,0.36546233812179413,1.1611398743808268,0.8087325038716197
1725631404707832300,5.168832275390625,1.0226999564617871,0.37038521800935265,0.5354472584594041
1725631404717784300,5.178784423828125,0.4385053990334272,-0.03887421279549599,0.2970992882525548
1725631404727737300,5.1887373046875,0.2615185640444979,-0.476697474783659,-0.1195920735181775
1725631404737690400,5.1986904296875,0.2216290367266163,-0.7664666028112173,-0.7123788926623761
1725631404747643100,5.20864306640625,-0.9220020324379206,-0.5525087948322296,-1.3642765747465193
1725631404757596200,5.21859619140625,-1.2731746004551647,-1.78827983956635,-1.340763743342459
1725631404767549200,5.228549072265625,0.6189005446285009,-2.7471885841190815,-0.984992230162397
1725631404777501400,5.23850146484375,1.285005908024311,-2.2576614383786917,-0.9753423582855612
1725631404787454500,5.248454345703125,1.205101838769391,-1.6920915019214153,-1.8982688851572571
1725631404797407500,5.258407470703125,0.562044136951305,-2.8059418018609286,-1.6026504465796052
1725631404807360500,5.268360595703125,1.0699193882763385,-2.4584447074860334,-0.870946675722301
1725631404817313500,5.2783134765625,0.9773322899937629,-1.1737076795309782,-0.3956904492555186
1725631404827266600,5.2882666015625,0.07597732426524162,-0.46629240062534805,-0.08658634176412597
1725631404837219300,5.29821923828125,-0.07810564153082668,-0.038708208578824996,0.9562817570500075
1725631404847171300,5.30817138671875,-0.447342200961709,2.180488182327151,1.7276589282564818
1725631404857124400,5.318124267578125,-0.587424625390768,2.90084886752367,3.0933538453683256
1725631404867077400,5.328077392578125,0.5161585475564002,3.5057360843688246,4.345971687746048
1725631404877030400,5.338030517578125,2.2872072663366794,4.82199111713767,3.9787718217745422
1725631404886983400,5.3479833984375,1.7319968113303184,6.101916360896825,1.8198581962652502
1725631404896936400,5.3579365234375,-1.1579799490451812,4.913932318732142,-0.14829079226069153
1725631404906888200,5.36788818359375,-1.1735182944387197,2.1371768638670443,-0.8225226173583418
1725631404916841200,5.37784130859375,-0.6767220344781876,0.9480267005324363,-0.8326653142534196
1725631404926794200,5.387794189453125,-0.9800444715619087,0.5346288547486067,-1.0882735217429698
1725631404936747300,5.397747314453125,-0.9946791461139917,-0.4675666583448648,-1.0751420182954519
1725631404946700300,5.4077001953125,-0.2569966661732644,-0.9004027795702219,-0.2857416260771453
1725631404956653300,5.4176533203125,0.35866095101125534,-0.4403758690804243,0.07949247451303526
1725631404966605300,5.427605224609375,0.6059990505445748,-0.26972937956154347,0.15119378369320183
1725631404976558300,5.437558349609375,0.5004506177496165,-0.23903905774354933,0.13688008472379296
1725631404986511000,5.447510986328125,0.97342125402987,-0.599203910511732,0.13686517941560594
1725631404996464000,5.457464111328125,0.8081902867536991,-0.2977846767008304,-0.027785485488269476
1725631405006417200,5.467417236328125,0.7588057858597487,-0.46444238884449,-0.05050161355668679
1725631405016370200,5.4773701171875,0.9557487461518496,-0.6604501141130924,-0.1499419570012018
1725631405026323200,5.4873232421875,0.542333949233219,-0.7849246350437402,-0.4308693877296522
1725631405036275500,5.497275390625,0.07508709742724895,-1.004665702599287,-0.6548841505490243
1725631405046228500,5.507228515625,-0.5403648411173373,-1.0503630394130945,-0.3452215141257271
1725631405056181500,5.517181396484375,-0.8356267213422804,-0.5668471167862414,-0.14330200753007083
1725631405066134500,5.527134521484375,-0.5262736988574266,-0.4880500589251518,0.4261873673932627
1725631405076087300,5.53708740234375,-0.03867087224312126,-0.4257680825352669,0.5229842288579791
1725631405086040300,5.547040283203125,0.18602292234897613,-0.34092823737859723,0.42916221848558633
1725631405095992300,5.556992431640625,-0.3889298325467854,-0.01784253068268299,0.032909057313390076
1725631405105945300,5.5669453125,-0.8302706742018461,-0.40692777298688887,-0.49768013012297446
1725631405115898400,5.5768984375,-0.7635457469284535,-0.9044482555687428,-0.6921819808732718
1725631405125851400,5.586851318359375,-0.9700865566492081,-0.8776718923240899,-0.7582477866508066
1725631405135804400,5.596804443359375,-0.9174199653446674,-0.8644184429973364,-0.7695514170840382
1725631405145757400,5.60675732421875,-1.1168817035246639,-0.6262216812968254,-0.6011458383597433
1725631405155710200,5.616710205078125,-1.292236443799734,-0.4861819269657135,-0.00818228354230523
1725631405165662200,5.626662109375,-1.1308920356333254,-0.3877314896076917,0.09193060713522136
1725631405175615200,5.636615234375,-0.6528518410038202,-0.6734621558994054,0.3673009151931852
1725631405185568300,5.646568359375,-0.018024828447028993,-0.9536585689395666,0.5115984000340104
1725631405195521300,5.656521240234375,0.5882827765900641,-0.8804401879936457,0.3457933591969311
1725631405205474300,5.666474365234375,-0.20117431425154209,-0.3489244968295097,-0.23477540894970297
1725631405215427300,5.67642724609375,-0.3649432461511343,-0.3468044359356165,-0.35914639644064006
1725631405225380400,5.68638037109375,-0.5657097102541476,-0.003220131090283394,-0.1511686127193272
1725631405235332400,5.696332275390625,-1.057971176329255,0.24595628978610037,-0.1264859338182956
1725631405245285400,5.706285400390625,-0.9047994801592081,0.3684498660326004,-0.15822905262485146
1725631405255238400,5.71623828125,-1.1681501184690744,1.127464983794093,-0.5153457698687911
1725631405265191400,5.72619140625,-1.4039087663024663,1.0194669658899307,-0.42788916634246704
1725631405275144400,5.73614453125,-1.0103559501301496,0.9339788859575986,-0.32275157937072213
1725631405285097500,5.746097412109375,-0.3389811949640512,0.9893944837093352,-0.10865407066009938
1725631405295050500,5.756050537109375,-0.1111432571273297,1.233960780441761,-0.1703080513447523
1725631405305002500,5.76600244140625,-0.17075513752512633,0.705817196059227,-0.5201093310087919
1725631405314955300,5.775955322265625,-0.4046108012814075,0.2599859841823578,-0.4160695492111146
1725631405324908300,5.785908203125,-0.07605813441649079,-0.5888450135827065,-0.0806292417243123
1725631405334861300,5.795861328125,0.6118897890836,-1.000057332020998,0.12409867335557936
1725631405344814300,5.805814453125,0.026385902622342108,-0.7515875981092452,0.48513680182695385
1725631405354767400,5.815767333984375,-0.6647445964366198,-0.6249053380012511,0.43834290194809433
1725631405364720400,5.825720458984375,-0.3081209234066307,-0.9588684125423431,0.5808402785643935
1725631405374672400,5.83567236328125,0.36584275227412577,-1.278327160912752,1.0527085796259343
1725631405384625400,5.84562548828125,0.6086595749907195,-0.9824211375653743,1.1311227756492792
1725631405394578200,5.855578125,-0.14180866369977593,-0.9805179342925548,0.6062754563331604
1725631405404531200,5.86553125,-0.07639160415455698,-1.1277098984658718,0.4960626849889755
1725631405414484200,5.875484130859375,0.11002221720814705,-1.267888769006729,0.27911139428243037
1725631405424437200,5.885437255859375,0.14105799146294593,-0.8900187481999396,0.4211094430744648
1725631405434389200,5.89538916015625,0.7027582468800246,0.2232289096713066,0.667002604496479
1725631405444342300,5.90534228515625,-0.35678514720201493,0.9156547092378139,0.045115299142152065
1725631405454295300,5.91529541015625,-0.358350642953068,0.5900123037964106,0.07258943539261818
1725631405464248300,5.925248291015625,0.15206278508007526,0.9852987388283013,0.07305895260050893
1725631405474201300,5.935201416015625,0.5131494288682937,1.1752958255052566,0.35877617488875985
1725631405484154000,5.945154052734375,0.1032271502405405,1.4636597629100083,0.2267306341819465
1725631405494107100,5.955107177734375,0.2662362767487764,1.3533990607708692,-0.19040625199973582
1725631405504059400,5.965059326171875,0.5388774521037936,1.0432254426181315,-0.030131080500036475
1725631405514012400,5.975012451171875,0.9533733222573995,1.3611971673011778,0.27265593453273174
1725631405523965400,5.98496533203125,1.3589274688035249,2.0782383526861667,0.4550754255622625
1725631405533918500,5.99491845703125,0.5986421849757433,0.41976796533763405,0.18814882846176623
1725631405543871000,6.00487109375,0.1460129835218191,0.8827315138012171,0.49090544835627076
1725631405553824000,6.014823974609375,0.44817514465451236,0.20239245786964893,0.5625555570721626
1725631405563776800,6.02477685546875,0.5751520037949085,-1.3146049274742602,1.390693895420432
1725631405573728800,6.034728759765625,0.38169747014045713,-1.4566525144964455,1.1270745231717825
1725631405583681800,6.044681884765625,0.061212447462230916,-1.70659232096076,0.3914084245547652
1725631405593634800,6.054634765625,0.33351664594784375,-1.6945418176829814,0.19513737217485905
1725631405603587800,6.064587890625,0.7521545843422413,-1.1980360651016235,0.2772968922063708
1725631405613540900,6.074540771484375,1.3565823669821022,-0.11057225230634211,0.19093436752706766
1725631405623494000,6.084493896484375,0.38802842672765253,0.9161813634604216,-0.5733692120313644
1725631405633447000,6.094447021484375,-0.02748889542818069,0.8495160574197769,-0.694651366661489
1725631405643398700,6.104398681640625,1.2402712787628174,1.6556237657457589,-0.6532166557282209
1725631405653351700,6.1143515625,1.5274711408242583,2.336910916182399,-0.6607610797584057
1725631405663304700,6.1243046875,0.3500362574636936,1.8210259248703717,-1.1994979543477295
1725631405673257700,6.1342578125,0.3468655184730887,1.2736866416305304,-0.6656999974653124
1725631405683210800,6.144210693359375,1.0959417182832956,1.0015747508466244,0.9005643998727202
1725631405693163800,6.154163818359375,0.8602104699134826,0.39028175861239434,1.3426646085277198
1725631405703116800,6.16411669921875,0.34551410386413334,-1.366053375160694,1.0914993519216776
1725631405713068800,6.17406884765625,0.9161611974552273,-1.0314099171400068,1.20925128659904
1725631405723021800,6.184021728515625,1.0685200428724289,-0.48615153182744975,0.7291232528448104
1725631405732974800,6.193974853515625,0.8410738077670336,-0.8658902691155671,0.5606964852020144
1725631405742928000,6.203927978515625,0.30592092914432284,-1.4828502010703086,0.5937924068570136
1725631405752881000,6.213880859375,0.39245647230297326,-2.46160287925601,0.25524346583038565
1725631405762834000,6.223833984375,0.18670009095817802,-2.146707493278384,-0.11415566375106573
1725631405772787000,6.233786865234375,-0.4798363573312759,-1.4542629890114067,-0.3639458326116204
1725631405782739000,6.243739013671875,0.022924656252563,-0.1810959873408079,-0.020311843405663967
1725631405792692000,6.25369189453125,1.3264070089489222,1.7795459134906528,0.9817173732101917
1725631405802644700,6.263644775390625,0.1839671588629484,3.7799516694337125,0.1362748488396406
1725631405812597800,6.27359765625,-0.8485556879550218,3.994818408951163,-0.640136371011287
1725631405822550800,6.28355078125,-0.5184443204060196,3.8822646274387833,-0.5369841857030987
1725631405832503800,6.29350390625,0.7908435036987066,3.2057723100632427,-0.32761925847232337
1725631405842456800,6.303456787109375,0.07839081514775753,2.4226456643521783,-0.039841012001037596
1725631405852408800,6.313408935546875,0.1524545608766377,1.0160697246670722,-0.29097996512204405
1725631405862361900,6.32336181640625,0.9459050322033464,0.13112696455717085,0.45848611078858376
1725631405872315000,6.33331494140625,1.3365192376405,0.04862345339357853,0.4711535769209265
1725631405882268000,6.343267822265625,0.9653964991368352,-0.14988544104099272,0.02985708586424589
1725631405892220700,6.353220703125,0.18511691341996192,-0.65614627943933,-0.4841590428359806
1725631405902173700,6.363173583984375,1.161700723133981,-1.2028437576442956,-0.06987403895407915
1725631405912126000,6.3731259765625,1.2713023768424987,-0.9357622622430324,-0.1253194473221898
1725631405922078700,6.38307861328125,0.8817623765081166,-1.0619126074314116,-0.5611052121333777
1725631405932031700,6.39303173828125,0.6778421245492995,-1.176287174630165,-0.8996414398089051
1725631405941984800,6.40298486328125,0.9455828145116567,-1.0200029724627733,-0.10650324930176139
1725631405951937800,6.412937744140625,1.0947471016712487,-0.8829220679372548,0.6824236071206629
1725631405961890800,6.422890869140625,0.7915250562220811,-0.9586258359581231,0.16057079344540834
1725631405971843800,6.43284375,-0.25795857000797984,-1.551248614513874,-0.6876771437346935
1725631405981795800,6.4427958984375,-0.7862649437367916,-1.0096668718874453,0.20761706065014005
1725631405991748900,6.452748779296875,-0.7374544433385133,1.468846810159087,0.11261281822323799
1725631406001702000,6.462701904296875,-0.2042892314016819,1.9678660068660974,-1.9347756381690502
1725631406011655000,6.472655029296875,0.20445523561835288,1.8993717318326233,-2.5237854869246483
1725631406021608000,6.48260791015625,0.7219125908136368,2.691525733608007,-1.5663115974806248
1725631406031561000,6.49256103515625,0.3087954616673291,3.4023294859081505,-1.44009213257879
1725631406041514000,6.502513916015625,-1.2031469783745705,2.6458184599220753,-2.0115587258592247
1725631406051465700,6.5124658203125,-0.9602630817711353,1.0598463225513697,-1.504643807466328
1725631406061418800,6.522418701171875,-0.3422166697539389,0.34268355661332606,0.20904219808243213
1725631406071371800,6.532371826171875,0.32455241824761033,0.03817278652787209,0.9264644917394965
1725631406081324800,6.54232470703125,0.2742046252794564,-0.3939589858204126,-0.0998078433163464
1725631406091277800,6.55227783203125,0.6370629549153148,-0.9437865787446499,-0.23217355588823554
1725631406101230800,6.56223095703125,1.1335239915721118,-1.0861042148798703,-0.10133746403641998
1725631406111184000,6.572183837890625,0.2064955092743039,-1.076962292525172,-0.20421682375259695
1725631406121135900,6.582135986328125,-0.5250181458383798,-0.7478530877560376,-0.9174521871138364
1725631406131088600,6.592088623046875,-0.33175467777661977,-0.525687423402071,-0.5324417930331081
1725631406141041700,6.602041748046875,1.6500971112787723,-0.137352122682333,0.8096464769113808
1725631406150994700,6.61199462890625,1.062096804891899,0.9265572115242481,1.035620082180947
1725631406160947700,6.62194775390625,0.021863895153254268,1.1314566837787627,0.699586192715168
1725631406170900700,6.631900634765625,0.4496504779040813,0.45823827350735663,-0.5916380418347195
1725631406180853000,6.64185302734375,-0.7069084984272718,0.5792249523222446,-0.5358109041400253
1725631406190806000,6.651805908203125,-0.5767097546309232,-0.9068623309731483,0.13102821689043193
1725631406200759000,6.661759033203125,0.961459013557434,0.7612550056427717,1.6762182254850864
1725631406210712000,6.671712158203125,0.1092408575721085,0.5108733006298541,1.4399702597647905
1725631406220664800,6.681664794921875,-0.7938573716271669,0.5588812524735928,-0.358232131139934
1725631406230617900,6.691617919921875,-0.7053589308977126,-0.09725099844038486,-0.5469479823673143
1725631406240571000,6.70157080078125,-0.7332477123636751,0.29625147578418254,-0.05519051115843467
1725631406250523000,6.71152294921875,-0.3804787420004606,0.5109504575192928,-0.5985160743780433
1725631406260476000,6.721475830078125,-0.4174485824793577,-0.17957213877439498,-0.571047381487675
1725631406270429000,6.731428955078125,0.5923422080487013,0.24706805042028426,-0.34059831130448726
1725631406280382000,6.7413818359375,1.9059212996065615,0.9490484447956085,-0.597379909954965
1725631406290335000,6.7513349609375,2.1624270404577253,1.6020499964684247,-1.0003346876576542
1725631406300287700,6.761287841796875,1.5381044707804918,1.6939888599753379,-1.8703750621899962
1725631406310240800,6.77124072265625,0.6983294706523419,0.6413724886775016,-1.994911250180006
1725631406320192800,6.78119287109375,0.2682599280634895,-0.5130938992887735,-1.0154622602932155
1725631406330145800,6.791145751953125,-0.04003858039975166,0.06784370217025279,-0.643405601940304
1725631406340098800,6.801098876953125,-0.37915246183276174,-0.015791443371772764,-0.25261306252786886
1725631406350051800,6.8110517578125,-0.2717430574715137,0.668097413995862,0.7020532404158264
1725631406360004900,6.8210048828125,1.0836930620849132,-1.313756786212325,0.42264352077394723
1725631406369958000,6.8309580078125,1.7779168509840964,-1.669006978932023,-1.216865853255987
1725631406379909600,6.84090966796875,1.3111650161534547,0.6995072822600603,0.3910485782664269
1725631406389862700,6.850862548828125,1.7470920891314743,-0.399467520108819,0.9989406760159879
1725631406399815700,6.860815673828125,1.031701009041071,-0.2580243287205696,0.5907437964087352
1725631406409768700,6.870768798828125,0.5686392243674024,-0.6320832668066024,-0.3686809713747352
1725631406419721700,6.8807216796875,0.6786877815932035,1.8017869713932275,1.1270634903211145
1725631406429674800,6.8906748046875,1.3950497525423764,-0.77173957477808,-0.2137492432622239
1725631406439627800,6.900627685546875,1.1471849987864493,1.6066338171273469,0.8721041751943528
1725631406449580000,6.910580078125,1.9439836114972828,-0.8720464536577462,0.24667052073637022
1725631406459532800,6.92053271484375,1.2170260122537613,-0.4619207614123821,0.0993138401211705
1725631406469485800,6.93048583984375,1.054075337934494,-1.693020891726017,0.6924442120060325
1725631406479438800,6.94043896484375,1.1371733078598976,-1.955404584699869,1.2111999364487827
1725631406489391900,6.950391845703125,0.7857897274404764,-1.0093570752859116,0.7390683813411743
1725631406499345000,6.960344970703125,-0.44920974839925765,-0.6706681412667036,0.3096187607489526
1725631406509298000,6.9702978515625,-1.1166577585756778,-1.4522159933537244,0.02579569991054013
1725631406519250000,6.98025,-1.046197736427188,-1.7079413974821567,-0.36887437505498527
1725631406529203000,6.990202880859375,-1.4205740698993206,-1.6556839715003966,-1.0108886687673628
1725631406539155500,7.000155517578125,-2.3113439287275073,-3.1145418870866295,-1.8471791877806185
1725631406549108500,7.0101083984375,-2.677875978440046,-1.1085013401269912,-1.998043556856364
1725631406559061500,7.0200615234375,-2.044667506995797,-0.7203793898969888,-0.5612050923112779
1725631406569014500,7.0300146484375,-1.951137574905157,-0.6370020185083151,0.560879330955632
1725631406578967600,7.039967529296875,-2.2573130633324383,-1.1379700111955404,0.754281732564047
1725631406588919600,7.04991943359375,-0.8942547783344984,-2.563459325665235,1.0494681363999843
1725631406598872600,7.05987255859375,0.43473811892177905,-2.871844306835532,1.358251030846685
1725631406608825600,7.06982568359375,1.1570652453530579,-2.001108351254463,0.4167006501888856
1725631406618778600,7.079778564453125,0.4793547112941742,-1.073083405265212,-0.380706230613403
1725631406628731400,7.0897314453125,0.4118050236344337,-1.2414613653302191,-0.2000044667545706
1725631406638684400,7.099684326171875,1.0702239241808653,-0.8562789756834507,-0.15598412324227393
1725631406648636700,7.10963671875,0.7563596348166466,0.2639975579112768,-0.48791605728194115
1725631406658589700,7.119589599609375,-0.47466154850926245,0.9510118538230657,-0.24599808310121296
1725631406668542700,7.129542724609375,-0.9445224918037652,0.9823048177093266,-0.12846585558913648
1725631406678495700,7.139495849609375,-0.9332318669825792,1.6188912411540746,0.4190565291326493
1725631406688448800,7.14944873046875,-0.965515595471859,2.0256378123551606,1.1706066447757184
1725631406698401800,7.15940185546875,-0.8020809370279312,1.7503239106595516,1.7056179229706525
1725631406708354600,7.1693544921875,-0.4369061836758628,1.544437765455246,1.5053271135553716
1725631406718306600,7.179306640625,-0.31060265721976754,1.4972037205934523,0.2853338489938527
1725631406728259600,7.189259521484375,-0.7219938393563031,2.4524767389923334,-1.5831244928546249
1725631406738212600,7.199212646484375,-1.5841145268052816,3.3510119711250064,-2.901951275807619
1725631406748165600,7.20916552734375,-2.428655133900046,4.242824032482504,-3.271688259041309
1725631406758118700,7.21911865234375,-1.8358301107704638,4.3035038343727585,-2.9984026483029127
1725631406768071700,7.22907177734375,-1.7885563184201716,4.069643640571832,-2.2653508238375184
1725631406778023400,7.2390234375,-1.849765112620592,4.052824607717991,-2.2061519081547853
1725631406787976400,7.2489765625,-2.0135814638584852,2.491297175773978,-0.8782850557863712
1725631406797929500,7.258929443359375,-1.303517716270685,1.6026421171426772,-0.43354251592904325
1725631406807882500,7.268882568359375,-0.7155798806607723,0.5357283404231071,0.2807180988267064
1725631406817835500,7.27883544921875,-0.08136833312120288,0.3745978672683239,0.20634338745251296
1725631406827788500,7.28878857421875,-0.8796808940589428,-0.11556523828804492,0.559652090715617
1725631406837741600,7.298741455078125,-0.3045779901027679,-1.2459697826653717,0.6001124036587775
1725631406847693600,7.308693603515625,0.2602765280941501,-2.0242939965307714,0.6959023896358907
1725631406857646600,7.318646484375,0.32285076542887836,-2.449139119002223,0.8029565508186817
1725631406867599400,7.328599365234375,0.10528291372656821,-2.309136774072051,0.7221057752981781
1725631406877552400,7.338552490234375,0.05722239144537598,-2.421566636943817,1.2829558436267077
1725631406887505400,7.34850537109375,0.17258012446258217,-2.326503503936529,1.7869361698724329
1725631406897458400,7.35845849609375,0.3996913919925689,-2.6298463992863894,2.3746070251092313
1725631406907410700,7.36841064453125,0.8024755623687059,-3.238528916761279,2.655743933869898
1725631406917363700,7.37836376953125,1.605230964592099,-3.617183365944028,2.2204379153996703
1725631406927316700,7.388316650390625,1.7445757223963736,-3.210095433959365,1.1647627410531043
1725631406937269800,7.398269775390625,1.239950960767269,-2.715975115209818,0.5937861232466995
1725631406947222500,7.408222412109375,0.3811357446044683,-1.8198060276865957,0.13985197667405008
1725631406957175600,7.418175537109375,-0.8821538600437343,-1.0287602794140576,0.2718142230115831
1725631406967128600,7.428128662109375,-1.1650742912203074,-0.5186252299308777,0.7010989353656768
1725631406977080600,7.43808056640625,-0.6125484721880405,-0.5034060334891081,1.3007630107350647
1725631406987033600,7.44803369140625,0.14369593875110148,-0.7510159357011318,1.1734088427148759
1725631406996986600,7.457986572265625,0.5984013619571924,-1.0103361494511365,0.7336196874812245
1725631407006939600,7.467939697265625,1.1873510049581526,-0.7641951507478952,0.537623360389471
1725631407016892700,7.477892578125,0.4752895076818764,-0.13915361914634702,0.07924889328181743
1725631407026845700,7.487845703125,-1.4196061016499995,0.8998165041148662,-0.4983838214129209
1725631407036797400,7.49779736328125,-2.2029170178867874,1.0014449869871138,-0.7873901483744382
1725631407046750500,7.50775048828125,-1.741408198276162,1.8037807755589483,-0.4388832924351096
1725631407056703500,7.517703369140625,-1.7943115209460256,3.049353083339333,0.013791209465265273
1725631407066656500,7.527656494140625,-1.0267542002886534,3.4519700073897837,0.23480361213088033
1725631407076609500,7.537609619140625,0.33994697125628587,3.5929514264851807,0.24289105699658392
1725631407086562600,7.5475625,1.1977404431559144,3.4791122813373803,0.5672749868094921
1725631407096515600,7.557515625,1.1453877401061356,3.224268920740485,0.5197378673478961
1725631407106467600,7.567467529296875,0.6622434272706508,1.9559727399766444,0.6841185744702816
1725631407116420600,7.577420654296875,1.0624842698395252,0.8362941722750663,2.0515964294761417
1725631407126373600,7.58737353515625,1.5107337949045,0.4465373143196106,2.9274618569001554
1725631407136326700,7.59732666015625,1.0035744002312421,0.14777590154111384,2.0936413812622425
1725631407146279700,7.60727978515625,-0.05311784220337867,0.3261234669566154,0.388663509760797
1725631407156232700,7.617232666015625,-0.022850129711627958,-0.049338908186554904,-0.20224428157061336
1725631407166185700,7.627185791015625,0.6770917445734143,0.05543196436464786,0.16479951705634593
1725631407176137700,7.6371376953125,0.8556623050898313,-0.47303018444776535,0.48582595313489435
1725631407186090500,7.647090576171875,0.46619376255646344,-1.0343553229421376,0.3772065884619951
1725631407196043500,7.65704345703125,1.3362830907970666,-1.892787092745304,0.9428729710310697
1725631407205996500,7.66699658203125,2.1490303832679984,-1.86785957223773,1.818983020865917
1725631407215949600,7.676949462890625,2.161362626096606,-1.6899410458892583,1.5696628076046704
1725631407225902600,7.686902587890625,1.4527463008381425,-1.9020920967072248,1.0557195980101823
1725631407235854600,7.6968544921875,1.0114935027927159,-1.2368676077991723,0.04855009589642286
1725631407245807600,7.7068076171875,-0.3941179757744074,-0.14229834691286086,-0.7190025485858321
1725631407255760600,7.7167607421875,-0.7440560335606337,0.8597294083982706,-0.593010316568613
1725631407265713700,7.726713623046875,0.2773185195162892,1.0202525633096695,-0.06684650782644748
1725631407275666400,7.73666650390625,0.8255962526500225,0.585643587192893,0.23397388330847024
1725631407285619500,7.746619384765625,0.8500973644390701,0.2909972085177898,0.10522504605948925
1725631407295571500,7.756571533203125,1.4793369322523473,0.036734278157353396,0.5644923703536391
1725631407305524500,7.7665244140625,1.55026778678298,-0.09581775076687335,0.9721946348443626
1725631407315477500,7.7764775390625,1.2088286772727965,-0.263327695825696,1.0249398443430662
1725631407325430500,7.786430419921875,0.9545406124711037,-0.4031149367004633,1.5912918710887431
1725631407335383600,7.796383544921875,0.8483180798068642,0.09343991571962833,1.2688190355941653
1725631407345336600,7.806336669921875,0.0008878887504339218,1.1278671348541975,0.23008155204504727
1725631407355289600,7.81628955078125,0.32334406537115573,1.6346353382527827,-0.37557051169276234
1725631407365241600,7.82624169921875,0.8157558266371489,1.9648206478208303,-0.18734569538533685
1725631407375194600,7.836194580078125,0.5889902672722935,1.6185276685386896,-0.07986059543937445
1725631407385147600,7.846147705078125,0.007975801184773444,0.4781219546288252,-0.39120617998093365
1725631407395100700,7.8561005859375,0.0021219605900347233,-0.38207039510607715,0.14045593391656874
1725631407405053700,7.8660537109375,0.5166372709840535,-0.3989151469230652,0.5905297517992556
1725631407415006700,7.8760068359375,0.7527960971161722,-0.24211130479574203,0.5279908780388534
1725631407424958700,7.885958740234375,0.23075053734779358,-0.009604863691329955,0.10953823308348655
1725631407434911500,7.895911376953125,0.42604339234530925,-0.4531704687237739,0.17887173542007803
1725631407444864500,7.905864501953125,0.2237615552432835,-0.328351079878211,0.12349310867786406
1725631407454817500,7.915817626953125,-0.2992413052499294,0.1954085903316736,-0.2484839085675776
1725631407464770600,7.9257705078125,-0.1530769305586815,0.2749602659523487,-0.44396790222302074
1725631407474723600,7.9357236328125,0.4511678967297077,0.4640063355147838,0.06313654739260673
1725631407484676600,7.945676513671875,0.5133376449167728,1.0075076480269431,0.38188875492885704
1725631407494628600,7.955628662109375,0.024724106889963147,0.8642267198175191,0.49873848006948823
1725631407504581600,7.96558154296875,-0.29949118835777044,0.33595570966303345,0.29267376342788337
1725631407514534400,7.975534423828125,-0.05765007880553603,-0.7795552169650792,0.5401973025307059
1725631407524487400,7.9854873046875,0.16281389619708062,-1.1907885781913996,0.4155399723790586
1725631407534440400,7.9954404296875,0.6711965490549803,-1.462826819217205,0.6209232826277613
1725631407544393000,8.00539306640625,0.4788765723884105,-0.9075035514861345,0.10356661132797598
1725631407554346000,8.015345947265626,0.22707915535867212,-0.4563619582414627,-0.16846826869696377
1725631407564298200,8.02529833984375,0.5355167434990405,0.5501233610004186,0.197374483577162
1725631407574251300,8.035251220703126,1.0231243193536996,1.1064677884727716,0.14961699936315417
1725631407584204300,8.045204345703125,0.7568862890392541,1.3480354879111052,-0.6384432302925735
1725631407594157300,8.0551572265625,-0.429645216229558,0.8861585656404495,-1.1180893257487565
1725631407604110300,8.0651103515625,-0.4189702390886843,0.2462164020270109,-1.6129842090673743
1725631407614063000,8.07506298828125,-0.3885065656334162,-0.16470599355399607,-1.0286832686550915
1725631407624015000,8.08501513671875,-0.14843421931937337,0.022979309049248695,-0.7249133800648152
1725631407633968000,8.094968017578125,0.3970733184486627,0.38892449878454205,0.04705277001075446
1725631407643921200,8.104921142578124,0.7675865467518568,0.8901245466619729,0.3240682879924774
1725631407653874200,8.114874267578125,0.47761283606290816,1.3068307863414286,-0.12169292738810181
1725631407663827200,8.1248271484375,-0.07232011693194508,0.9765659817963838,-0.47987588562406597
1725631407673780200,8.1347802734375,0.20308102465569972,0.40111119566261766,-0.8419810588050634
1725631407683732000,8.14473193359375,-0.3271962107546627,1.1643073985010386,-1.4485639005869626
1725631407693685000,8.15468505859375,-0.8539097623340784,1.9983751268982886,-1.986587366209924
1725631407703638000,8.164637939453126,-0.4642874905437231,2.1828175020575524,-1.9833252956740557
1725631407713591000,8.174591064453125,0.05705116306431591,1.9555343485593795,-1.6221538962118327
1725631407723544000,8.1845439453125,0.479939671575278,1.7730261563330887,-1.3374826758451759
1725631407733497000,8.1944970703125,-0.0812165400929749,1.1421581105351448,-2.0821102256834507
1725631407743450000,8.2044501953125,-0.9115601334005594,0.018972996017336843,-2.669573137257993
1725631407753402000,8.214402099609375,-0.7921428227942436,-0.9103279612571,-2.2650942187279464
1725631407763355100,8.224355224609376,0.08713058644235133,-0.904330182147026,-0.9765485192049295
1725631407773308200,8.23430810546875,1.0178390724271535,-0.6213871007472276,-0.6409926955796778
1725631407783261200,8.24426123046875,0.7989490687429904,-0.5728782136440277,-0.4079468138363212
1725631407793214200,8.254214111328125,0.8856869295407086,-0.9955237802445888,-0.5707071897478774
1725631407803167200,8.264167236328126,0.9276905994683503,-1.6365888104081152,-1.556753933931887
1725631407813120000,8.2741201171875,-0.0785100576132536,-0.9561579845398664,-1.1467020375750958
1725631407823072300,8.284072265625,0.3950683353018015,-1.6621692418664693,-0.9519731731358915
1725631407833025300,8.294025390625,0.8013391056846827,-0.8410743922889232,-0.3710537283880636
1725631407842978300,8.303978271484375,0.8290636364996433,-0.8986632424265145,-0.9033010582949965
1725631407852931000,8.31393115234375,0.6775977213341743,-0.45154140621721744,-0.9375738417096435
1725631407862884000,8.323884033203125,0.34415121801309284,-0.5051414789795875,-0.3465743900394067
1725631407872837000,8.333837158203124,0.633223669013381,-1.0857774671435356,-0.1174006735542789
1725631407882789000,8.3437890625,1.0404185685038565,-1.717778900885582,-0.09525971502531319
1725631407892742100,8.3537421875,1.4043974266022443,-0.6882365311831236,0.2889007842278108
1725631407902695200,8.363695068359375,1.4296242223173379,0.009503741404414177,0.6097429132480174
1725631407912648200,8.373648193359376,1.0573259372282773,0.301204129755497,1.0042780184559523
1725631407922601200,8.383601318359375,0.8367799830306321,0.10709376254081726,1.088405696755275
1725631407932554200,8.39355419921875,0.16660978134870527,0.35548809312880036,0.8181924061343073
1725631407942506000,8.403506103515625,0.01687690052092075,-0.1955529672384262,0.9228285463899374
1725631407952459000,8.413458984375,0.6184148069381713,0.07076748066246509,0.6342938555281609
1725631407962412000,8.423412109375,0.5676870016764849,0.41433191176354883,0.6749292327772826
1725631407972365000,8.433364990234375,1.2281091318041086,0.6752806034982204,0.7117067655544728
1725631407982318000,8.443318115234375,0.7815292204517871,1.8584809185177087,-0.0908366013534367
1725631407992271000,8.45327099609375,-0.6855904005885124,2.0094518167078492,-0.5404452128771692
1725631408002224000,8.46322412109375,-0.5669791456680745,1.2263052972525357,-0.2535425801966339
1725631408012176100,8.473176025390625,0.24617672760374842,1.10272217220366,0.34704734131339937
1725631408022129200,8.483129150390624,0.285843405951187,1.9684440990149974,0.4653005765764042
1725631408032082200,8.493082275390625,-0.6330477279245853,2.017664349257946,-0.047690245930384845
1725631408042035200,8.50303515625,-0.6117225427579134,0.8676140241682528,0.009383348161447792
1725631408051988200,8.51298828125,0.5297469279259442,0.5100953019946813,0.6372139807585626
1725631408061941200,8.522941162109374,1.4477993459552525,0.8467997841984033,0.9207491097673773
1725631408071893200,8.532893310546875,1.0676964515298604,0.9681120417058467,0.6094126583803445
1725631408081846300,8.54284619140625,0.4326082307536155,-0.1686708055317402,0.012246939165331422
1725631408091799000,8.552799072265625,1.1900222699940204,-1.4811071567952632,0.2743656245274469
1725631408101752000,8.562751953125,1.5475620349556207,-1.6277356418669222,0.43876843388378617
1725631408111705000,8.572705078125,1.1300210980176926,-1.7737971407055855,-0.08962934445552527
1725631408121658000,8.582658203125,0.2074076556831598,-1.6202864949047564,-0.30426720712054517
1725631408131611100,8.592611083984375,1.0775041443169115,-2.6098551661372182,0.1313206422320567
1725631408141563100,8.602563232421875,0.4604120373498648,-1.4247773668080568,0.2858223996957764
1725631408151516200,8.61251611328125,0.4145265575528145,-1.5797136614978313,0.6114688237251713
1725631408161469200,8.62246923828125,-0.12545359509587287,-0.5347358222544193,0.7979292241759598
1725631408171422200,8.632422119140625,0.039057752668857575,-1.3277479021638632,0.9130570939600468
1725631408181375000,8.642375,-0.23084924848191438,-0.5964186637073755,0.9862973944768308
1725631408191328000,8.652327880859374,-0.4166675881695002,-1.2130401574879883,1.1395973201364278
1725631408201280000,8.662280029296875,-0.6599496172450482,-0.48984161851704117,0.43386714477352795
1725631408211233000,8.67223291015625,-0.8370622340381145,-0.28526071069240566,0.13164715250637382
1725631408221186000,8.68218603515625,-0.5978951660007238,-0.8372825987905264,0.5200079164609313
1725631408231139000,8.69213916015625,-0.5142074134886264,-1.0462883373200893,0.48801582786198705
1725631408241092000,8.702092041015625,-0.552687074008584,-0.758613551223278,0.06251695418953895
1725631408251045000,8.712045166015624,-1.0057437070943414,0.0785661717146635,-0.05575067492499947
1725631408260997000,8.7219970703125,-0.4321737848591059,0.39815059229135513,-0.26578604876324535
1725631408270950100,8.7319501953125,0.08631225579679012,0.7297995446711778,-0.08123842313122004
1725631408280903200,8.741903076171875,-0.008701704306527972,0.9257155000030994,-0.05664086523037404
1725631408290856200,8.751856201171876,-0.3802503400720656,1.3926824388891457,-0.35225221648011357
1725631408300809200,8.761809326171875,-0.9235884248465299,1.785371843165159,-1.1828520861037075
1725631408310762200,8.77176220703125,-0.9517734858453273,1.8452941046863793,-1.4874290532931684
1725631408320715300,8.78171533203125,-0.9791109901040792,1.9297353059142828,-1.4465876320779323
1725631408330667000,8.7916669921875,-1.0651310580212623,1.9572066656857727,-1.321693278300017
1725631408340620000,8.8016201171875,-1.0967653826911001,1.5818506735265254,-1.4841484241873024
1725631408350573000,8.811572998046875,-0.9654144731849431,0.5405705197572708,-1.468490544067323
1725631408360526000,8.821526123046874,-1.1545797852128743,0.1340700322717428,-1.8130793497800826
1725631408370479000,8.83147900390625,-1.4766156905949115,-0.09119827427268028,-1.8938658278927205
1725631408380432100,8.84143212890625,-1.526910292071104,-0.1836491789549589,-1.8586168198570607
1725631408390384000,8.851384033203125,-1.184407352721691,-0.7094418162971735,-1.2223540754087268
1725631408400337200,8.861337158203124,-0.83331493726857,-0.8345803540945053,-0.6544585455480962
1725631408410290200,8.871290283203125,-0.5077567029792815,-0.45489013212323187,-0.45800906786136325
1725631408420243000,8.881242919921876,-0.8450521368134767,-0.18880290845632552,0.16910094057731329
1725631408430196000,8.891196044921875,-1.2271727277368307,-0.17443594492971895,0.4973217451393604
1725631408440149000,8.90114892578125,-0.9324643897414207,-0.865827140751481,1.0804273382872343
1725631408450102000,8.91110205078125,-0.45106618992090225,-0.792879393440485,1.1139848861046135
1725631408460054300,8.92105419921875,-0.19775193858742712,-0.5682856251567602,0.8400991175159811
1725631408470007300,8.93100732421875,0.23981691024824975,-0.4926087451428175,0.6598579203736037
1725631408479960300,8.940960205078126,0.28191907211430367,-0.6396697764128446,0.66593066441603
1725631408489913300,8.950913330078125,0.34736046238318086,-0.8421177638620138,0.7714556432701647
1725631408499866400,8.960866455078126,0.13924948073625565,-0.9650824647516012,0.9623883302967995
1725631408509819100,8.970819091796875,0.2536982822149992,-1.309068336135149,1.2439322854883967
1725631408519771100,8.980771240234375,0.09469956039190291,-1.5169535462021826,1.4336806581012904
1725631408529724200,8.99072412109375,0.11202712728977203,-2.0264082122057676,1.5164558258131144
1725631408539678200,9.00067822265625,0.02211713926196098,-2.3366747693389653,1.5110048669308422
1725631408549631200,9.01063134765625,-0.9532939734108745,-1.9584452675700186,0.94565602587834
1725631408559584300,9.020584228515625,-1.22038525955379,-1.9424264451831579,0.2744027782000601
1725631408569537300,9.030537353515625,-0.5948832708336412,-1.8196219032913445,0.13177432254999874
1725631408579489500,9.040489501953125,0.18935045933648942,-1.2587620442211627,0.034537498765438795
1725631408589442600,9.050442626953124,-0.039627661511301995,-0.40409576443135736,-0.5006863992668688
1725631408599395300,9.060395263671875,0.021694091544300315,0.18939853626191616,-1.1779342111848294
1725631408609348400,9.070348388671874,0.13280878016427158,0.724297440123558,-1.5098951521232724
1725631408619301400,9.08030126953125,-0.21574512978717683,1.264666299828887,-1.469492122325301
1725631408629254400,9.09025439453125,-0.5656120220333337,1.659659304872155,-2.005830411340296
1725631408639207400,9.10020751953125,0.605765899375826,1.1356751782566308,-1.4630252643987536
1725631408649159400,9.110159423828126,1.2661844493068755,1.292247549715638,-0.9277676102273166
1725631408659112400,9.120112548828125,0.48154403803199525,1.0583844333052634,-1.212627923425287
1725631408669065500,9.1300654296875,0.06157762751281261,0.19407061972618103,-1.3559066596776246
1725631408679018500,9.1400185546875,0.6420898431666195,-0.26940087825953957,-1.0001860729672014
1725631408688971300,9.14997119140625,0.2775081968694925,0.24230302797555922,-0.84035309227705
1725631408698924300,9.15992431640625,0.41045317063406106,0.550329697227478,-0.7774313566789031
1725631408708876300,9.169876220703125,0.9567069967247546,0.94304014429152,-0.7412113116540014
1725631408718829300,9.179829345703125,1.2715122202008962,1.2443857283443212,-0.4581761680565774
1725631408728782300,9.1897822265625,1.3589023343622684,1.8190274445295334,-0.24401523872092365
1725631408738735400,9.1997353515625,0.8690129311807453,1.9896230806440114,-0.5974309094898402
1725631408748688400,9.2096884765625,1.4924641248509287,2.0967560061514376,-0.9170525933369994
1725631408758641400,9.219641357421875,0.8314303656309843,0.8684159882009029,-0.3579410392388701
1725631408768593400,9.229593505859375,1.7063915376916527,1.6801964814662933,-0.2172327379964292
1725631408778546400,9.23954638671875,0.7947820121914148,0.05335165095925331,-0.13698197419568894
1725631408788499500,9.24949951171875,0.7041654833294451,-0.7165665536105632,0.7056036994390189
1725631408798452500,9.259452392578124,1.121370174050331,-0.825953395524621,0.783460992231965
1725631408808405500,9.269405517578125,1.2071481768399477,-1.6191607057452202,1.2444753063239156
1725631408818358500,9.279358642578124,1.6082386219754814,-1.8315426427096126,2.256546316743642
1725631408828311600,9.2893115234375,1.9879814509168265,-1.511503464102745,2.349850623384863
1725631408838263300,9.29926318359375,0.9527560671418904,-1.4945464840829372,1.0001584543079136
1725631408848216300,9.30921630859375,0.8389879414036869,-1.31305769803226,0.3118715081118047
1725631408858169300,9.31916943359375,0.906642843003571,-0.7699801638901234,-0.0668695964410901
1725631408868122400,9.329122314453125,-0.12265519654899835,-0.6761679077267646,0.151453421010077
1725631408878075400,9.339075439453126,-0.614305033531785,-0.7183814940780401,-0.18895327671244738
1725631408888028400,9.3490283203125,-0.33593057522177694,-0.36615620213747024,0.1708257916085422
1725631408897980400,9.35898046875,0.29443448949009177,0.19393325708210468,0.724788876902312
1725631408907933400,9.368933349609375,0.6530483134239912,0.45885962027609345,0.46202948248386383
1725631408917886500,9.378886474609375,0.5534639035999774,-0.008799392527341842,0.19228607439696788
1725631408927839200,9.388839111328124,0.4635252739995718,-0.5471142423123121,0.3566100828960538
1725631408937792300,9.398792236328125,0.3545817919388413,-1.0883622229397296,0.569289249241352
1725631408947745300,9.408745361328124,0.49996027694940565,-0.5193734179496765,-0.026750790411978958
1725631408957698300,9.4186982421875,0.6528618509411811,-0.12048457451164722,0.17366744477525353
1725631408967650300,9.428650390625,0.999930490770936,0.648287382632494,0.2998252426177263
1725631408977603300,9.438603271484375,0.533193853509426,1.277308923780918,-0.4884884503424167
1725631408987556400,9.448556396484374,0.05038286428153515,1.8129858262777327,-1.2491481204405426
1725631408997509400,9.45850927734375,-0.23666268400102852,2.235627885746956,-1.288151366443187
1725631409007462100,9.468462158203126,-0.3059294047117233,1.8370365639507769,-1.5312668798454105
1725631409017415200,9.478415283203125,0.1993354083865881,0.40020927838683124,-1.031639341981709
1725631409027367400,9.488367431640626,-0.01740048600360751,0.010247253248095512,-0.9681924134656786
1725631409037320400,9.498320556640625,-0.20805121428370474,0.22403613440096376,-1.2165690622664986
1725631409047273500,9.5082734375,0.22602497013062237,0.21706045016944406,-0.756940649574995
1725631409057226500,9.5182265625,0.3965910878896713,0.7472732420414686,-0.5808567913077771
1725631409067179500,9.528179443359376,0.11388766046464442,1.1638789439558983,-1.0762775251314043
1725631409077132500,9.538132568359375,-0.4938951316915452,1.3376198923587799,-1.0978779470428823
1725631409087084300,9.548084228515625,-0.5875470827266573,1.4393179333359003,-0.9032441404759883
1725631409097037300,9.558037353515624,-0.9723942490696906,1.4580629658162594,-0.8192128352232277
1725631409106990300,9.567990234375,-0.5125298356652259,0.8438526248306035,-1.6843610537998377
1725631409116943400,9.577943359375,-0.5614397047847509,0.25898060653209687,-1.884221216712892
1725631409126896400,9.587896484375,-0.5916144782960414,0.6339163274526596,-0.7535130862791091
1725631409136849400,9.597849365234374,0.2942652704030275,1.2755518509805202,-0.6832713830564171
1725631409146802400,9.607802490234375,0.7019989529453218,1.0329010324805974,-1.233101679394394
1725631409156754400,9.61775439453125,-0.27519509762153027,0.6872907747656106,-1.3732863951541483
1725631409166707200,9.627707275390625,-0.7326767075426877,0.22493805167675018,-0.8711904944155364
1725631409176660200,9.63766015625,-0.534579754909873,-0.11682371391654015,-0.4496401757057756
1725631409186613200,9.64761328125,-0.3084679832786321,-0.7020593048304319,-0.39953744353987275
1725631409196566300,9.657566162109376,-0.41611631096228957,-1.0878788233369587,-0.7433589912071824
1725631409206519300,9.667519287109375,-1.1273035096220672,-1.300401630076766,-0.7861439477056265
1725631409216471600,9.677471435546876,-0.8744120137453079,-1.5656915658861397,-0.8204024833992123
1725631409226424600,9.687424560546875,-0.43564255694821474,-1.442328805589676,-0.6918111747995018
1725631409236377600,9.697377685546876,-0.33636852824762464,-1.1956056230843066,-0.81819679004848
1725631409246330400,9.707330322265625,-0.5405588293194771,-0.8405950843393802,-1.5020708882384002
1725631409256283400,9.717283447265626,-1.1856326567329465,-0.9974503643929957,-1.5316764835596084
1725631409266236400,9.727236328125,-0.7104401796847581,-1.609733536708355,-1.7297466943159698
1725631409276188400,9.7371884765625,-0.4201875059239566,-1.7464274877429007,-2.135903044538945
1725631409286141400,9.747141357421874,-0.7777753478109836,-1.5023603727042674,-1.6439527633048594
1725631409296094500,9.757094482421875,-0.643510596684739,-1.7849778754115104,-1.5797268132403492
1725631409306047500,9.767047607421874,-0.3592125935446471,-1.8505904575288294,-1.8535377630271017
1725631409316000500,9.77700048828125,0.22838095867224037,-1.3861930768698454,-2.114569310739636
1725631409325953500,9.78695361328125,0.9066671737272292,-0.9616121582925319,-2.061823516719043
1725631409335906300,9.79690625,1.0971610309451818,-0.3051490679889917,-1.5783929342880845
1725631409345858300,9.8068583984375,0.3255412831544876,0.7844032415181398,-1.5194576379776
1725631409355811300,9.816811279296875,-0.7983914348602295,1.1164736341804264,-2.406602292045951
1725631409365764400,9.826764404296876,-0.6475204899132251,0.10129121374189853,-2.225562711067498
1725631409375717400,9.83671728515625,0.20357494565248488,-0.6529091972142458,-0.8553928404986858
1725631409385670400,9.84667041015625,0.8668307648360729,-0.15550912614166737,-1.2980842930451035
1725631409395623400,9.85662353515625,0.45133455853350457,0.11249825193285941,-2.172724562588334
1725631409405575200,9.8665751953125,0.19558164534363895,0.1610281818240881,-1.8625731562674044
1725631409415528200,9.876528076171875,0.9404103803098202,0.012920856371521948,-1.5555331599652766
1725631409425481200,9.886481201171875,0.9715712422490119,-0.022647885137796402,-1.8154956171415746
1725631409435434200,9.896434326171875,-0.0887175268402323,0.3409071945905685,-1.2998374203227459
1725631409445387300,9.90638720703125,-0.5576157625824213,0.22539631683826444,-1.149822946074605
1725631409455340300,9.91634033203125,-0.9229127175420522,0.3404202878564596,-0.613127075793594
1725631409465293300,9.926293212890625,-0.32178335539307446,0.23118249902427196,0.09840941122788935
1725631409475245600,9.93624560546875,0.35148115904238075,0.4926286188870668,0.25587840273305773
1725631409485198600,9.946198486328125,0.5651023189455271,0.7368634917080402,0.32556517548672853
1725631409495151400,9.9561513671875,0.6224006617039441,0.6776122613161802,0.3282099178418517
1725631409505104400,9.9661044921875,0.5539625007718801,0.6414274337351322,0.45742290200386193
1725631409515057400,9.976057373046874,0.44128713870644565,-0.07883972795903682,0.8554049693278968
1725631409525010400,9.986010498046875,0.7124621139664202,-0.19835282709002494,0.719526207133755
1725631409534962400,9.99596240234375,0.6738404146272688,0.011606266641616821,0.4606908177586272
1725631409544914400,10.00591455078125,0.4059674400547519,-0.3856985224753618,0.46478754902034997
1725631409554867200,10.0158671875,0.15798048469126225,-0.3926742067068815,0.46821945969779044
1725631409564820200,10.0258203125,-0.008174465562030673,-0.4551736252397299,0.7277245650280266
1725631409574773200,10.035773193359375,0.18085932904072105,-0.45605859138071536,0.957730932945013
1725631409584726300,10.045726318359375,0.4091624732363969,-0.6068120474278926,1.2247345408044754
1725631409594678500,10.055678466796875,0.2540120974045247,-0.5184381829261779,1.1945454465068877
1725631409604631300,10.06563134765625,0.20499832951910793,-0.7279062782704829,1.0696020659554748
1725631409614584300,10.075584228515625,0.31800219288654624,-0.3233843973815441,0.9712619571041315
1725631409624537300,10.085537353515624,0.14864625463485717,0.253868378084898,0.9206219031911342
1725631409634490400,10.095490478515625,-0.07537051747851073,0.49084407355785364,0.8559908794570714
1725631409644443400,10.105443359375,-0.22725217383801935,0.49266895089745516,0.9497008442897349
1725631409654396400,10.115396484375,-0.35839017124585804,0.9247019390463829,0.8559243170268833
1725631409664348400,10.125348388671876,-0.23203823907077312,1.231088439875841,0.8115441272262484
1725631409674301400,10.135301513671875,0.2024187613546848,1.5872387963056562,0.8577785665914416
1725631409684254500,10.14525439453125,0.7084669068504125,1.3412018424987793,0.8390899404734372
1725631409694207500,10.15520751953125,0.8086516206551343,0.7065308972865343,0.8205764517266303
1725631409704160500,10.165160400390626,-0.25365327402949334,0.6690601215481757,0.08931194906942545
1725631409714113500,10.175113525390625,-0.9031956251591443,0.014869652351737022,-0.7938450966674834
1725631409724065300,10.185065185546875,-1.1823351495575158,-0.4518564635157585,-1.0513885100033133
1725631409734018300,10.195018310546875,-1.3978297386497258,-0.39389702650010583,-0.9228244547367095
1725631409743971300,10.204971435546875,-1.5788602595388888,0.23954759178757667,-0.754215243199095
1725631409753924400,10.21492431640625,-1.0451531227450817,1.139027995815873,0.27448994502685964
1725631409763877400,10.22487744140625,-0.31690716419145465,1.3323410751730203,1.006810240347311
1725631409773830400,10.234830322265625,0.7671271125465631,1.1015835235625504,1.0659606407131998
1725631409783783400,10.244783447265625,0.6484848779659718,1.2359610143482684,0.5455942662034183
1725631409793735200,10.254735107421874,-0.21274901671111582,1.0124234771192073,-0.07793817600943148
1725631409803688200,10.264688232421875,-0.8886719367008655,0.8809352780342101,-0.2164146996118128
1725631409813641200,10.27464111328125,-1.280796765896678,0.5505699357241391,-0.36344124409034845
1725631409823594200,10.28459423828125,-1.3221879299491643,0.07523965764045715,-0.6112596744865179
1725631409833547300,10.29454736328125,-1.3854583328545094,-0.0058592474222183225,-0.43327962720915675
1725631409843500300,10.304500244140625,-1.2571119389265775,-0.024360534274578093,0.3557448443688452
1725631409853452500,10.31445263671875,-0.27998876163884995,0.0716167909681797,0.7827668724879622
1725631409863405600,10.324405517578125,0.5606312379460782,0.24857728593945502,1.1814626775719226
1725631409873358600,10.334358642578126,0.43778526806533336,0.6305132410109042,1.6940490657299756
1725631409883311400,10.344311279296875,-0.11785773313939571,0.7834621612757444,1.8592945729881525
1725631409893264400,10.354264404296876,-0.13317739428095518,0.09750877259373664,1.4442862232677638
1725631409903217400,10.364217529296875,-0.0816946059335023,-0.8309148173242807,0.4548296341076493
1725631409913169400,10.37416943359375,-0.37173195644319057,-1.2238491362720727,-0.5019837456010282
1725631409923122400,10.384122314453125,-0.6437356376122683,-1.4280156180769203,-0.6257469033919274
1725631409933075500,10.394075439453125,-0.7739706217657775,-1.083200894653797,-0.14509820676445961
1725631409943028500,10.404028564453125,-1.1293511628668755,-0.9380039036899804,0.9745499657988548
1725631409952981500,10.4139814453125,-1.2838713510364292,-0.8417354865461587,1.4565936239160597
1725631409962934500,10.4239345703125,-0.23263846998624502,-1.0656617308318614,1.8118175131507217
1725631409972887300,10.43388720703125,-0.24109708625189957,-0.7768173164337873,2.034900146219134
1725631409982839300,10.44383935546875,-0.7729156328201293,-0.4009907841533422,1.7454890378490089
1725631409992792300,10.453792236328125,-0.5880431956805289,-0.729922294268012,1.1260125930286944
1725631410002745300,10.463745361328124,-0.6494668747406452,-0.8975643412739038,0.6894706030227243
1725631410012698400,10.473698486328125,-1.1158834132023154,-0.33524960722029207,0.4311997521951794
1725631410022651400,10.4836513671875,-0.8171182740967721,0.3620341537714004,0.8025638982392848
1725631410032604400,10.4936044921875,-0.05018697638325393,1.1362503477960824,1.1933036297522484
1725631410042556200,10.50355615234375,0.9079314215093851,1.025190019711852,1.511352365194261
1725631410052509200,10.51350927734375,1.04485582029894,0.651918432611227,1.4355635492384433
1725631410062462200,10.523462158203126,-0.03901318287476897,0.3172743900686502,0.46130672116726634
1725631410072415200,10.533415283203125,-0.9656051734514534,-0.0888923354178667,-0.3123801882863045
1725631410082368300,10.5433681640625,-0.6624160073585807,0.17706921604275702,0.4463923528909683
1725631410092321300,10.5533212890625,-1.061305873709917,1.7235007856637239,1.1235685608774424
1725631410102274300,10.5632744140625,-1.5491722466312348,3.004891425800323,0.9973813908100128
1725631410112226600,10.5732265625,-0.9246328193329274,3.3426907175034284,0.5876438210994005
1725631410122179300,10.583179443359375,-0.06643135115429759,3.3242262555301187,0.35690409740656615
1725631410132132400,10.59313232421875,-0.14068565101921557,3.2106624201923606,-0.8108361981526017
1725631410142085400,10.60308544921875,-0.10372618580386042,2.2890105163663623,-1.649898081575334
1725631410152038400,10.613038330078124,0.33537834816649553,1.7395885816335677,-0.7110571425393223
1725631410161991400,10.622991455078125,0.8429699967771768,1.5821376737743615,0.47340837011039255
1725631410171943400,10.632943359375,0.15885098391547797,1.0074626398414372,0.5112020941928028
1725631410181896400,10.642896484375,-0.23868425295650958,-0.3465776414424181,0.8745669120460748
1725631410191849500,10.652849365234376,0.6332214770562946,-0.6882119812637567,1.6549024657338858
1725631410201802500,10.662802490234375,1.4534255152739584,-0.2861059293448925,1.7834446744948624
1725631410211755300,10.67275537109375,1.322161188072711,-0.5842156002163886,1.5136165107339619
1725631410221708300,10.682708251953125,1.475907542325556,-1.045695632123947,1.188225157444179
1725631410231661300,10.692661376953126,1.4782764634139836,-1.5600474225193262,0.8506184657037258
1725631410241613300,10.70261328125,1.4627087457954884,-1.812278554791212,0.9462769342556595
1725631410251566300,10.71256640625,1.6540069781988858,-2.1036399204462763,0.9115525346159934
1725631410261519400,10.722519287109375,1.4861697008818386,-1.68145203448534,1.1348422345638274
1725631410271472400,10.732472412109376,0.9864280351191759,-1.7305659017443655,1.179619826184213
1725631410281425400,10.74242529296875,0.9888748437494039,-1.6498405061691999,0.8090086904644965
1725631410291378400,10.75237841796875,0.5435889907956123,-1.34314011708498,0.8909764873161912
1725631410301330400,10.762330322265624,0.008264116606861353,-1.237175650835037,0.6127201024278998
1725631410311283500,10.772283447265625,0.27786417070031166,-1.3592296666204928,0.8154358009025454
1725631410321236500,10.782236572265624,0.7020186805590987,-1.0333452691167593,1.382857210445404
1725631410331189500,10.792189453125,0.27757790110483765,-0.6394049879968166,0.8480997608810663
1725631410341142500,10.802142578125,0.017543401605635882,-0.655937605124712,0.5916790679648518
1725631410351095600,10.812095458984375,-0.21350290381833908,-0.16094693328142165,0.6341454600334168
1725631410361047300,10.82204736328125,-0.2855874584287405,0.6368593951672316,0.22343320007175205
1725631410371000300,10.832000244140625,0.001781330458819866,1.197505319225788,-0.15377163482457398
1725631410380953300,10.841953369140626,0.44483314075022934,1.5040058018237352,-0.46158144645541904
1725631410390906400,10.85190625,0.049615971562266346,1.6905425189137457,-0.7468108852267265
1725631410400859400,10.861859375,0.8307447214543819,0.6579781710416078,0.32710780181884763
1725631410410812400,10.8718125,1.8519068008244037,0.4683732985526323,1.346172324387729
1725631410420764400,10.881764404296876,-0.06601940935254097,0.4438999515533447,0.15350772319138048
1725631410430717400,10.891717529296875,-0.5242041991069912,0.04940729724764824,-1.2835057325944303
1725631410440670500,10.90167041015625,0.6950386124134064,-1.0078408255040645,-0.8797165498942137
1725631410450623200,10.911623291015625,1.7142337756246326,-0.28335984550714494,-0.27286709306538104
1725631410460576300,10.921576171875,-0.15532193300649522,1.2399088751912117,-0.5169418068885803
1725631410470529300,10.931529296875,-0.9351125661626457,1.2892612273812294,-0.7027551781401038
1725631410480482300,10.941482421875,-0.4342790135100484,0.6709644938647746,-0.6069535017251968
1725631410490434300,10.951434326171874,0.4371171595454216,-0.7844991031080484,0.18151742762327194
1725631410500387300,10.96138720703125,0.9116539491638541,-1.4051298325300217,0.5892240760281682
1725631410510340400,10.97134033203125,0.9611445407807826,-1.742393117660284,0.3348116541944444
1725631410520293400,10.98129345703125,0.8367670504838228,-2.119273542907834,-0.20770970736965536
1725631410530246400,10.991246337890624,1.2081512164026498,-2.2697259701818226,-0.2647225111849606
1725631410540199200,11.00119921875,0.7426064192742109,-1.7525620449751615,-0.22497122329398989
1725631410550152200,11.011152099609374,0.3707068511791527,-1.0626157872647046,0.05404752426892519
1725631410560105200,11.021105224609375,0.02598667417168617,-0.4281552699327469,0.2654053788825869
1725631410570058200,11.031058349609374,-0.19192527826055883,-0.2649357155442238,0.2896770658299327
1725631410580011300,11.04101123046875,-0.5040012229032814,0.04748538927435875,0.18002280515134333
1725631410589964000,11.050964111328126,-1.1872323470145463,0.25231881055533883,-0.5288695605695247
1725631410599917000,11.0609169921875,-1.3506691974155605,-0.218173964369297,-1.034154393542558
1725631410609869300,11.070869384765626,-1.010233711989969,0.09117430887520313,-0.042068186531215905
1725631410619822300,11.080822265625,-0.6994996834754943,1.5537579669862984,1.3670445781551301
1725631410629775400,11.090775390625,0.20716566362082958,2.089748757737875,1.088614298004657
1725631410639728400,11.100728271484375,1.03748909092322,0.5950736788392067,-0.18069515145495532
1725631410649681400,11.110681396484376,0.747284494087845,-1.176802138414979,-0.8874776854149997
1725631410659634400,11.120634521484375,-0.2997730740390718,-1.713653345388174,0.21320823172070086
1725631410669587200,11.130587158203125,0.47761166701912877,-1.6511936743438242,0.24720504773817956
1725631410679539200,11.140539306640624,0.2640023802168667,-1.1592770031183957,0.4163722584847361
1725631410689492200,11.1504921875,-0.5016688344329595,-0.6626736353814602,0.025338074069842696
1725631410699445200,11.1604453125,-0.8241232574880123,-0.4231868338704109,0.15657653617747128
1725631410709398300,11.170398193359375,-0.6573046556942165,0.4846902271032333,0.21378150156401096
1725631410719351300,11.180351318359374,-0.45360593753159045,1.755554212528467,-0.8346144024945795
1725631410729304300,11.19030419921875,-0.4297445849508047,2.7627129009872675,-1.2709800130203366
1725631410739256000,11.200256103515626,-0.6340402460932731,3.5210125639557837,-1.3178139526486397
1725631410749209000,11.210208984375,-1.0484018223427236,3.116391314345598,-1.5451026591047643
1725631410759162000,11.220162109375,-0.10684840947762131,1.740837704911828,-0.9369749990336597
1725631410769115100,11.230115234375,0.21616510876491665,0.9495873739778995,-0.7414836988545954
1725631410779068200,11.240068115234376,0.012707505881786346,0.6671563337534666,-0.8442387746039778
1725631410789021200,11.250021240234375,0.47205227932631966,0.20150690720677375,-1.0860948625296354
1725631410798973400,11.259973388671876,-0.19888225779160856,0.24854455271363257,-0.51327290911749
1725631410808926500,11.269926513671875,0.17105974649488925,0.3688379885673523,-0.9730901223793625
1725631410818879500,11.27987939453125,0.5010762023020535,0.9921592722475528,-1.4409882046356797
1725631410828832300,11.289832275390625,0.43578386511504646,1.1466694504797459,-2.1379006480969487
1725631410838785300,11.299785400390626,0.17974289223141968,0.584069469743967,-2.559706110611558
1725631410848738300,11.30973828125,0.41589959947168825,0.028200258567929265,-1.4671613412901758
1725631410858691300,11.31969140625,1.068788338419795,-0.1327501818448305,-1.7171632532052694
1725631410868643300,11.329643310546874,0.465830043810606,-0.1192524023681879,-2.2984226339645684
1725631410878596400,11.339596435546875,-0.4395440944314003,-0.20573709212243554,-1.2958392905972898
1725631410888549400,11.34954931640625,-0.39213703109025955,-0.88007778442204,-1.317152858391404
1725631410898502400,11.35950244140625,-0.6060982731353491,-0.29738369468450543,-0.37794122287947685
1725631410908455400,11.369455322265624,0.5999215572617947,0.37491760074198244,0.48341436194851994
1725631410918408200,11.379408203125,1.5956857221335172,0.722956546908617,0.7175640402153134
1725631410928360200,11.389360107421876,2.0372766660921275,0.43091888942718504,1.1853251251537351
1725631410938313200,11.399313232421875,1.827590397952497,0.5351292054861784,1.09861882853806
1725631410948266200,11.409266357421876,1.0913375124234705,0.38498949742317196,0.6325124520041048
1725631410958219300,11.41921923828125,0.5973130552638322,-0.4825117140203714,0.7150570988956838
1725631410968172300,11.42917236328125,0.5244249291855841,-0.8119149333000183,0.8290371138188988
1725631410978125300,11.439125244140625,0.45542613869607446,-0.4534428559243679,0.7815294396474957
1725631410988078300,11.449078369140626,0.2123397052578628,-0.07514379605054855,0.7522917277906089
1725631410998030000,11.459030029296875,0.3038695495724678,0.09969897611439227,0.5317022267121821
1725631411007983000,11.468983154296875,0.5794394718557596,0.020128011271357535,0.6280173325419426
1725631411017936100,11.47893603515625,1.171002658355981,0.3356348071455955,0.6299858561359346
1725631411027889200,11.48888916015625,0.8171634284127504,1.1269178713053465,0.08624109025672078
1725631411037842200,11.49884228515625,0.4598590065769851,1.002804000380635,-0.1397328620727174
1725631411047795200,11.508795166015625,0.7273983287483453,0.9923094943732023,0.10567357527827843
1725631411057747500,11.51874755859375,0.7255551850996911,1.7042898892372846,0.38544549756236374
1725631411067700200,11.5287001953125,0.7058277174532414,1.4646160407215356,0.5569486404431984
1725631411077653200,11.5386533203125,1.334922908359766,1.1914689616709946,0.6331539647780359
1725631411087606300,11.548606201171875,1.6374077255755661,1.1698165173113346,0.5504195309353992
1725631411097559300,11.558559326171874,1.2236639889635146,0.376421575564146,-0.3437295950675383
1725631411107512300,11.56851220703125,1.0492882497884333,-1.0052607458829879,-0.41528822610769417
1725631411117464300,11.57846435546875,0.9690658352993428,-0.7291916419059038,0.07905879580350593
1725631411127417300,11.588417236328125,0.2542337042659521,-0.08445347618758678,-0.03693849549256265
1725631411137370400,11.598370361328126,-0.15891265097483992,0.03703706049621105,-0.14796066525718196
1725631411147323400,11.608323486328125,0.1275561203330755,0.11634557501077651,-0.020958836072310805
1725631411157276200,11.618276123046876,-0.04977686121240258,0.680531363633275,-0.19463800781797616
1725631411167229200,11.628229248046875,-0.38782194437012074,0.5711439371973276,-0.1965196568461135
1725631411177182200,11.63818212890625,-0.6316395416270941,0.42283612073659893,-0.18283377091884612
1725631411187134200,11.64813427734375,-0.6568436140537262,0.028342297387123107,0.034643297227472065
1725631411197087200,11.658087158203125,-0.9736522132415324,-0.4013894280821085,0.03673219579812139
1725631411207040300,11.668040283203124,-0.5836627155739814,-1.5406325279533861,0.5429930707290769
1725631411216993300,11.6779931640625,0.2710340324193239,-2.4289696066766977,0.3139121105613187
1725631411226946300,11.6879462890625,0.08747245868258177,-2.3048685952335597,0.0853237562160939
1725631411236899000,11.697899169921875,-0.028206176852062344,-2.5097020165145394,-0.11241934147775172
1725631411246851300,11.707851318359374,0.19219028587229547,-2.3920810147404667,0.08958134059533476
1725631411256804400,11.717804443359375,0.17493746471107005,-1.5728700792133807,0.559393220583722
1725631411266757400,11.72775732421875,0.9856640650093554,-0.6320218920081854,0.6135752579525112
1725631411276710100,11.737710205078125,1.264345397311449,0.5626636936217546,0.427870096315816
1725631411286663200,11.7476630859375,0.9311387671608478,0.6138567052423953,-0.09339096201136708
1725631411296616200,11.7576162109375,0.14003924287445843,0.20710545786619186,-0.428468281404674
1725631411306569200,11.7675693359375,-1.209288038412854,-0.12128420045673846,-0.7934464527387172
1725631411316521200,11.777521240234375,-2.2262755355119705,-0.12037468439638614,-1.303847971138358
1725631411326474200,11.78747412109375,-2.748043155121803,0.04973404498398304,-1.2500897852048276
1725631411336427300,11.79742724609375,-2.164738824531436,0.45857963429093357,-1.1090071707572788
1725631411346380300,11.80738037109375,-1.646253879854083,0.6864654298573732,-0.9418327412631362
1725631411356333300,11.817333251953125,-1.380837102794647,0.8774076884299516,-1.1100219738230108
1725631411366286300,11.827286376953126,-0.7615881100546568,0.7397557060182094,-1.0329434103175996
1725631411376238300,11.83723828125,-0.404649818117544,1.3734499151527881,-1.3321500826455652
1725631411386191400,11.84719140625,-1.2301537893742323,2.216042895311117,-1.975403124372661
1725631411396144000,11.85714404296875,-1.382655550393462,1.7620237008035182,-1.6922174663886427
1725631411406097200,11.86709716796875,-1.09054365863204,1.508422449222207,-1.546605611013621
1725631411416050200,11.87705029296875,-2.309992514118552,1.4275626136124133,-1.4410117316417395
1725631411426003200,11.887003173828125,-2.3048387846171856,0.9185521842449903,-1.0359404001764954
1725631411435955200,11.896955078125,-2.016886350622773,1.4327391394674778,-0.021335341234505176
1725631411445908200,11.906908203125,-0.3852883342392742,2.0208979243516922,1.7163783864378928
1725631411455861200,11.916861328125,1.0335342158176004,2.334189382264018,2.6340865210741757
1725631411465814300,11.926814208984375,0.948178749288991,0.6415034215807914,2.185753263248503
1725631411475767000,11.93676708984375,-0.19304587978832422,-2.1353116545170545,0.784039084380865
1725631411485720000,11.946719970703125,0.11145371131598948,-3.5004309636980295,-0.26650091903433204
1725631411495672300,11.95667236328125,0.7772730973772705,-2.6270816107481716,-0.25225042149424554
1725631411505625300,11.966625244140625,1.3310662329316139,-1.4569225636094807,0.1180230067037046
1725631411515578400,11.976578369140626,1.5345423943847416,-0.9354910440862179,0.6314427769459784
1725631411525531400,11.986531494140625,0.967160440069437,-1.3078870173960924,1.1009934487149118
1725631411535484400,11.996484375,-0.07361527130901813,-2.212524073535204,0.14229542430341244
1725631411545436700,12.006436767578125,1.1523960114330052,-3.237075795343518,0.10179828648120164
1725631411555389700,12.0163896484375,0.48762452698945996,-2.3140438353359696,0.432095824252069
1725631411565341700,12.026341796875,-0.6599819120794534,-1.4734171868145465,0.20843729099184274
1725631411575294700,12.036294677734375,-0.6980489001452922,-1.098914012092352,0.5157885452002287
1725631411585247700,12.046247802734374,-0.9190577956795692,0.5365367341965437,-0.013294950380921364
1725631411595200800,12.05620068359375,-0.8425064709186554,1.1304448763877153,-0.9080614776298404
1725631411605153800,12.06615380859375,0.09483005490377545,0.8874334078818559,-1.048797397531569
1725631411615106800,12.07610693359375,1.1946107668280601,0.9886679230004548,-1.1108750835210084
1725631411625058600,12.08605859375,0.8833752185322343,1.4045739522129297,-1.1077601663708687
1725631411635011600,12.096011474609375,0.02923661587834358,1.4889298132449387,-1.1765984325364232
1725631411644964600,12.105964599609376,0.0709498514920473,1.5759633690536021,-0.5505065150991082
1725631411654917600,12.115917724609375,-0.12959376364052294,1.8756302062392234,0.10667992104291915
1725631411664870700,12.12587060546875,-1.003561540749669,2.352847320982814,0.08166004607677459
1725631411674823700,12.13582373046875,-0.7950514767825603,1.9819863021552562,0.19231559275239704
1725631411684776700,12.145776611328126,0.02650353765264153,1.9020757300943134,0.3907549290820956
1725631411694728700,12.155728759765625,-0.23086042746305466,1.656455540394783,-0.1319575701624155
1725631411704681700,12.165681640625,-0.29476781309768557,-0.6758475897312164,-0.009561316810548304
1725631411714634800,12.175634765625,1.5880755393907426,-0.2277075163900852,0.8840554558813571
1725631411724587800,12.185587890625,1.7989573009252546,-2.3110943378806112,1.630380895678699
1725631411734540800,12.195540771484374,1.7009600141622125,-2.7236516411870717,3.12947086841017
1725631411744493800,12.205493896484375,1.2146645438194275,-2.973662174800038,4.248446840800344
1725631411754445800,12.21544580078125,0.4387409613549709,-3.180926038098335,4.048884930181503
1725631411764398800,12.22539892578125,-0.3339940542012453,-2.687154678916931,1.1755994846269489
1725631411774351600,12.2353515625,-0.6170797589421272,-1.8828040433913469,-0.5223603248059749
1725631411784304600,12.2453046875,-0.44165524136647577,-0.9141425511091947,-0.17758651791512964
1725631411794257700,12.255257568359376,0.951655558554083,-0.4296095603942871,1.375705000603199
1725631411804210700,12.265210693359375,0.866203865109384,0.08826923508346081,2.002425571332872
1725631411814162700,12.27516259765625,-0.17763795584142206,-0.65914896838665,2.238605440253019
1725631411824115700,12.28511572265625,0.5158469973891974,-1.3132318855553864,2.771387498091161
1725631411834068700,12.29506884765625,0.5320353311240673,-0.7154495322793721,2.4737910374388097
1725631411844021800,12.305021728515625,0.3609375907063484,-0.8370061199367046,2.5053905830562115
1725631411853974800,12.314974853515626,1.3787737405240534,-0.9082844727307557,2.8880875856280324
1725631411863927600,12.324927490234375,1.576474825707078,-0.8097247297793626,2.926589165718853
1725631411873880600,12.334880615234376,1.1243956593513489,-1.006327498331666,2.089843450284004
1725631411883832600,12.34483251953125,0.8490215519011021,-1.3728034339427948,1.6893606156527996
1725631411893785600,12.35478564453125,1.0169415390655399,-0.40537528284788127,1.5884101781725883
1725631411903738600,12.364738525390624,0.2064578076124191,1.0627695165216922,0.4094929472997784
1725631411913691600,12.374691650390625,-1.184237549112737,2.0554016669780015,-0.5780094390526413
1725631411923644700,12.384644775390624,-0.9084092681542039,2.535163790029287,-0.3355804466098547
1725631411933597700,12.39459765625,-1.0866162560552357,3.7872552704453466,-0.9691516138866543
1725631411943549700,12.4045498046875,-1.3308525901809334,4.051879435822367,-1.7858914831250905
1725631411953502700,12.414502685546875,-1.1165915614716708,4.101466765812039,-2.0270012096628545
1725631411963455700,12.424455810546876,-0.5788343455694616,3.3768893397033213,-1.7213021065756677
1725631411973408800,12.43440869140625,0.20805179880559443,1.9408710324347018,-1.0326511493727564
1725631411983361800,12.44436181640625,0.5024544318526983,1.0616817212849854,-0.5843294358544051
1725631411993314800,12.454314697265625,0.5268646504878998,0.6769453218400477,-0.015654519119113683
1725631412003267800,12.464267822265626,0.4657410503529012,0.23044190979003906,0.3100174046777189
