time,seconds_elapsed,z,y,x
1725629744974488600,0.022488525390625,-2.6215479420185086,0.9246300428539515,-2.4157645265363157
1725629744984522500,0.0325224609375,-2.612272748672962,1.209465806132555,-2.5333912273988126
1725629744994556700,0.042556640625,-2.0959844372570515,1.0642547866433858,-2.163417074408382
1725629745004590600,0.052590576171875,-0.9716355396568774,0.17959902678132056,-0.6412312535759062
1725629745014624500,0.06262451171875,0.3282826908171177,0.17063830621242523,0.23897340862881392
1725629745024658700,0.07265869140625,0.820201700130105,1.1056535494804383,-0.051925906172185204
1725629745034692600,0.082692626953125,0.7502373525440692,1.7411346420317888,-0.17988982642143964
1725629745044726500,0.0927265625,0.5366214898705483,1.9736773234933613,-0.04162033316586167
1725629745054760700,0.1027607421875,0.4532984790176153,1.8492220917850732,0.1323583147167228
1725629745064794600,0.112794677734375,0.37377076879441734,1.4424305123984813,0.26133279568143186
1725629745074828500,0.12282861328125,0.31489772406518457,0.5598235017597675,0.7262575612153858
1725629745084862700,0.13286279296875,0.36642508220672604,-0.40992929289042945,0.908647753085196
1725629745094896600,0.142896728515625,0.9006552930265664,-0.629803046914935,0.5477573990540578
1725629745104931600,0.152931640625,1.255703241172433,0.33037177205085755,0.5001518174661324
1725629745114965800,0.1629658203125,1.5398679733216762,0.9761655843019484,0.5143007177952676
1725629745124999400,0.17299951171875,1.84540457932353,0.8998843086540699,1.119883369558677
1725629745135033600,0.18303369140625,1.78796244418025,0.6086573830336331,2.8979511002555487
1725629745145067800,0.19306787109375,0.996274890872836,0.5284902058631181,4.032753879591822
1725629745155101400,0.203101318359375,0.5835422309994697,0.6722633015036582,3.9265076737910505
1725629745165135600,0.213135498046875,0.39475101298093795,0.8649129485160112,2.8587130225837227
1725629745175169800,0.223169677734375,0.5216255807906389,1.4042086260318756,1.330878455274552
1725629745185203500,0.233203369140625,1.339348323586583,1.0616419737964868,-0.43859596339371054
1725629745195237600,0.243237548828125,1.5972756216734647,-0.2972819878757,-1.2482029485449193
1725629745205271800,0.253271728515625,1.6681792959362267,-1.0438052883327007,-0.88253014601022
1725629745215305500,0.263305419921875,1.8495166908174752,-0.6946843921482563,0.12239678307482972
1725629745225339600,0.273339599609375,2.0751520771086214,0.21046938134133814,0.9698347738452255
1725629745235373600,0.28337353515625,1.6853659930586813,0.6646054802268743,1.312239805778116
1725629745245407500,0.293407470703125,0.8152578139871358,0.23678163420557974,1.0520662631344049
1725629745255442700,0.303442626953125,0.002672434079647064,-0.33449615850448605,0.6714122376322745
1725629745265476600,0.3134765625,-0.6447685608565807,-0.3244499807864427,0.594792377679795
1725629745275510500,0.323510498046875,-1.00898648840785,0.17110183207094667,0.7279418610405176
1725629745285544700,0.333544677734375,-1.1116939986884593,0.5097708923459052,0.8129311246052384
1725629745295578600,0.34357861328125,-1.5578700784802435,1.0071434908896684,0.8108283071070909
1725629745305612500,0.353612548828125,-2.621523392099142,1.3855623777508734,0.7570275241408496
1725629745315646700,0.363646728515625,-3.2792841209977865,1.4404980830311775,0.21741618653824551
1725629745325680600,0.3736806640625,-3.474894371381402,1.5016215370357036,-0.2887033802258782
1725629745335714600,0.383714599609375,-3.512119647926092,2.074474031716585,-0.17442381610050797
1725629745345748700,0.393748779296875,-3.233936912795901,2.7981045323640106,-0.05282258558385074
1725629745355782400,0.403782470703125,-2.7091829708516597,3.742106799685955,-0.21464915124401449
1725629745365816600,0.413816650390625,-1.8244670052349565,4.80041407610178,-0.8934534718889743
1725629745375850800,0.423850830078125,-0.7451216169655323,5.449726125606894,-1.8692545337274669
1725629745385885700,0.4338857421875,0.09014028965234756,5.167960271292925,-1.9167362697400152
1725629745395919600,0.443919677734375,0.534747512692213,4.490655468490719,-1.1741776351302862
1725629745405953500,0.45395361328125,0.20671032106876372,3.6336680522769687,-1.178578062046319
1725629745415987700,0.46398779296875,-0.29285598812699315,3.7355227451205253,-1.0826840311728416
1725629745426021600,0.474021728515625,-0.9869283858567476,4.602067678752541,-0.5110360899761319
1725629745436055600,0.4840556640625,-1.750414511552453,5.277773814186453,-0.22454233035743235
1725629745446089500,0.49408935546875,-1.0995715992182493,5.128287017074227,-0.1547311275064945
1725629745456123600,0.50412353515625,-0.2883142530441284,4.653348953178525,-0.12938275123834608
1725629745466157600,0.514157470703125,0.8882067303419112,3.6496518033504484,-0.7921803052604198
1725629745476191500,0.52419140625,1.3613362835109233,2.7545366087943313,-1.0808987551912665
1725629745486225700,0.5342255859375,1.24966571457386,2.3524019153028726,-1.2778317786112428
1725629745496259600,0.544259521484375,0.8499836749315262,2.2692986846804617,-1.1192387149795888
1725629745506293500,0.55429345703125,0.3604384090125561,2.1563725627243517,-0.9581152560874819
1725629745516327700,0.56432763671875,-0.3146002024233341,1.8333096523821353,-1.0207295331716537
1725629745526362600,0.574362548828125,-0.5883861638993024,1.2365870372921228,-1.156494094401598
1725629745536395500,0.5843955078125,-0.07249415832459927,0.6448094773888587,-1.450187702396512
1725629745546430500,0.594430419921875,0.7780296148329973,0.04813830022513866,-1.5040607468813656
1725629745556464600,0.604464599609375,1.1376859335571528,-0.16298633015453814,-1.4430553662985564
1725629745566498600,0.61449853515625,0.9825865572601556,-0.54185880600214,-1.7042478036612272
1725629745576532500,0.624532470703125,0.7251356445133685,-1.54256495732069,-1.611751306271553
1725629745586566700,0.634566650390625,-0.31999767755270003,-2.3135575131237505,-1.102173890671134
1725629745596600600,0.6446005859375,-1.5242816971331834,-2.2840111006438732,-1.223451076865196
1725629745606634500,0.654634521484375,-2.5406273161321877,-1.9796254182428121,-0.5546919840902089
1725629745616668700,0.664668701171875,-3.7035745321959257,-1.7301298484146594,0.12231471254825592
1725629745626702600,0.67470263671875,-4.829579380309582,-1.864929364004731,-0.08647884453535079
1725629745636736500,0.684736572265625,-5.276124877935648,-1.965550423400104,0.031084874093532562
1725629745646770700,0.694770751953125,-5.168208108574151,-1.729381075873971,0.8582949916809797
1725629745656804600,0.7048046875,-4.915322896307707,-1.590842666016519,1.9050334108561275
1725629745666838500,0.714838623046875,-3.770107736289501,-0.9110448773548007,1.8152765675634144
1725629745676872700,0.724872802734375,-4.488375833120942,-0.5617810655683279,4.14594654352963
1725629745686907600,0.73490771484375,-3.8015269569039343,0.2551099025785923,5.481951986429095
1725629745696941600,0.744941650390625,-2.8243866823509336,1.9661554035559294,4.999518013820052
1725629745706975700,0.754975830078125,-4.010681748515367,2.3556094791725277,2.872635164952278
1725629745717009700,0.765009765625,-4.916356331008672,2.884394576328993,-0.16172434739470481
1725629745727043600,0.775043701171875,-4.7894338324040175,3.6165216871649024,-3.0817835268229246
1725629745737077800,0.785077880859375,-4.145128797405958,3.671457684706151,-4.502724676468969
1725629745747111700,0.795111572265625,-2.9806258763328195,2.6100281846165654,-4.108717175331711
1725629745757145600,0.8051455078125,-1.3367013162091375,1.8637309480004012,-3.1713854718148706
1725629745767179800,0.8151796875,0.5386243541255593,1.7879172898642717,-2.4392361491471526
1725629745777213700,0.825213623046875,2.1539982348084448,1.2436390016302465,-2.2344290313512087
1725629745787247600,0.83524755859375,3.497458669888973,0.19034633850604293,-2.7804917187839746
1725629745797281500,0.845281494140625,4.051545089301467,-0.7107599131584167,-3.483224392831325
1725629745807315700,0.855315673828125,4.758733573713898,-1.402739722523093,-3.4050247163414955
1725629745817349600,0.865349609375,6.634129386675357,-2.5798425974503156,-3.045034635618329
1725629745827384800,0.875384765625,10.82592874984145,-2.92762143137604,-2.0347055004298684
1725629745837418500,0.88541845703125,17.61677079322934,-3.6415333788245916,-5.256989384832978
1725629745847452700,0.89545263671875,27.719367733108996,-5.590045281401276,-11.424880146896838
1725629745857486800,0.90548681640625,12.675602677047252,-5.248868037697672,-6.407076534801721
1725629745867520500,0.9155205078125,1.7882829083062708,-5.036686591741442,-0.8144096727252006
1725629745877555200,0.92555517578125,1.6047576479919254,-5.81870615299344,0.037323476222157474
1725629745887589000,0.935589111328125,3.233756295531988,-5.774997944170236,2.3552403535991906
1725629745897623300,0.945623291015625,2.1547079905129967,-3.8382150578320022,2.680944133839011
1725629745907657200,0.9556572265625,0.9577952303528785,-2.518512222696841,1.9842992552727459
1725629745917691100,0.965691162109375,0.450717814874649,-2.860680815525353,1.9138404021680353
1725629745927725300,0.975725341796875,0.4040928418219089,-1.9741795739270747,1.835479397636652
1725629745937759200,0.98575927734375,0.8762345529973506,0.2024585088431835,0.8966817132204771
1725629745947793200,0.995793212890625,1.0715256544291973,0.8173378351315855,1.6052636978179216
1725629745957827000,1.0058271484375,0.5622983674407005,1.6149971563249825,1.3185633097112177
1725629745967861200,1.015861328125,1.1334960806518792,2.6197788865193723,0.20573650760054588
1725629745977896200,1.025896240234375,2.540601012647152,3.57555254791677,-1.8130214821130037
1725629745987930400,1.035930419921875,3.7128386196255683,-1.6327676446847617,-0.20307167230546475
1725629745997964000,1.045964111328125,5.674811476799845,-13.649794915449618,0.2887485528081655
1725629746007998200,1.055998291015625,4.632914067915082,-16.131978810441492,-0.5149731371641159
1725629746018032400,1.066032470703125,2.107112711123377,-7.567423212978244,-4.803703180775046
1725629746028066000,1.076066162109375,-1.3707218053631485,-1.777380552150309,-5.655339883610606
1725629746038100200,1.086100341796875,-2.2205969053536654,0.5566837058966979,-6.271214942938089
1725629746048134100,1.096134033203125,-0.9972222547255456,-0.18217720670625567,-5.804975733804702
1725629746058168000,1.10616796875,-2.388603986279666,1.8782097013384103,-2.6577900527447462
1725629746068202200,1.1162021484375,-3.2440000416487456,6.141416596636176,-0.840862210842967
1725629746078236200,1.126236083984375,-4.904678752696514,8.77972219671011,0.5853828904300927
1725629746088270000,1.13627001953125,-6.141958448427915,10.773680676209926,4.439545458978414
1725629746098304300,1.14630419921875,-7.19416682344675,10.187840105140209,7.032382854819297
1725629746108338200,1.156338134765625,-6.1470338519960634,7.629991605094075,5.846158223542571
1725629746118372000,1.1663720703125,-2.136428529717773,5.728443113744259,2.468869070866704
1725629746128407300,1.1764072265625,3.1222119833230972,3.4630385138928887,-0.7487287015467882
1725629746138441000,1.18644091796875,7.58676971848309,0.38235863746292886,-3.767175189968943
1725629746148475100,1.19647509765625,7.810057080343365,-2.1666071026213465,-5.189231022858619
1725629746158509300,1.20650927734375,6.010024843662977,-3.34416079005599,-5.863482283309102
1725629746168543000,1.21654296875,4.246682461476325,-2.097598594455421,-5.683140913727879
1725629746178577200,1.2265771484375,1.9217865388669073,0.30640485847005616,-5.9817164485454555
1725629746188611300,1.236611328125,1.6486825683057307,2.888239853580296,-6.483173686054348
1725629746198645000,1.24664501953125,0.3825573018401861,4.771815173605084,-5.51362898119688
1725629746208679200,1.25667919921875,-2.494517891386151,3.705614221329987,-3.9677357562363147
1725629746218713300,1.26671337890625,-4.347539667715132,5.6315843294918535,-0.3486082704871893
1725629746228747000,1.2767470703125,-3.696984340150654,7.039468429166078,2.390045709520578
1725629746238781200,1.28678125,-2.47150584911108,5.920128884160518,4.4898289545387025
1725629746248815400,1.2968154296875,-0.8241080599188804,4.830520460551977,6.111365157243609
1725629746258849000,1.30684912109375,1.3640081330686806,4.498399506746233,6.885380275738239
1725629746268883200,1.31688330078125,3.207759976749122,3.805846573668718,5.681445215725899
1725629746278918100,1.326918212890625,4.777549041081965,3.789180685549974,4.095929005429149
1725629746288952000,1.3369521484375,4.794457213523984,3.8567102072045203,1.812931465741992
1725629746298986200,1.346986328125,4.222570933526754,3.2996763361632824,0.18276596637964249
1725629746309020200,1.357020263671875,3.379807272976637,1.9041601351529358,-0.7423036369353533
1725629746319054000,1.36705419921875,3.28397724725008,0.7487631883382797,-1.8862655820220708
1725629746329088300,1.377088134765625,2.717759660539031,0.18267821503095327,-2.7833576296091076
1725629746339122200,1.3871220703125,1.4146300668030976,-0.04822612463906407,-2.835214073574543
1725629746349156000,1.397156005859375,0.431308765527606,-0.22401403216701,-2.3037977511316536
1725629746359190300,1.407190185546875,-0.17982932840585708,0.18363449284248054,-1.5019237348526715
1725629746369224200,1.41722412109375,-0.9230582634925841,0.8197997682657092,-0.6513146214991807
1725629746379258000,1.427258056640625,-1.374324944421649,1.049313091968745,-0.1484966170310974
1725629746389292300,1.437292236328125,-1.3002116604626177,1.0967414903588593,-0.29275720392763616
1725629746399326200,1.447326171875,-1.0514929202258587,1.3231168813623486,0.013750877454876898
1725629746409360100,1.457360107421875,-0.6343944663584232,1.076573000946641,0.6015455052018165
1725629746419394300,1.467394287109375,-0.41625381973683834,0.749248487637192,0.7246727031767368
1725629746429429200,1.47742919921875,-0.7420651520043611,0.1598336565435864,0.7347165428072213
1725629746439463200,1.487463134765625,-1.3453174611240624,-0.49712622256726025,0.5067044905126095
1725629746449497300,1.497497314453125,-1.9025906938791275,-1.2832891672343014,0.4463040900856256
1725629746459531300,1.50753125,-2.262110234481096,-1.6665277293369174,-0.09442658866941929
1725629746469565200,1.517565185546875,-2.3009487914413214,-1.9707775103986263,-0.5279430933743715
1725629746479599400,1.527599365234375,-1.97162857427001,-4.906404261314869,1.0320336019963026
1725629746489633000,1.537633056640625,0.5575783531814813,-3.6961318149745463,0.08159282605946064
1725629746499667200,1.547667236328125,1.9527672219336032,-2.407665975754708,-0.01132569613456726
1725629746509701400,1.557701416015625,2.110588132148981,-2.2006749380484223,-0.016609774017333982
1725629746519735000,1.567735107421875,1.9036960247725248,-2.3658460648961364,0.340266558599472
1725629746529769200,1.577769287109375,1.531634397983551,-2.350816838068515,-0.06561492020487784
1725629746539803400,1.587803466796875,-0.041890930268168446,-2.3046949922323225,-1.1411036330461501
1725629746549837000,1.597837158203125,-1.689022177478671,-1.0927830350566654,-1.9113351413488386
1725629746559871200,1.607871337890625,-1.1874030274063347,0.5696720380138606,-1.2902157516270876
1725629746569906200,1.61790625,-1.32771633798182,1.8935618765100837,-2.501331078532338
1725629746579940000,1.627940185546875,-1.8745815739691256,2.818137266567349,-3.109410369417071
1725629746589974300,1.637974365234375,-2.32295837867558,2.661470202562213,-2.5995886236667634
1725629746600008200,1.64800830078125,-2.439097617459297,2.234528984594345,-2.1655898884028195
1725629746610042000,1.6580419921875,-5.4611885998636485,1.905268827047199,-1.0370593212038277
1725629746620076300,1.668076171875,-2.474319737488031,-0.030894210359640416,1.3944453569084405
1725629746630110200,1.678110107421875,-0.18140169228911399,-1.1555620742484927,2.6346815643578765
1725629746640144100,1.68814404296875,1.8838737184494734,0.08175168814929201,2.9935680677533147
1725629746650178300,1.69817822265625,3.650387131887674,0.911589797886461,2.1346160734683273
1725629746660212200,1.708212158203125,5.091549816307425,0.9547845042295754,2.1784441092789173
1725629746670246100,1.71824609375,6.0706906170278785,0.09235117063485085,2.5017817449092865
1725629746680280300,1.7282802734375,6.2831672465384,-0.44132812830395995,2.144230874031782
1725629746690314200,1.738314208984375,6.3263458785295485,-0.06451455774754286,1.4286089077949522
1725629746700348200,1.74834814453125,5.280554969337582,-0.7829827802609651,-0.3024205198079347
1725629746710382300,1.75838232421875,2.3026222776114937,-2.109376126010716,-2.71822786257267
1725629746720417300,1.768417236328125,-0.42416532351374625,-1.9324841662310062,-4.175089635905623
1725629746730451200,1.778451171875,-0.8571855691343545,0.7342538937315345,-2.8651421788483855
1725629746740485000,1.788485107421875,-0.1892936145827174,4.447959651580453,1.6374480575859545
1725629746750519300,1.798519287109375,1.5779682791352272,8.581611361682414,8.592029295322298
1725629746760553200,1.80855322265625,2.008560420826077,6.404648430871963,10.173923807990551
1725629746770587100,1.818587158203125,-0.4272779025763273,3.7388010361388324,9.311665757897496
1725629746780621300,1.828621337890625,-3.448205978681147,2.6039129166066646,10.85812187743783
1725629746790655200,1.8386552734375,-5.181462726944685,2.5239380471378565,11.470095253151655
1725629746800689200,1.848689208984375,-7.493511589071154,1.1893097378104924,10.431059663438797
1725629746810723300,1.858723388671875,-9.230802415156363,0.07399550279825926,8.880303800877929
1725629746820757200,1.86875732421875,-9.040925739988683,0.7298468909442425,6.021508945229649
1725629746830791200,1.878791259765625,-7.715742719876766,1.9013012385904788,3.767947927907109
1725629746840825000,1.8888251953125,-5.776843864297867,1.7054688698887823,3.5556279502630233
1725629746850859300,1.898859375,-2.7197803527116773,2.332157584175467,4.8670747059673065
1725629746860893200,1.90889306640625,0.5801683706521987,5.198047366520762,6.88500559720695
1725629746870928400,1.918928466796875,3.532764961069822,6.62151598881781,8.723225817984343
1725629746880962000,1.928962158203125,3.9685020644336935,7.790940291941165,7.299072720554471
1725629746890996200,1.938996337890625,4.098584488373994,7.920424165466427,2.8764667059391735
1725629746901030400,1.949030517578125,5.812417281982302,6.528765224406123,-3.8516859493017193
1725629746911064000,1.95906396484375,9.631103463479876,2.8261864252492783,-12.07962415832281
1725629746921098200,1.96909814453125,18.38871261258125,-0.38328430094048377,-21.909790642988682
1725629746931132400,1.97913232421875,20.505841544675825,-1.358956987158954,-22.449028452837467
1725629746941166000,1.989166015625,14.901345128595828,-3.128940999317169,-16.079847641187904
1725629746951200300,1.9992001953125,9.032585197144746,-2.374915798797458,-11.794148343575
1725629746961234200,2.009234130859375,3.6151264334142206,-0.7429869430243968,-8.387165478903055
1725629746971268000,2.01926806640625,0.5329202972650527,-0.10373261554464697,-7.111037873861194
1725629746981302300,2.02930224609375,0.47038142350465056,-0.6944048445545137,-6.718285341221094
1725629746991336200,2.039336181640625,1.12187578548491,-1.9068178100548683,-6.083346100461482
1725629747001370000,2.0493701171875,1.4578738729849456,-1.9027327326983212,-4.934179572468996
1725629747011404300,2.059404296875,2.049443927617371,-0.5044515239540487,-3.4758617551088333
1725629747021438200,2.069438232421875,2.2566756422117353,1.049627857006341,-2.3701181892573833
1725629747031473200,2.07947314453125,2.172622563518584,2.218308209894597,-1.6758277648627757
1725629747041507300,2.08950732421875,1.9912299313187598,2.614671041986346,-0.13910861096084118
1725629747051541000,2.099541015625,1.172844632960856,2.9231963084101675,2.2924106801986692
1725629747061575200,2.1095751953125,0.8646493291437626,3.8926112494081258,5.38751604540944
1725629747071609300,2.119609375,0.9120390029586851,5.472257690888643,8.718621539059281
1725629747081643000,2.12964306640625,1.0367793352186678,6.73254066106677,11.938791792309283
1725629747091677200,2.13967724609375,1.3749895458102226,7.129329901877045,13.989548263829946
1725629747101711400,2.14971142578125,0.9101905986130236,6.963082524099946,14.421223524582386
1725629747111745000,2.1597451171875,-0.3750970489621162,6.788450764337182,12.092305945241451
1725629747121779200,2.169779296875,-2.5021686984002587,6.514835483253002,9.170978353312611
1725629747131813400,2.1798134765625,-3.410446741390228,6.740853146860003,6.526409016668796
1725629747141847000,2.189846923828125,-3.0496564502000805,6.789559602361917,4.5353182015597815
1725629747151881200,2.199881103515625,-2.2332897981882094,6.748787446990609,3.592452829313278
1725629747161915400,2.209915283203125,-1.3317958623804151,6.9542018830299375,2.9140421110957857
1725629747171949000,2.219948974609375,-0.6203403681732714,5.7651440741539,1.544391003704071
1725629747181983200,2.229983154296875,0.5203120139740407,4.0741421210348605,-1.2957365608751774
1725629747192018200,2.24001806640625,2.3532874659657477,1.9880401953667401,-5.413700287979841
1725629747202052000,2.250052001953125,3.94510306866765,-1.0581515013322234,-10.96923715057969
1725629747212086300,2.260086181640625,5.025032978826761,-3.612471242730319,-16.59683737887144
1725629747222120200,2.2701201171875,6.698253776061534,-4.895251291398703,-16.930996852767468
1725629747232154000,2.280154052734375,9.894014979720115,-5.673643602064252,-11.141052683877945
1725629747242188300,2.290188232421875,9.467885662657022,-5.04234184102416,-3.5632670668393374
1725629747252222200,2.30022216796875,4.117477697153389,-2.8789322192698714,0.42236558061540125
1725629747262256000,2.310256103515625,-0.43712431993857026,-0.37409605522602796,0.9390765013575554
1725629747272290300,2.320290283203125,-2.9297637041017413,0.9885963190689683,0.929274653789401
1725629747282324200,2.33032421875,-5.42382771424055,0.9755601657547056,2.081068607676029
1725629747292358100,2.340358154296875,-6.997870344364642,-0.2289475795790553,3.3992800352096557
1725629747302392300,2.350392333984375,-6.537656386870146,-0.8974258095860481,2.971900425824523
1725629747312426000,2.360426025390625,-3.7406992709755897,-1.680929764176905,1.0259563279092312
1725629747322460200,2.370460205078125,0.6959807155691087,-3.040687254063785,-1.1630804870545863
1725629747332494300,2.380494384765625,3.84306834308207,-4.098805729909241,-3.0577614307224747
1725629747342528000,2.390528076171875,5.199381829994917,-4.739589897304773,-5.186265743312239
1725629747352562200,2.400562255859375,3.245160609860718,-4.066348398418724,-5.023824772080779
1725629747362596400,2.410596435546875,0.23837708670347926,-1.0609688968405127,-2.3727824400305746
1725629747372631300,2.42063134765625,-1.3052537462830542,-0.14175094216316939,0.31832769851386544
1725629747382665200,2.430665283203125,-1.087679209111631,-0.5109833368755877,2.468214406350255
1725629747392699100,2.44069921875,-0.40409021147340535,-0.11473726303130388,4.201796441045404
1725629747402733000,2.450733154296875,0.5190343952536582,-0.7671976935647428,3.015203560978174
1725629747412767200,2.460767333984375,1.287547701461613,-0.903495631019026,1.3099234916597604
1725629747422801200,2.47080126953125,1.2159640821106732,-0.3787365745082497,0.794259449622035
1725629747432835000,2.4808349609375,0.8554583069503306,-1.0655946569450199,0.4810866496533155
1725629747442869200,2.490869140625,0.25764380497038364,-2.477857848486304,0.9153735542088747
1725629747452903200,2.500903076171875,-1.7242212088927626,-4.126109331898391,1.2722259214282035
1725629747462937000,2.51093701171875,-1.5579825989440084,-3.2129420555621384,0.5814841294258832
1725629747472971300,2.52097119140625,-0.5081844999372959,-1.8497382246136664,0.2381079143732786
1725629747483005200,2.531005126953125,-0.04994593416899443,-1.4557763161838053,-0.5067302094757556
1725629747493039000,2.5410390625,0.24899580361247062,-1.0034365991957486,-1.3709241960674523
1725629747503073300,2.5510732421875,0.006170505328476429,-1.1101190044566989,-2.335591650277376
1725629747513107200,2.561107177734375,0.3341054056212306,-0.8915865820385516,-2.2669196805894374
1725629747523141000,2.57114111328125,1.3862905458949506,-0.21160686093866823,-1.0347235717326402
1725629747533176000,2.581176025390625,1.138410010048002,0.2561214177086949,0.00970657050013542
1725629747543210200,2.591210205078125,0.32262042727172374,0.524071731833741,0.3793208041369915
1725629747553244200,2.601244140625,0.08219400682300329,0.9575565262261777,0.1213303776860237
1725629747563278000,2.611278076171875,0.06476005694121122,1.3762128039948642,-0.514713609445095
1725629747573312300,2.621312255859375,-0.4150985122218728,1.111560435436666,-1.526533275452256
1725629747583346200,2.63134619140625,-0.4943339615002274,0.5787385570447892,-1.934399206072092
1725629747593380000,2.641380126953125,0.3269514422133565,0.5706047157540917,-1.8513865763425825
1725629747603414300,2.651414306640625,1.1090116277366875,0.27022264297120274,-1.2710638919115065
1725629747613448200,2.6614482421875,1.809424918925762,-1.0449257437299937,0.386270769405365
1725629747623482000,2.671482177734375,2.866092903701961,-1.2738611214146018,1.932597709608078
1725629747633516300,2.681516357421875,2.4049019178688527,-0.40538726554661986,1.3074538866758345
1725629747643550200,2.69155029296875,0.8346361759349703,0.44225028465017674,0.31597149077653885
1725629747653584100,2.701584228515625,0.04595072705298662,0.739488360318914,-0.8776286377042531
1725629747663618000,2.7116181640625,0.37072073357403273,-0.4275337770335376,-0.8268482985377311
1725629747673652200,2.72165234375,0.2958335426330566,0.09472281340332701,-0.07762158434092999
1725629747683686100,2.73168603515625,-0.38989685094803567,0.48423630932327355,-0.09738836108446121
1725629747693720000,2.741719970703125,-0.6513844718649983,0.44477165635395793,-0.5579512781471013
1725629747703754200,2.751754150390625,-1.1441035455144941,0.026814432516007215,-1.2963035471081732
1725629747713789200,2.7617890625,-1.8191314894258974,-0.4253087579278275,-0.8868208289414644
1725629747723823400,2.7718232421875,-2.159120984649658,-0.5911300923125818,0.27194237943589683
1725629747733857300,2.781857177734375,-2.1067514765955506,-0.6571961538184434,1.0450590877860784
1725629747743891200,2.79189111328125,-1.3702034805774688,-0.5978861059114337,1.5818056653410195
1725629747753925000,2.801925048828125,-0.45105070009082554,-0.601334273603931,0.7602075424164533
1725629747763959300,2.811959228515625,0.44344504739269613,-0.5361828792575747,-0.6532178247720003
1725629747773993200,2.8219931640625,0.5963447216883302,-0.46767084937170145,-1.1648662014275788
1725629747784027100,2.832027099609375,0.37606998564749955,-0.5681414674457163,-1.137625727802515
1725629747794061000,2.84206103515625,0.08744330565333366,-0.8832715389620512,-0.9361468776464462
1725629747804095200,2.85209521484375,-0.05073650002479553,-1.2813343799047172,-0.44564942556917664
1725629747814129200,2.862129150390625,-0.3269701469138264,-1.707248446781933,0.1259527767896652
1725629747824163000,2.8721630859375,-0.6313526144444942,-1.9759762480854988,0.7750953149467706
1725629747834197200,2.882197265625,-1.4373285130843518,-1.7535327897034585,0.7618576477110386
1725629747844231200,2.892231201171875,-1.3597278254009781,-1.3191234278120099,0.45258770039975643
1725629747854265000,2.90226513671875,-1.0423648802660406,-1.0690966737166046,0.25860066730380055
1725629747864299300,2.91229931640625,-0.5082148950755596,-0.6582023351863027,0.3745703947395086
1725629747874333400,2.92233349609375,0.11099369258880615,-0.1858473465863615,0.642097295820713
1725629747884368400,2.932368408203125,0.49795405169352885,0.1225239348521456,1.1660329071193933
1725629747894402600,2.942402587890625,0.683662647396326,0.18488478516452014,1.506130538892746
1725629747904436200,2.952436279296875,0.7120959840677679,0.207640624188818,1.2215087106257676
1725629747914470400,2.962470458984375,0.5815232923924922,0.5013260854098945,0.5479769966214895
1725629747924504600,2.972504638671875,0.5538486651338637,0.5339036457465961,0.2422258710861206
1725629747934538200,2.982538330078125,0.502818588989973,0.35028358328826725,0.790454796642065
1725629747944572400,2.992572509765625,0.58223158679232,0.13725417873319237,0.8173229298233985
1725629747954606600,3.002606689453125,0.48956528579369185,0.18264752763174474,0.6370552100002765
1725629747964640300,3.01264013671875,0.4077179004512727,0.2165847954817116,0.49045828911066053
1725629747974674400,3.02267431640625,0.3588239595532417,0.17754560138285158,0.4043424326688051
1725629747984708600,3.03270849609375,0.1926642600595951,0.06562719516456127,0.29213761072456834
1725629747994742300,3.0427421875,-0.12272577756717801,-0.016005013057217,0.2928349453389644
1725629748004776400,3.0527763671875,-0.14633403216972946,-0.09548632685542106,0.12596271366178988
1725629748014810600,3.062810546875,-0.3289303410708904,-0.22898447752334175,0.009296820655465126
1725629748024844300,3.07284423828125,-0.36750644770264623,-0.25325594527497886,-0.2125537863999605
1725629748034878500,3.08287841796875,-0.0042728550136089324,-0.35493944627009333,-0.7642173625797033
1725629748044912400,3.092912353515625,-0.15073022130206226,-0.8370930675677954,-0.6863268981695175
1725629748054946300,3.1029462890625,-0.09846008196920156,-1.34193264099136,-0.26627368614971636
1725629748064981500,3.1129814453125,0.14571765383705496,-1.5667831605151294,-0.3419885600864887
1725629748075015400,3.123015380859375,0.17488061995729803,-1.7024176656246184,-0.7421645207256078
1725629748085049300,3.13304931640625,-0.15360650739073753,-1.9722702331744133,-0.7407230897456407
1725629748095083500,3.14308349609375,-0.06592734715491533,-1.6204983840897678,-0.19445348156392572
1725629748105117400,3.153117431640625,0.02098170549124479,-1.2676532066851853,0.2514636550307274
1725629748115151400,3.1631513671875,0.5072679696142673,-0.4678634858669713,0.29629823753535744
1725629748125185500,3.173185546875,1.121970770291984,0.3731562536252662,-0.5804618006408214
1725629748135219500,3.183219482421875,0.6463713198781013,0.7988952927291393,-1.1442647274255753
1725629748145253400,3.19325341796875,0.11725041489601135,0.924277430023998,-1.0105524225503206
1725629748155287600,3.20328759765625,0.08597761701494455,1.1058917421504855,-0.5494815559655427
1725629748165321500,3.213321533203125,-0.14718348860591648,0.9904657662026584,0.09743512283563613
1725629748175355400,3.22335546875,-0.09129179777503013,0.7970560946032405,0.48996787524521346
1725629748185389600,3.2333896484375,0.26951953620314595,0.4905797235332429,0.5264607458621263
1725629748195423500,3.243423583984375,0.5237631773412227,0.07526588806025683,0.4284679891437292
1725629748205457400,3.25345751953125,0.7744469340406358,-0.08374660655986517,0.2703267609328031
1725629748215491600,3.26349169921875,0.9715890701666474,-0.14492241180613635,-0.08220189786851406
1725629748225525500,3.273525390625,0.9429027816474437,-0.3298110328955576,-0.14909692101180552
1725629748235560400,3.283560546875,1.1006515034094453,-0.41127413162812587,-0.2609562905192375
1725629748245594600,3.2935947265625,1.1238587759956717,-0.5798091088857501,-0.5262848047733306
1725629748255628300,3.303628173828125,0.9016111324466765,-0.7741615412279963,-0.6818482914507389
1725629748265662500,3.313662353515625,0.7564508202314376,-0.7780695815172046,-0.7499380773365497
1725629748275696600,3.323696533203125,0.41340909783020613,-0.6665862057153135,-0.4516933819085359
1725629748285730300,3.333730224609375,0.18661314332708714,-0.7955897483777254,-0.015298691418766974
1725629748295764500,3.343764404296875,0.03499517940506339,-0.7669217261675745,0.0007072714865207671
1725629748305798700,3.353798583984375,-0.4045158895395696,-0.5987417728926986,-0.31343934195041656
1725629748315832300,3.363832275390625,-0.8113350875854491,-0.47756987370401616,-0.6516168193161487
1725629748325866500,3.373866455078125,-0.8960697188019752,-0.3736370959447697,-0.7901087596833706
1725629748335900700,3.383900634765625,-0.6544727932691574,-0.28628051872681826,-0.8167857542067766
1725629748345934300,3.393934326171875,-0.5476316903151571,-0.13539941771198064,-0.719592038911581
1725629748355968500,3.403968505859375,-0.7682838813662528,-0.09453125462029129,-0.47616614438593385
1725629748366002400,3.41400244140625,-1.0205845717430113,0.07623356404863298,0.07155658521354198
1725629748376036400,3.424036376953125,-0.9133318192481994,0.3968597487632185,0.8338742516517639
1725629748386070500,3.434070556640625,-0.7890987058579921,0.8365908171340822,1.6350433345317839
1725629748396104400,3.4441044921875,-0.6511959635555744,1.2910808440238237,1.972614662697911
1725629748406138400,3.454138427734375,-0.2652349907517433,1.7210400946386157,1.8473691573947666
1725629748416173600,3.464173583984375,-0.03262333570718765,2.587404264876246,1.2020172436922787
1725629748426207500,3.47420751953125,-1.0046307774163783,2.0009844326138495,0.08189443935453891
1725629748436241400,3.484241455078125,-0.9694004010159522,1.4054517579607664,-0.2694189984381199
1725629748446275600,3.494275634765625,-0.3466378471970558,1.0161291267041117,-0.8576146082013845
1725629748456309500,3.5043095703125,0.13470306947827337,0.9132417298119515,-1.276143387132883
1725629748466343400,3.514343505859375,0.04816577275395393,0.8176220589004457,-0.7765338233172893
1725629748476377600,3.524377685546875,-0.19403905554413794,0.6069935414746404,-0.04765022444725037
1725629748486411300,3.534411376953125,-0.36704357943125065,0.46281427618600424,0.04986556240916252
1725629748496445400,3.544445556640625,-0.7000865434527397,0.3284775558020919,0.5051292040199041
1725629748506479600,3.554479736328125,-0.6707599112033844,0.25251447925791143,1.2391916668325662
1725629748516513300,3.56451318359375,-0.1807084493279457,0.24904322295077144,1.4283563943386077
1725629748526547500,3.57454736328125,-0.017370821517705918,0.3883678147498518,1.789707826542854
1725629748536581600,3.58458154296875,-0.7270388477861881,0.4976080147348344,2.9281700051695108
1725629748546615300,3.594615234375,-1.9627802280344069,0.6429554470200092,3.6119583247721194
1725629748556649500,3.6046494140625,-0.7515667014516889,0.3932114919213578,0.13480419176518915
1725629748566683600,3.61468359375,1.251779053466022,0.21330802056705578,-2.950424507075548
1725629748576717300,3.62471728515625,-1.143315756137669,0.6871032893694937,-0.4431242910057306
1725629748586751500,3.63475146484375,0.33928573086857794,0.5715185061307624,-1.1869161206722258
1725629748596786400,3.644786376953125,2.835433853805065,0.1513345164712984,-2.4895301661014555
1725629748606820400,3.6548203125,3.581080371427536,-0.056864590983651576,-3.317153540664911
1725629748616854500,3.6648544921875,3.416480176335573,0.22190628276541827,-3.6449627687513826
1725629748626888400,3.674888427734375,2.024275584091246,0.7157672199264168,-2.869594482082128
1725629748636922400,3.68492236328125,-0.19008301139473913,0.5644690625432879,-1.0176771598637104
1725629748646956500,3.69495654296875,-1.730078410488367,0.4075523711586371,0.9909919820338488
1725629748656990500,3.704990478515625,-2.3735323816150427,0.40585634436309337,1.7565543294817207
1725629748667024400,3.7150244140625,-2.0609949569404122,0.2787630557687953,1.0972264973968266
1725629748677058600,3.72505859375,-1.1262348574772476,0.2156409022277221,-0.14365034604370594
1725629748687092500,3.735092529296875,-0.28700609305500985,0.26351671559177337,-0.7271563366860151
1725629748697126400,3.74512646484375,0.37752968293651934,0.3430343062797561,-0.43440030180215833
1725629748707160600,3.75516064453125,0.8039400088980794,0.46568745700214054,-0.2590571788996458
1725629748717194500,3.765194580078125,0.6073002693362534,0.5615779807442799,-0.22937048116624353
1725629748727228400,3.775228515625,0.003983808939158917,0.697701548012346,-0.050714872714877124
1725629748737262600,3.7852626953125,-0.2775429759219289,0.6733074037291109,-0.15564005904495715
1725629748747296300,3.795296142578125,-0.2822594830498099,0.6197061619229615,-0.651058600911498
1725629748757330400,3.805330322265625,-0.6931190425276755,0.7402198163986206,-0.8530132518857717
1725629748767364600,3.815364501953125,-1.076449374566972,1.0793508681621402,-0.9024071051299571
1725629748777399600,3.825399658203125,-1.4731684727504848,1.6649065578758715,-1.791699877142906
1725629748787433500,3.83543359375,-1.232119828750193,1.752926202112436,-2.3252795150995254
1725629748797467400,3.84546728515625,-0.47860535423159595,1.4370514497086404,-1.8406454020977019
1725629748807501600,3.85550146484375,0.32633374870643017,1.0049635895673186,-1.075522615110874
1725629748817535500,3.865535400390625,1.0831937342606484,0.7161797462500631,-1.0078016625374555
1725629748827569400,3.8755693359375,0.8842994937703013,0.5472325349297374,-0.8538023564368485
1725629748837603300,3.885603271484375,-0.05005933141559362,0.3753954473868012,-0.7391536484718322
1725629748847637500,3.895637451171875,-0.74711220626086,0.21440759757310152,-0.963973042204976
1725629748857671400,3.90567138671875,-1.0253551471456885,0.063905339808017,-0.8136959714978933
1725629748867705300,3.915705322265625,-1.16688777038306,0.06216127261966466,-0.36442426377832887
1725629748877739000,3.925739013671875,-1.4317010285913943,0.033967589922994375,-0.006194178465008735
1725629748887772700,3.935772705078125,-1.3579333431996405,-0.2652551567569375,0.5691361045062542
1725629748897806800,3.945806884765625,-1.058816102720797,-0.5836158807575702,1.027368532794714
1725629748907841000,3.955841064453125,-0.8218784011706709,-0.6331295609891414,1.3388701846808195
1725629748917874700,3.965874755859375,-0.3324570538923144,-0.26434344873949883,1.4940385345607996
1725629748927908900,3.975908935546875,-0.30621319008916614,0.12560644757002593,1.1964344751238822
1725629748937943000,3.985943115234375,-0.02109510273784399,0.41338352499753234,1.347511756297946
1725629748947976700,3.995976806640625,0.43300650935620066,0.7154774431996047,1.7059429171413183
1725629748958012000,4.006011962890625,0.5786015597268939,0.6261138370081782,1.824748160263896
1725629748968045800,4.0160458984375,0.2843452032826841,0.6799570708766579,1.5978408543407916
1725629748978079700,4.026079833984375,-0.047829964928328986,1.1216500139050185,1.21225397554636
1725629748988114000,4.036114013671875,0.18180764274150132,1.1637404122680426,0.7133972759246826
1725629748998147800,4.04614794921875,0.3627896483138203,1.1351670826040208,0.4753144959926605
1725629749008181800,4.056181640625,0.24836130510121582,0.8861134113244712,0.6280266848921775
1725629749018216000,4.0662158203125,0.225192026437819,0.5341708818480372,0.9752163207530975
1725629749028249900,4.076249755859375,0.11009104466065764,0.4289655634023249,1.1902256836116314
1725629749038283800,4.08628369140625,-0.10729805294126271,0.28752675592824817,1.1920026301562785
1725629749048318000,4.09631787109375,-0.17150734413191676,0.09367825452014804,1.1351046848922968
1725629749058351900,4.106351806640625,-0.20812252595424652,-0.13083674943894147,0.9081377577364445
1725629749068385800,4.1163857421875,-0.1601566596865654,-0.4381494982678443,0.4012631713539362
1725629749078420000,4.126419921875,-0.45277387062162155,-0.48411724952086804,-0.15410978073775766
1725629749088454000,4.136453857421875,-0.7336708331465721,-0.22187289195246993,-0.6053004738211631
1725629749098487800,4.14648779296875,-0.49554041468054055,0.12180837046131492,-1.1276625521928072
1725629749108522000,4.15652197265625,-0.9169574623994529,0.3094103786952793,-1.5030413407057523
1725629749118556000,4.166555908203125,-1.1458718703612685,0.443897978791967,-1.4919769258558748
1725629749128590800,4.1765908203125,-0.8548860600203275,0.3934175724200904,-1.2092162152856587
1725629749138625000,4.186625,-0.31449528074413535,0.16927264388240873,-0.9923083253294229
1725629749148658700,4.19665869140625,0.38885903233289715,0.10596249348856508,-0.6970078666597604
1725629749158692900,4.20669287109375,0.8660076118849217,-0.011113953080028294,-0.7483277195304632
1725629749168727000,4.21672705078125,1.0918084178708494,0.008275185990147291,-0.9280436506897211
1725629749178760700,4.2267607421875,1.0215735827803611,0.10607399103902279,-0.957535118111968
1725629749188795000,4.236794921875,0.8318306169949471,0.148149557159096,-1.0793985797613859
1725629749198829000,4.2468291015625,0.3445592873573303,0.021196535552013663,-0.9713906249850988
1725629749208862700,4.25686279296875,0.06696735772714019,-0.009227226017974316,-0.7257704352855682
1725629749218897000,4.26689697265625,0.052639995558559895,0.08886247000256553,-0.6632862143218516
1725629749228931000,4.27693115234375,-0.29468291129320856,0.11608292375290766,-0.3829366565465927
1725629749238964700,4.28696484375,-0.35472310010567304,0.19393740353425964,0.03295709770619869
1725629749248999000,4.2969990234375,-0.1302490126788616,0.3319849794011563,0.17598901959061622
1725629749259033000,4.307033203125,0.020871815375983715,0.3754788148213178,0.17651041311621665
1725629749269066800,4.317066650390625,0.4966451610520482,0.23899165667155756,-0.06486848575174808
1725629749279101000,4.327100830078125,0.9145590229555964,0.004208288177684881,-0.2957984713196754
1725629749289135000,4.337135009765625,0.8165610055401921,-0.2602081207667477,0.1597206063568592
1725629749299168800,4.347168701171875,0.782722448824346,-0.421067247900553,0.38871173281669613
1725629749309204000,4.357203857421875,0.5694356719747186,-0.5376804243389517,-0.043079263269901275
1725629749319238000,4.36723779296875,0.07371507842168211,-0.4540687327377498,-0.5488923579007386
1725629749329271800,4.377271728515625,0.023611469472944735,-0.41871809095852075,-0.6846265239924192
1725629749339306000,4.387305908203125,0.1045003850467503,-0.47104843604601915,-0.755799078324437
1725629749349340000,4.39733984375,-0.11770663423091172,-0.4292422249192372,-0.9450240115851163
1725629749359373800,4.407373779296875,-0.535551522551477,-0.27942100822087373,-0.90040628670156
1725629749369408000,4.417407958984375,-0.7940951989710331,0.0115973526827991,-0.5555202516078949
1725629749379442000,4.42744189453125,-1.0244302873857318,0.4800682663910091,-0.08364157528281212
1725629749389475800,4.437475830078125,-1.2759656924784182,0.748393185982108,0.20548340962231157
1725629749399510000,4.447510009765625,-1.278351710832119,1.0903591689106076,0.3903261822760105
1725629749409543700,4.457543701171875,-1.0124936197459697,0.8297998418197036,-0.024183424142003057
1725629749419577900,4.467577880859375,-0.47923313074111934,1.0934032858468592,-0.11246610322892665
1725629749429612000,4.477612060546875,-0.2794618151552975,0.9278616451863199,0.010405658680200576
1725629749439645700,4.487645751953125,-0.09745879597216844,0.42522915335297584,0.04606032490730285
1725629749449680000,4.497679931640625,-0.27120661250725386,0.9645138710834086,0.5151081617206335
1725629749459714000,4.507714111328125,-0.4922618314012885,0.8527304894216358,0.4037158252030611
1725629749469747700,4.517747802734375,-0.6194084941506386,1.0203212446317076,0.4036240552663803
1725629749479782000,4.527781982421875,-1.0981482884168625,0.4832337446846068,-0.23201602723896503
1725629749489816000,4.537816162109375,-0.8311714224338531,0.9322915173925459,0.5493839408099651
1725629749499850800,4.547850830078125,-0.1714442157678306,0.6655242025069892,0.6949193699479103
1725629749509885000,4.557885009765625,-0.2290894722677767,-0.04524893545918166,0.07209259178638458
1725629749519918800,4.5679189453125,-0.13167320026308296,-0.22421755538247523,0.05431669659912586
1725629749529952800,4.577952880859375,-0.5711236250616609,0.010729045415669679,0.4669038105219602
1725629749539987000,4.587987060546875,-0.9517775774985552,-0.06810615249872207,0.5195721553921699
1725629749550020900,4.598020751953125,-1.1060767433285712,0.2823376628525555,0.5846914010345935
1725629749560054800,4.6080546875,-1.0703555877365172,0.3804212396595627,0.42415655568540095
1725629749570089000,4.6180888671875,-1.0103881718993186,0.38783546143881975,0.1691407611310482
1725629749580123000,4.628122802734375,-0.7408870481356978,0.4650046258371323,0.06571370440423488
1725629749590156800,4.63815673828125,-0.3628071839705109,0.6573603314042091,0.13505261356830597
1725629749600191000,4.64819091796875,0.5948093288145959,0.8140618822008371,0.050208676758408545
1725629749610225000,4.658224853515625,1.4075026991412043,0.8485685474365949,-0.11784312009215354
1725629749620258800,4.6682587890625,1.7979435938380657,0.6810441354610025,-0.37942075738012787
1725629749630293000,4.67829296875,2.0377605040863154,0.6574300356395543,-0.6419067416846752
1725629749640327000,4.688326904296875,1.8825003842696546,0.7000146472603083,-0.7760942628562449
1725629749650360800,4.69836083984375,1.3158544891439377,0.6672304219029843,-0.727592974537611
1725629749660395000,4.70839501953125,0.6901333047151565,0.5429624929277226,-0.49516719745397564
1725629749670428700,4.7184287109375,0.2290311662092805,0.40117202247176315,-0.1837409488916397
1725629749680464000,4.7284638671875,0.13770166677236556,0.3419864777272567,-0.08689736220836639
1725629749690497800,4.738497802734375,-0.20739508846253155,0.11483658608677796,-0.10101941106319427
1725629749700532000,4.748531982421875,-0.5186018490552902,-0.17367365532033144,-0.0855547154277563
1725629749710566000,4.75856591796875,-0.7326055420026183,-0.42570400432310995,-0.0679746350735426
1725629749720599800,4.768599853515625,-1.0203098464548588,-0.7514503815956414,0.14996318245232104
1725629749730634000,4.778634033203125,-0.7835800885669887,-0.892304155723378,-0.12086159113049506
1725629749740668000,4.78866796875,-0.4854495210379362,-0.7759565348859876,-0.5433177726387978
1725629749750701800,4.798701904296875,-0.34316476425901055,-0.5871348121313378,-0.5952087033957243
1725629749760735700,4.80873583984375,0.1836652533069253,-0.09231152361105195,-0.6846236013829707
1725629749770770000,4.81877001953125,0.5027446469709277,0.1678884960476309,-0.8312339662760496
1725629749780803800,4.828803955078125,0.8108838366866111,0.2657033754484728,-0.8649901054054498
1725629749790837800,4.838837646484375,1.157032731322944,0.4110157729528844,-1.078523550492525
1725629749800872000,4.848871826171875,0.762101101078093,0.5365658872257918,-1.377640937101841
1725629749810905900,4.85890576171875,-0.09439823935776949,0.9695654553845524,-2.1033599344611167
1725629749820939800,4.868939697265625,-0.2749322089016437,1.4608663327991962,-1.6571569666624069
1725629749830974000,4.878973876953125,-0.023901976852118968,1.334357675692439,-0.8843173216879368
1725629749841007900,4.8890078125,-0.2334519052609801,1.1172309553537516,-0.5171709394693375
1725629749851041800,4.899041748046875,-0.049720600980520245,1.3477999255895614,-0.5359031124681234
1725629749861076000,4.909075927734375,-0.17990210138112306,1.5427270160146056,-0.6721463971257209
1725629749871110000,4.91910986328125,-0.9685819973051547,1.6615248064830899,-0.8368459609389305
1725629749881145000,4.92914501953125,-1.3679894577898084,1.6132435906559228,-1.0808265667378902
1725629749891179000,4.939178955078125,-1.3041571832180023,1.3124500875279306,-1.0094909307986497
1725629749901213200,4.949213134765625,-1.3326596396028996,0.8537895700205117,-0.8175298505723476
1725629749911247000,4.9592470703125,-1.3696201277315616,0.21169358937405047,-0.3389636593073606
1725629749921281000,4.969281005859375,-1.0432777573272585,-0.6723909464713186,0.5167553444057703
1725629749931315200,4.979315185546875,-0.43575069349780676,-1.5094580758802592,1.5149305159419775
1725629749941349000,4.98934912109375,-0.017179098337888717,-1.919647042620182,2.0071488004624842
1725629749951383000,4.999383056640625,0.023294220217317342,-2.0795964892968533,1.4565572374284266
1725629749961417200,5.009417236328125,-0.013427636849880218,-2.3763866020023823,1.2769587951689958
1725629749971451100,5.019451171875,-0.3702233054459095,-1.983301768667996,1.7066051804423332
1725629749981485000,5.029485107421875,-0.49494244878739113,-1.2174943604178725,1.8903946446508169
1725629749991519200,5.039519287109375,-0.5494526221320033,-0.5153773340508342,1.4095885655045508
1725629750001553200,5.04955322265625,-0.5827481580123305,-0.1282040628477931,0.9199076905071735
1725629750011587000,5.059587158203125,-0.10353607005923986,0.16743264203891156,0.8908341562360524
1725629750021621200,5.069621337890625,0.1310131289191544,-0.12045958620086311,1.3268687812417745
1725629750031655200,5.0796552734375,-0.19984028916880486,-0.11840820662900804,1.5769775145322082
1725629750041689000,5.089689208984375,-0.2326604626223445,-0.6292186711557209,1.2048603581637143
1725629750051723000,5.099722900390625,0.04147562746554613,-1.2162744632340967,1.1715449485391378
1725629750061758000,5.109758056640625,0.16690788751244545,-1.0005126015078276,1.0890408528536557
1725629750071792000,5.119792236328125,0.2057178029000759,-0.2501974344871938,0.7889221802473068
1725629750081826300,5.129826416015625,0.06530614651665091,0.17559607475027442,0.8482347854375839
1725629750091860000,5.13985986328125,0.017623627234995363,0.024211554257944225,1.0792390052855014
1725629750101894100,5.14989404296875,-0.08000117295384407,-0.2992318798344582,1.4960522124707698
1725629750111928300,5.15992822265625,0.0009799509480595589,-0.608671192363277,1.72891638097167
1725629750121962000,5.1699619140625,0.2206798097103834,-0.8106368761882186,1.6934183666110039
1725629750131996200,5.17999609375,0.352514045754075,-1.0535359703607856,1.3104478077948092
1725629750142030000,5.190030029296875,0.6905106135949493,-1.2009189270615577,0.5764069722920656
1725629750152064000,5.20006396484375,1.039913395460695,-0.8944446748834103,-0.26514965055584905
1725629750162098200,5.21009814453125,0.4816650340631604,-0.2092046586351469,-0.9778601132601499
1725629750172132000,5.220132080078125,-0.2671932852126658,0.42512404901068657,-1.4951187310129403
1725629750182166000,5.230166015625,-0.7686701042048633,0.887864931166917,-2.052555045375228
1725629750192200200,5.2402001953125,-1.2182508778735994,1.100313868952915,-2.238173478576541
1725629750202234000,5.250234130859375,-1.236297406695783,1.042170234476775,-1.9435422974705694
1725629750212268000,5.26026806640625,-0.3496495962336659,1.0268172555875033,-1.6543039153188466
1725629750222302200,5.27030224609375,0.5606561531916261,0.246992062574625,-1.4023136060655117
1725629750232336100,5.280336181640625,1.592473628219217,-0.35601803528703746,-1.1099123759686946
1725629750242371000,5.29037109375,2.1257237419605253,-0.4725041512796655,-0.8540601305902004
1725629750252405200,5.3004052734375,1.7344439122214912,-0.5188989688383415,-0.6845160493552684
1725629750262439000,5.31043896484375,1.020950044054538,-0.46677273148819803,-0.6670452745944261
1725629750272473000,5.32047314453125,0.20073679961711166,-0.4598337260052561,-0.49117900460064406
1725629750282507300,5.33050732421875,-0.49570934150665996,-0.5069957285441458,-0.10527297685444355
1725629750292541000,5.340541015625,-0.3247195915080607,-0.48347197388727214,0.1457867735505104
1725629750302575000,5.3505751953125,-0.19416648131608963,-0.5833315108582378,0.06659165628254413
1725629750312609300,5.360609375,0.09871668707877397,-0.7822481093108653,-0.06768412769436837
1725629750322643000,5.370642822265625,0.5913958671092987,-0.9503488598696886,-0.036111762344837185
1725629750332677000,5.380677001953125,0.4513657573893666,-0.9408410998772829,0.29765491284132
1725629750342711300,5.390711181640625,0.4447288035929203,-1.0109472670868038,0.4473118058234453
1725629750352745000,5.400744873046875,0.7169733808457851,-1.0804466275095939,0.1734761599868536
1725629750362779100,5.410779052734375,0.3955865870222449,-1.0278154728446156,-0.2214461179077625
1725629750372813300,5.420813232421875,0.07004676517248153,-1.0495734964706003,-0.7460159354567527
1725629750382847000,5.430846923828125,0.3717223118320107,-1.0154306230459362,-1.134876721355319
1725629750392881000,5.440880859375,0.20045038389116523,-0.8342249647855758,-1.2377180871486664
1725629750509921500,5.557921630859375,0.05663198780417442,0.8605284498214721,0.2427098552107811
1725629750519954400,5.567954345703125,0.22730068915486334,0.4296224198758602,-0.19541677363812923
1725629750529988600,5.577988525390625,0.5309107110083103,0.19739713380038737,-0.4886375034242868
1725629750540022300,5.588022216796875,0.7047294008225202,0.1387976453155279,-0.4374827779874205
1725629750550055400,5.598055419921875,0.5718915406942368,-0.11892857724130153,-0.09885087138507515
1725629750560089300,5.60808935546875,0.28463176513910293,-0.31990941474735735,0.06970920378118753
1725629750570122500,5.61812255859375,0.031578210568428036,-0.33375615379214285,0.07343801504597067
1725629750580156700,5.62815673828125,-0.12997837904393672,-0.21405951478779314,-0.1992870392002165
1725629750590190300,5.6381904296875,-0.07641045498549938,-0.03105097182393074,-0.3667772931778803
1725629750600223500,5.648223388671875,0.16816928575038909,0.18561784867942333,-0.24848628318775443
1725629750610257400,5.65825732421875,0.07736907088458538,0.3902595467805862,0.061420171928778286
1725629750620291600,5.66829150390625,-0.1634942796766758,0.32987434392273424,0.44460908620338885
1725629750630324500,5.678324462890625,0.6663152067542075,0.45995589108020063,0.07684060829738154
1725629750640358400,5.6883583984375,0.9995534741520881,0.5783841175839305,0.027663959734141826
1725629750650391300,5.698391357421875,1.1466998456180095,0.32480653913915153,0.038485852798726405
1725629750660425500,5.708425537109375,1.4441753102391957,-0.05013794960975647,-0.06950290408674627
1725629750670459400,5.71845947265625,1.8645213677257297,-0.05071516497582197,-0.4203687077097594
1725629750680492300,5.7284921875,1.4602128373265266,0.1003182770565152,-0.1585203271890059
1725629750690526500,5.7385263671875,0.809559894606471,0.21145020907223222,0.6450101145274937
1725629750700560400,5.748560302734375,0.339738735333085,0.659348582611978,0.776916685155034
1725629750710593500,5.758593505859375,-0.20379355683922767,0.9561296352282166,0.6902581001386046
1725629750720627500,5.76862744140625,-1.1669465148329734,0.8945397327557205,1.068787315506488
1725629750730661400,5.778661376953125,-1.9345897602081297,0.8437123395770788,1.1468498485479504
1725629750740694500,5.788694580078125,-2.2491987304598093,0.7031956153839826,0.40402160321660335
1725629750750728400,5.798728515625,-2.632256383037567,0.6003671090722084,-0.21394195282272993
1725629750760761600,5.80876171875,-3.9588130295902486,0.7018436162531375,0.3153364808086306
1725629750770795300,5.818795166015625,-5.560732093155384,-0.30809944222718477,1.289897771719098
1725629750780829400,5.828829345703125,-3.8237592469781636,0.5810913307160138,1.058172544120252
1725629750790862600,5.838862548828125,-0.6241285084098577,2.3141502183198925,0.4776444002449512
1725629750800896500,5.848896484375,3.553479247796535,2.6126599944248796,0.444598053352721
1725629750810930400,5.858930419921875,5.935657292681932,3.107641313917935,0.3554759277669713
1725629750820963300,5.86896337890625,0.8546721250087023,2.2660089954853055,1.8863170199483632
1725629750830997500,5.87899755859375,-0.7639163338065147,1.6829337974756955,1.9711979277677834
1725629750841030400,5.889030517578125,-1.2067179687291383,0.8471519586369395,0.7859752400752157
1725629750851064300,5.899064208984375,-1.3457406549721955,0.9131792590349912,-0.06604134718971326
1725629750861098500,5.909098388671875,-1.8998960479676723,0.8174585389018059,-1.4214812478721142
1725629750871131400,5.91913134765625,-1.9564152230471372,0.9147799722298979,-2.841688822546601
1725629750881165600,5.92916552734375,-1.4154057273507117,1.1469438835069536,-3.606268880958855
1725629750891199500,5.939199462890625,-0.41416999920010567,0.7802104660034179,-2.910833670443296
1725629750901232400,5.949232421875,0.7478951733320951,0.4728586272731423,-2.2334791832804677
1725629750911266600,5.9592666015625,1.1883452766925096,0.09744505970776081,-1.9406307939380407
1725629750921300500,5.969300537109375,0.28848493343591686,-1.5816943139210342,-1.0128265049621463
1725629750931333600,5.979333740234375,-0.8728443260371684,-1.7392302697151898,-0.49449280532374973
1725629750941367300,5.9893671875,-1.9468109438776968,-0.7277107556983828,-0.4499222805827856
1725629750951400400,5.999400390625,-2.2730980769634246,0.1325043903902173,-0.5965612139832228
1725629750961434600,6.0094345703125,-1.509502061152458,0.9607295302391051,-0.351806335876137
1725629750971468500,6.019468505859375,-0.6215016670376062,0.9012596886605024,0.45765324016101655
1725629750981501700,6.029501708984375,0.12716332162320612,0.5373872135460377,0.39732451673075553
1725629750991535400,6.039535400390625,1.2483370963186025,0.15004472325593232,-0.37615240323394533
1725629751001569500,6.049569580078125,1.9844389560043811,-0.5991849135503172,-0.21232668137950822
1725629751011602400,6.0596025390625,1.9342904850006102,-1.1266890309855342,0.23685975920939817
1725629751021636600,6.06963671875,1.0532459013730286,-1.025236781463027,0.21519445536816492
1725629751031670500,6.07967041015625,0.06161152978241443,-0.6552089985892177,-0.30254622854683544
1725629751041703400,6.089703369140625,-0.2540028181195259,-0.5607181125119328,-0.8635953631114214
1725629751051737600,6.099737548828125,0.03678162443041801,-0.5487962040498853,-1.2913744201429187
1725629751061770500,6.1097705078125,0.41353520842790603,-0.5749482979163527,-1.5287763782039283
1725629751071804400,6.119804443359375,0.4909726683735847,-0.4941898768544197,-1.2925943173266947
1725629751081838600,6.129838623046875,0.9024082741737365,-0.11077245105355978,-0.8123349122777581
1725629751242376400,6.29037646484375,1.0502005423277616,0.8349600010618567,-0.10696768847573548
1725629751252410400,6.300410400390625,-0.01511982772052288,0.21446663428395984,-0.009421104622259735
1725629751262443500,6.310443603515625,-0.7081453467458486,-0.5663268923044205,0.1533594372944906
1725629751272477400,6.3204775390625,-0.7400438753098249,-0.8805436483681202,-0.3297180573824793
1725629751282511400,6.330511474609375,-0.21900164736509323,-0.6720557962328195,-1.15260841207467
1725629751292544500,6.34054443359375,0.11786767001152038,-0.457545615068078,-1.424498111475259
1725629751302578400,6.350578369140625,0.036757074511051174,-0.3883616042047739,-1.1393185031950472
1725629751312612600,6.360612548828125,0.0907049377977848,0.013933248284459113,-0.7567259839110076
1725629751322645500,6.3706455078125,0.5195867684394121,0.57936406853199,-0.42209918476417657
1725629751332679400,6.380679443359375,0.8299789977788925,0.8583966984897852,-0.0005977558305952698
1725629751342713600,6.390713623046875,1.1101397549837828,0.8534487206935882,0.3879534617953002
1725629751352746500,6.40074658203125,1.256885144433379,0.6549801582694054,0.5482795232320204
1725629751362780700,6.41078076171875,1.2368366281390188,0.37775370095074173,0.46005306784436106
1725629751372813600,6.4208134765625,0.9881967983573675,0.25452771877646446,0.2173684566726908
1725629751382847500,6.430847412109375,0.5925251634001731,0.24081132811307907,-0.03553587128617801
1725629751392881400,6.44088134765625,0.22464403716623782,0.26445348498523236,-0.3588009074712172
1725629751402914600,6.45091455078125,-0.062462009131908414,0.22245032651424407,-0.6642174307573586
1725629751412948700,6.46094873046875,-0.13492635684013365,0.12237842543423175,-0.9054837360963225
1725629751422982400,6.470982421875,-0.14147826270163058,-0.0053355158090591425,-1.0627804763071238
1725629751433015600,6.481015625,-0.07439619255363941,-0.06238192963302135,-1.0114921876184642
1725629751443049500,6.491049560546875,0.13259995971918107,-0.04371113143265247,-0.8340397444117814
1725629751453083400,6.50108349609375,0.34727789866626263,-0.024876667103171348,-0.651469958191365
1725629751463116300,6.5111162109375,0.5080389539867639,-0.07774141132831573,-0.551377744975686
1725629751473150500,6.521150390625,0.4239204088419676,-0.14124094681441782,-0.5123830110730603
1725629751483184600,6.5311845703125,0.25702830342054367,-0.11280571044683456,-0.4316848322983831
1725629751493217500,6.541217529296875,0.12896949426233767,-0.03326046456694603,-0.4142805103698745
1725629751503251500,6.55125146484375,-0.04852700728178024,-0.02675356689095497,-0.42139834301844237
1725629751513285400,6.561285400390625,-0.3793587980598211,-0.07320493694245815,-0.5099833295201882
1725629751523318500,6.571318603515625,-0.8030559195399284,-0.09519523495435714,-0.7026572707235813
1725629751533352400,6.5813525390625,-0.9731599727451801,0.06464227578043938,-0.8779235289976001
1725629751543385600,6.591385498046875,-0.9930997679680585,0.2219078902006149,-0.8339861875936389
1725629751553419500,6.60141943359375,-0.910083631107211,0.29499183111190797,-0.6661996906157582
1725629751563453400,6.611453369140625,-0.6411772583663463,0.30285189696252346,-0.4570424878515303
1725629751573486600,6.621486572265625,-0.3848942203551531,0.29044366628825663,-0.21686310096643863
1725629751583520500,6.6315205078125,-0.22078210104107857,0.2606137606918812,-0.03123440209943801
1725629751593554400,6.641554443359375,-0.11937456744313239,0.2506201899439096,-0.02675944864246994
1725629751603587300,6.65158740234375,0.010251344901323317,0.2562023739904165,-0.059911009474843735
1725629751613621500,6.66162158203125,0.10403028331696987,0.2123404359102249,0.015064298141002654
1725629751623655700,6.67165576171875,0.22020342437028884,0.1187596504151821,-0.06204641406834125
1725629751633688600,6.6816884765625,0.5852233159542083,0.07782792056798934,-0.2100606178773567
1725629751643722500,6.691722412109375,0.7833604544669389,0.011142156261205672,-0.18733210525140165
1725629751653756400,6.70175634765625,0.5791986488372087,-0.06974164474606513,-0.07220503918491304
1725629751663789600,6.71178955078125,0.3781909233242273,0.015762801799178123,0.04092716326992959
1725629751673823500,6.721823486328125,0.2335106497108936,0.16355331638753412,0.15613701224904505
1725629751683857400,6.731857421875,0.05321662640273571,0.24173896435201167,0.2509016372337937
1725629751693890600,6.741890625,-0.16356208421587942,0.3334790904164314,0.2917986976264044
1725629751703924500,6.751924560546875,-0.25400749429464337,0.3878770355582237,0.274714657160826
1725629751713957600,6.76195751953125,-0.29282208585739133,0.39442251167893405,0.185070151668787
1725629751723991300,6.7719912109375,-0.2966267388373613,0.3574406885012984,0.0994116105403751
1725629751734025500,6.782025390625,-0.2753302683085203,0.3394447208225727,0.09246054929345845
1725629751744058600,6.79205859375,-0.3227309019088745,0.3383148400098085,0.129632597813569
1725629751754092500,6.802092529296875,-0.3496995728552341,0.38538317291587587,0.08531370974611491
1725629751764126500,6.81212646484375,-0.2833376336753368,0.4156988162025809,-0.015842077580466865
1725629751774159400,6.822159423828125,-0.16218611968755722,0.340827991874516,-0.046647075286693866
1725629751784193500,6.832193603515625,-0.07689443911015988,0.25541677657067774,0.003908478680625558
1725629751794227700,6.842227783203125,0.03946691799163818,0.1683604244083166,-0.05179433851465583
1725629751804260600,6.852260498046875,0.16323358291387557,0.10608721584677695,-0.0933242899833247
1725629751814294500,6.86229443359375,0.1262193187713623,0.12807283768355845,-0.0036176425078883767
1725629751824328400,6.872328369140625,-0.009832827228307724,0.18987989003807304,0.07860906100831926
1725629751834361600,6.882361572265625,-0.03153729403614998,0.22706454231142997,0.12047478376999497
1725629751844395500,6.8923955078125,0.056412207573652264,0.23700638287216425,0.11982779110334812
1725629751854429400,6.902429443359375,0.23019348798692224,0.168460377651453,0.06256572523470967
1725629751864462300,6.91246240234375,0.43329847804009913,0.0402744349822402,0.06376377591285855
1725629751874496500,6.92249658203125,0.4903150812476873,-0.025111937163770196,0.2428517113668844
1725629751884530200,6.9325302734375,0.42347208055257796,0.023143851961195467,0.34421065658275035
1725629751894563000,6.94256298828125,0.3003822919785976,0.08420593116730452,0.3014927374385297
1725629751904597000,6.952596923828125,0.13628186310231685,0.14552666130959988,0.3114701973019168
1725629751914630100,6.962630126953125,0.04302665629982948,0.12446779892891645,0.36666736653000115
1725629751924664000,6.9726640625,-0.02458031450510025,0.08423866439312697,0.40906620978768915
1725629751934698000,6.982697998046875,-0.10991758778989315,0.05059767607599497,0.41897539018783714
1725629751944731000,6.99273095703125,-0.18554302987754343,0.013232991060614586,0.3792121926633641
1725629751954765000,7.00276513671875,-0.2233598425745964,-0.014297405421733855,0.33320995461884884
1725629751964799200,7.01279931640625,-0.21826690334975718,-0.08990735767930745,0.23574743231963366
1725629751974832000,7.02283203125,-0.30729134071469305,-0.15497721122205257,0.21210388720799236
1725629751984866000,7.032865966796875,-0.4420920253485441,-0.13173603636622427,0.2253243475805968
1725629751994900000,7.04289990234375,-0.6040069268792867,-0.007277882048487663,0.19453710472676902
1725629752004933000,7.05293310546875,-0.7187836451381444,0.0919990692615509,0.15625373396389186
1725629752014967000,7.062967041015625,-0.7697796728819608,0.17502222038507462,0.24518450169600545
1725629752025001000,7.0730009765625,-0.73503627628088,0.20163053358644245,0.33846272404789923
1725629752035034000,7.0830341796875,-0.49126726740598675,0.2337272150710225,0.25100984684862193
1725629752045068000,7.093068115234375,-0.16045008967518806,0.16747165887504814,0.16583068673498927
1725629752055102200,7.103102294921875,-0.022129998743534086,0.05969108311384916,0.14466902156695724
1725629752065135000,7.113135009765625,-0.008581365862488746,0.0639005175024271,0.1538169352710247
1725629752075169000,7.1231689453125,-0.06038111120462417,0.15003215603530407,0.21314261913858354
1725629752085202000,7.133201904296875,-0.0777080935806036,0.3167199710562825,0.404589173971489
1725629752095236000,7.143236083984375,-0.19268822545707226,0.4347621208518743,0.6486142764993011
1725629752105270300,7.153270263671875,-0.2685293561220169,0.4653253091588616,0.7985318662442267
1725629752115303000,7.163302978515625,-0.37643268148005005,0.5939885139510035,0.6817371592264622
1725629752125337000,7.173337158203125,-0.29718320367634293,0.3695487671852112,0.5019403083181009
1725629752135371000,7.18337109375,0.20646949805021284,-0.0987175638616085,0.35256351091898974
1725629752145404200,7.193404052734375,0.15470190141201018,-0.12719225545674562,0.013314933723025023
1725629752155438000,7.20343798828125,0.0005073650002479553,0.07144377248883246,-0.28877790676681325
1725629752165472000,7.213471923828125,-0.20349486615359783,-0.018850830942392347,-0.44505869313441215
1725629752175505200,7.223505126953125,-0.4726613511353731,0.12504384525120257,-0.3949345528542995
1725629752185539000,7.2335390625,-0.6453063209950923,0.6400608215570449,-0.163599018692784
1725629752195573000,7.243572998046875,-0.3380675872504711,0.7017813646718859,0.23986449398333207
1725629752205606000,7.25360595703125,0.2486953593611717,0.6062015143141151,0.7633564349014311
1725629752215640000,7.26364013671875,0.5323030421495437,0.5259437362506986,0.9657560531642287
1725629752225674200,7.27367431640625,0.5725929669618606,0.4284834789738059,0.843929708654806
1725629752235707100,7.28370703125,0.5197977808415889,0.3683519586160779,0.6017907851997762
1725629752245741000,7.293740966796875,0.3696861298292875,0.2842927424430847,0.37068942512031644
1725629752255774000,7.30377392578125,0.1625783338755369,0.17356003887802363,0.06843352128956466
1725629752265808100,7.31380810546875,-0.06572013414502144,0.030823592808842656,-0.2751668579077348
1725629752275842300,7.32384228515625,-0.19661036733686924,-0.07291881347745656,-0.5811559569174424
1725629752285875200,7.333875244140625,-0.19967150847315787,-0.1583826357513666,-0.7700150890730321
1725629752295909000,7.3439091796875,-0.21144553289711474,-0.1595969799771905,-0.7872728056050836
1725629752305943000,7.353943115234375,-0.10427169085741042,-0.11195260074883699,-0.6489411703661084
1725629752315976200,7.36397607421875,0.03787818749547005,-0.04065846586376429,-0.4401443618794903
1725629752326010000,7.374010009765625,0.14267068735659122,-0.00918809958398342,-0.23246921436656265
1725629752336044000,7.3840439453125,0.2159872679799795,0.05011895264834165,-0.11828655301071703
1725629752346077000,7.394076904296875,0.23636428557634354,0.09774579622000455,-0.023752046987414357
1725629752356111000,7.404111083984375,0.19919220052361486,0.13196078503280878,-0.024251630540005863
1725629752366145000,7.41414501953125,0.20623276668488977,0.17786650390028952,-0.008887143876031041
1725629752376178000,7.424177978515625,0.2087713452517986,0.16234773999005556,-0.03391078170184046
1725629752386212000,7.434212158203125,0.16612813531160353,0.10860212127715349,-0.07375055159386247
1725629752396245000,7.444244873046875,0.08785597810745238,0.1255292906805873,-0.08453490739334374
1725629752406279200,7.454279052734375,-0.06825111392736434,0.16704028172045945,-0.022354783942736683
1725629752416313000,7.46431298828125,-0.15291151086390017,0.20079934345930814,0.038367578447610136
1725629752426346000,7.474345947265625,-0.19823416914641856,0.20545272222310304,0.06463811106197535
1725629752436380200,7.484380126953125,-0.19147709610164165,0.12744418439120053,0.040541744148917494
1725629752446414000,7.4944140625,-0.10411679255664348,0.10757044014185667,0.005138568464852869
1725629752456447200,7.504447265625,-0.05777472809851169,0.09304565570503473,0.06533529954589903
1725629752466481000,7.51448095703125,-0.1549099912047386,0.10741378827542065,0.07996906078252941
1725629752476515000,7.52451513671875,-0.28201602968275546,0.1418152395710349,0.005928147939965128
1725629752486548200,7.53454833984375,-0.34908874748051166,0.1472039468720555,-0.06959456442557276
1725629752496582100,7.54458203125,-0.37442718687653537,0.0910600348457694,-0.08947872047107666
1725629752506616000,7.554615966796875,-0.2851870609343052,0.03312690131515264,-0.08913016276173293
1725629752516649000,7.56464892578125,-0.08933014231324195,0.02260521503984928,-0.06038867345657199
1725629752526683100,7.57468310546875,-0.018697101685404775,0.034684359890222546,0.023847616316378117
1725629752536716000,7.584716064453125,-0.06879062763154506,0.030248131008446213,0.017955306874774396
1725629752546750000,7.59475,-0.1159235502064228,0.02605214062333107,-0.07719119356703012
1725629752556784000,7.6047841796875,-0.19463468334972858,-0.004929273095726967,-0.15997209689989686
1725629752566817000,7.614817138671875,-0.18069383628070354,-0.01921060416549444,-0.12826207664534447
1725629752576851200,7.624851318359375,-0.07731471034884452,0.025130934125185012,-0.021786519068107007
1725629752586884900,7.634884765625,0.05848959836959838,0.06624415801912546,0.10791275077350437
1725629752596918000,7.64491796875,0.18362112190425395,0.08641103999614715,0.16569189931880682
1725629752606952200,7.6549521484375,0.23560499164164064,0.07152619007527827,0.16218495064377783
1725629752616986000,7.664986083984375,0.18951251803040503,0.07282207510471343,0.09786196994557976
1725629752627019300,7.675019287109375,0.09601765725314616,0.13257102588564157,0.12331793477404862
1725629752637053000,7.685052978515625,-0.008066402077674865,0.21027035163789987,0.18202829975485801
1725629752647087000,7.695087158203125,-0.04394610923230648,0.22367168500274417,0.16602631890494376
1725629752657120000,7.7051201171875,-0.0014309095859527587,0.20138941830694673,0.15638265757318584
1725629752667154200,7.715154296875,0.09491934062242507,0.17580109580308198,0.1561441726421937
1725629752677187000,7.72518701171875,0.19935411308705805,0.17258271827846763,0.21000676879826932
1725629752687221000,7.735220947265625,0.2316770045429468,0.1482049406081438,0.2442552945544943
1725629752697255200,7.745255126953125,0.2207061131954193,0.13129676816612482,0.25198486589323726
1725629752707288000,7.7552880859375,0.12888473858833313,0.10478840820789337,0.23788459047880023
1725629752717322000,7.765322021484375,0.004433598533272743,0.1195373567894101,0.2127239188024774
1725629752727356000,7.77535595703125,-0.02327741521298885,0.13486498204171657,0.14096194720994681
1725629752737389000,7.78538916015625,0.0013970073163509368,0.12484481554776429,0.1134419259911403
1725629752747423200,7.79542333984375,0.03813420808315277,0.08871990146040916,0.13114647297523915
1725629752757457000,7.805456787109375,0.07287818920612335,0.0883393777102232,0.19331461372710762
1725629752767490000,7.815489990234375,0.04391337600648403,0.05862111579477787,0.23721231724042444
1725629752777524000,7.82552392578125,-0.055472296375036236,0.04943798464685678,0.17130060604605823
1725629752787557000,7.83555712890625,-0.10732289512157439,0.060195525504648684,0.1283377356974408
1725629752797591000,7.845591064453125,-0.12544891892075538,0.03177753253281116,0.10899813485741615
1725629752807625000,7.855625,-0.1330377666145563,0.003373568086326122,0.08257197328992187
1725629752817658000,7.865658203125,-0.12076748310625553,0.002074175925552845,0.06094535749126225
1725629752827692000,7.875692138671875,-0.1561561918735504,-0.01054272906333208,-0.0319614011997357
1725629752837726200,7.885726318359375,-0.2040536690801382,-0.04316811059713364,-0.11958736994359642
1725629752847759000,7.895759033203125,-0.1678904688090086,-0.07513970439732075,-0.1741647633055225
1725629752857793000,7.90579296875,-0.06823825444579124,-0.0748801766782999,-0.14783935869876294
1725629752867827200,7.9158271484375,-0.00215805481672287,-0.04376695327311754,-0.0354806613670662
1725629752877860000,7.925860107421875,0.062273208561539645,-0.0030018121644854543,0.0791635530859232
1725629752887894800,7.935894775390625,0.10679448733329773,0.0438254054620862,0.1264278104228899
1725629752897927700,7.945927734375,0.16374854669868946,0.04555062181949615,0.11073354381527752
1725629752907961900,7.9559619140625,0.17691899391710758,0.07980857299119233,0.15642116295266895
1725629752917996000,7.96599609375,0.16190438013672828,0.11418605888932942,0.2167054627193138
1725629752928029000,7.97602880859375,0.09540566283464431,0.16625585334450005,0.1756116011129692
1725629752938062800,7.986062744140625,-0.06275953077375888,0.21577099488079546,0.1674733759080991
1725629752948096800,7.9960966796875,-0.1339355922371149,0.24143325940370558,0.11732161696869879
1725629752958130000,8.0061298828125,-0.19285422967374324,0.22349749747961759,0.0689947719015181
1725629752968163800,8.016163818359376,-0.24634850397408006,0.19757512071579694,0.028151706718467173
1725629752978197800,8.02619775390625,-0.2546194887131452,0.17266893525719643,0.03448551284987479
1725629752988231000,8.03623095703125,-0.242639128062129,0.15659253746420143,-0.004043064845725894
1725629752998264800,8.046264892578124,-0.2809504462778568,0.17464841863662003,-0.004222184272296726
1725629753008298000,8.056298095703125,-0.2919669303327799,0.20464286714494226,-0.0496413251992315
1725629753018331600,8.06633154296875,-0.2579331433057785,0.1547311275064945,-0.12186850315071641
1725629753028365800,8.07636572265625,-0.19972002379000187,0.09540127892047166,-0.17799630429241806
1725629753038399000,8.08639892578125,-0.13230769877433776,0.029440906278789043,-0.15535466623231767
1725629753048433000,8.096432861328125,-0.03988192853331566,-0.06930413011163472,0.061061567749455564
1725629753058466800,8.106466796875,0.19580664973855016,0.07421469850689172,-0.303777450842224
1725629753068499700,8.116499755859374,0.21147885064482688,0.1312061672732234,-0.4100096281176433
1725629753078534000,8.126533935546876,0.08658756560683249,-0.05791267526447773,-0.2525014736458659
1725629753088568000,8.136568115234375,0.0541799184769392,-0.12394991253465414,-0.17629786634407937
1725629753098601000,8.14660107421875,0.10970832895338535,-0.07927373546212911,-0.22303313137087968
1725629753108635000,8.156634765625,0.10942951201200485,-0.08148907342404127,-0.2626776709517464
1725629753118667800,8.166667724609376,0.06892857479751109,-0.0875812528192997,-0.24626553839836268
1725629753128702000,8.176701904296875,0.04754793311655521,-0.06642886693626641,-0.24116383134517816
1725629753138735900,8.18673583984375,0.048265725997090336,-0.049937750862538814,-0.2662793852381408
1725629753148769000,8.19676904296875,0.053662616604566574,-0.07606587933152914,-0.30944848221596327
1725629753158802700,8.206802734375,0.08904314206540584,-0.14721563730984924,-0.4222563480872661
1725629753168836900,8.2168369140625,0.12626257339119912,-0.17053981427401305,-0.45304768259432165
1725629753178870000,8.2268701171875,0.11810030972361564,-0.1641053973123431,-0.3974841642718762
1725629753188904000,8.236904052734374,0.13816986880600451,-0.1442886439472437,-0.3780093196796253
1725629753198937900,8.246937744140626,0.14596855985820292,-0.12375848161578178,-0.3239791849369183
1725629753208970800,8.256970703125,0.13850012367367745,-0.10429624077677727,-0.22391331173889337
1725629753219005000,8.2670048828125,0.14322247602045535,-0.12444324900954962,-0.17405582303833214
1725629753229037800,8.277037841796876,0.1265799687772989,-0.14945231032073497,-0.1741459490071982
1725629753239071700,8.28707177734375,0.11021394038796424,-0.2043453455030918,-0.16405322873368858
1725629753249106000,8.29710595703125,0.12305705534815788,-0.17612229058146475,-0.12777717920523135
1725629753259138800,8.307138916015624,0.07335632811188697,-0.10633972930312156,-0.11771949371248483
1725629753269173000,8.317173095703126,0.02878127332627773,-0.04971563254445791,-0.11176358098275958
1725629753279206700,8.32720654296875,0.024357027143239972,-0.013796470162272452,-0.030894539153203365
1725629753289239800,8.33723974609375,0.07786825257837772,0.02524637719839811,0.03137286072205752
1725629753299274000,8.34727392578125,0.14171850119829177,0.03768704883754253,0.06797244311645627
1725629753309308000,8.357307861328126,0.1262754328727722,0.04582183997631073,0.12636070000343025
1725629753319341000,8.367341064453125,0.08011690828800201,0.0576066780552268,0.10994074946977198
1725629753329374700,8.377374755859375,-0.045453006663918494,0.09343377823978662,0.08917933566570281
1725629753339409000,8.387408935546874,-0.18839023600220678,0.13829963266551493,0.1372382505116984
1725629753349441800,8.39744189453125,-0.2751490665227175,0.18045564361065625,0.1914355950474739
1725629753359476000,8.40747607421875,-0.3010147446632385,0.21413433358967304,0.23327172638848423
1725629753369508900,8.4175087890625,-0.24809330181479453,0.23251228632330892,0.2674972365953028
1725629753379542800,8.427542724609374,-0.20429449209868908,0.24608985303789377,0.28253402567487207
1725629753389577000,8.437576904296876,-0.13304828800857066,0.2261824987798929,0.2956301655480638
1725629753399609900,8.44760986328125,-0.07828969286084175,0.11319061811119317,0.4597254067925736
1725629753409643800,8.457643798828125,0.09613163902163505,0.14893150131702423,0.2439385932881385
1725629753419678000,8.467677978515624,0.18663257867991923,0.2735594592437148,0.06263181274086237
1725629753429710800,8.4777109375,0.09849719910919666,0.14099077144563196,0.2425135654537007
1725629753439745000,8.4877451171875,0.06411737512350082,0.05948796175718307,0.32156499993465837
1725629753449778700,8.49777880859375,0.08062135067880154,0.11299071162492036,0.2472040978901088
1725629753459811800,8.507811767578126,0.060012862414121626,0.13604951565116644,0.18911847721152006
1725629753469845800,8.517845703125,0.0255278244882822,0.08596388075053692,0.16771335867643355
1725629753479879000,8.52787890625,0.010970306825637816,0.04907996498942375,0.1578546663545072
1725629753489912800,8.537912841796874,0.03949322147667408,0.06803045691400766,0.14930212472770363
1725629753499946800,8.54794677734375,0.056579965355992315,0.0798974203184247,0.20008706700410692
1725629753509980000,8.55797998046875,0.09101882605254649,-0.011181319227814674,0.4298148006428033
1725629753520013800,8.568013916015625,0.2637105576634407,0.028017303216457366,0.22391853590328245
1725629753530048000,8.578048095703124,0.2847948467463255,0.11922726792693138,0.037001057601068164
1725629753540081000,8.588080810546876,0.20594752000272273,0.07713438534587622,0.058401189433783286
1725629753550114800,8.59811474609375,0.13027063998878002,0.03532499588131904,0.12928497168598696
1725629753560149000,8.60814892578125,0.07336684950590133,0.02479512629956007,0.1350182181083597
1725629753570182000,8.618181884765624,-0.005737666869163513,0.06383592783361673,0.027060769676603376
1725629753580215800,8.6282158203125,-0.10991408065855503,0.07624065137654543,-0.07210179800614715
1725629753590248700,8.638248779296875,-0.22106091798245905,0.025069851587712765,-0.1041476808852516
1725629753600283000,8.648282958984375,-0.22669337091147898,-0.006363105291128158,-0.11461513448897749
1725629753610316800,8.65831689453125,-0.2225187155753374,0.04196224193871021,-0.12128841997412965
1725629753620350000,8.668349853515625,-0.20575053612589836,0.0968307272017002,-0.07206462606722489
1725629753630383900,8.6783837890625,-0.1459521932452917,0.14231266769915818,-0.042163207870908076
1725629753640417800,8.688417724609375,-0.09147124599516392,0.1697586007684469,-0.01215571721792221
1725629753650451000,8.698450927734376,-0.009042553633451461,0.1811027093425393,0.002497607235703617
1725629753660484900,8.70848486328125,0.010730068328976631,0.13173194471299648,0.004797244213894009
1725629753670518800,8.718518798828125,-0.0020949264526367185,0.11401245588809251,0.017031360430270433
1725629753680551700,8.7285517578125,0.025220950496196746,0.09445493798106908,-0.0063778279362246395
1725629753690585900,8.7385859375,0.06118307523727417,0.07360211956650019,-0.09481036382261664
1725629753700620000,8.7486201171875,0.07119593520760535,0.024922844332456586,-0.18255639701588078
1725629753710653000,8.75865283203125,0.023191490495204924,-0.04421615834534168,-0.2508641730339266
1725629753720686800,8.768686767578124,0.01939969699680805,-0.08913461974114179,-0.333967604585737
1725629753730719700,8.7787197265625,0.006364274334907531,-0.09791501530706882,-0.33078385998308657
1725629753740754000,8.78875390625,-0.07946691994667053,-0.03574000642299652,-0.23441883233068508
1725629753750788000,8.7987880859375,-0.2120966902822256,0.07110065813958645,-0.07300426327120513
1725629753760821000,8.808821044921874,-0.21224165171086787,0.16044395219534635,0.0994445629619062
1725629753770855000,8.81885498046875,0.016028759258985517,0.21376842288672923,0.2628667272504419
1725629753780888800,8.828888916015625,0.3777390879034996,0.16490210064798594,0.32291396685820073
1725629753790922000,8.838921875,0.7553320453345775,-0.013928864370286464,0.28358554402180014
1725629753800955600,8.84895556640625,0.9031202218353748,-0.10868220077604054,0.3199482854530215
1725629753810989800,8.85898974609375,0.7755424741923809,-0.07787439005821943,0.3548084768341854
1725629753821022700,8.869022705078125,0.4998579856187105,-0.0024468086302280425,0.24424515675297007
1725629753831057000,8.879056884765625,0.09911094709336757,0.016571195572614668,0.07159072494516149
1725629753841090000,8.889090087890626,-0.11009586696624755,0.046774026134610173,-0.17180623574694617
1725629753851123700,8.899123779296875,-0.09383037634193897,0.07310439917743206,-0.15989322297740727
1725629753861158000,8.909157958984375,-0.30228081907629967,-0.0892716901242733,0.0036229032048955556
1725629753871190800,8.919190673828124,-0.5488251378834247,-0.17082126156389713,-0.02599003517255187
1725629753881224700,8.929224609375,-0.6508282992869615,-0.13077654368430375,-0.07298109245817176
1725629753891258600,8.939258544921875,-0.5401327128618956,-0.2687204947799444,0.155030384447705
1725629753901291500,8.94929150390625,-0.5972679740130901,-0.0006684007808566093,0.28556851626625285
1725629753911325700,8.95932568359375,-0.5778244378745555,0.24864012204259633,0.4079502844350412
1725629753921360000,8.96935986328125,-0.5427993017226457,0.46036827127337454,0.7085640105493366
1725629753931392800,8.979392822265625,-0.34398177973031996,0.771211751511693,0.9764288383480161
1725629753941426700,8.9894267578125,-0.16220014821290968,0.6262798412248491,1.0857594200301914
