time,seconds_elapsed,z,y,x
1725629744974488600,0.022488525390625,-1.3446300029754639,-0.8683435916900635,1.7961190938949585
1725629744984522500,0.0325224609375,-1.4756090641021729,-0.8940523862838745,2.1365325450897217
1725629744994556700,0.042556640625,-1.4069390296936035,-1.3230499029159546,2.2264554500579834
1725629745004590600,0.052590576171875,-1.3420876264572144,-1.993955135345459,2.129290819168091
1725629745014624500,0.06262451171875,-1.3897778987884521,-2.561051368713379,1.975266456604004
1725629745024658700,0.07265869140625,-1.4258313179016113,-2.854659080505371,1.7867679595947266
1725629745034692600,0.082692626953125,-1.3382560014724731,-2.8938093185424805,1.544273018836975
1725629745044726500,0.0927265625,-1.1441243886947632,-2.6104674339294434,1.2753373384475708
1725629745054760700,0.1027607421875,-0.9572135210037231,-2.0396430492401123,1.054031491279602
1725629745064794600,0.112794677734375,-0.8517541885375977,-1.426871418952942,0.9381206035614014
1725629745074828500,0.12282861328125,-0.9111167788505554,-0.9243841767311096,0.9135866761207581
1725629745084862700,0.13286279296875,-1.012303113937378,-0.7411820888519287,0.8693171739578247
1725629745094896600,0.142896728515625,-1.003066897392273,-0.6055157780647278,0.7283878326416016
1725629745104931600,0.152931640625,-0.9186840653419495,-0.38354241847991943,0.47695478796958923
1725629745114965800,0.1629658203125,-0.79460209608078,-0.05231950804591179,0.1800752580165863
1725629745124999400,0.17299951171875,-0.5074605941772461,0.059199295938014984,-0.09725568443536758
1725629745135033600,0.18303369140625,-0.15037064254283905,0.0016137647908180952,-0.24700629711151123
1725629745145067800,0.19306787109375,0.16723793745040894,0.04020989313721657,-0.32739755511283875
1725629745155101400,0.203101318359375,0.3970175087451935,0.08639542013406754,-0.377156138420105
1725629745165135600,0.213135498046875,0.6655877232551575,0.021392451599240303,-0.5169646143913269
1725629745175169800,0.223169677734375,0.638457179069519,0.15795865654945374,-0.7824423313140869
1725629745185203500,0.233203369140625,0.3451392650604248,0.6707977652549744,-1.0686250925064087
1725629745195237600,0.243237548828125,0.04752176254987717,1.3896821737289429,-1.376144528388977
1725629745205271800,0.253271728515625,0.01174565777182579,1.8595775365829468,-1.7479279041290283
1725629745215305500,0.263305419921875,0.2301916778087616,1.89360773563385,-2.1780338287353516
1725629745225339600,0.273339599609375,0.5508615970611572,1.840558409690857,-2.492206573486328
1725629745235373600,0.28337353515625,0.6251456141471863,1.8133403062820435,-2.629782199859619
1725629745245407500,0.293407470703125,0.4469987452030182,1.7116917371749878,-2.615140438079834
1725629745255442700,0.303442626953125,0.26606130599975586,1.3754267692565918,-2.4232637882232666
1725629745265476600,0.3134765625,0.212273970246315,0.8820000290870667,-2.0994133949279785
1725629745275510500,0.323510498046875,0.18223443627357483,0.22096127271652222,-1.7180144786834717
1725629745285544700,0.333544677734375,0.39637547731399536,-0.5303105711936951,-1.2091659307479858
1725629745295578600,0.34357861328125,0.767806887626648,-1.0317423343658447,-0.712353527545929
1725629745305612500,0.353612548828125,1.005117416381836,-1.3017021417617798,-0.33868730068206787
1725629745315646700,0.363646728515625,1.3236650228500366,-1.7751349210739136,-0.04496090114116669
1725629745325680600,0.3736806640625,1.7660331726074219,-1.9625558853149414,0.206337109208107
1725629745335714600,0.383714599609375,2.224881887435913,-1.5976227521896362,0.3645893335342407
1725629745345748700,0.393748779296875,2.523254156112671,-0.993935763835907,0.43000084161758423
1725629745355782400,0.403782470703125,2.590879201889038,-0.452596515417099,0.30799049139022827
1725629745365816600,0.413816650390625,2.4326722621917725,-0.28667306900024414,0.14588651061058044
1725629745375850800,0.423850830078125,2.2880187034606934,-0.6573453545570374,0.062004730105400085
1725629745385885700,0.4338857421875,2.3668878078460693,-1.3585416078567505,0.10813894122838974
1725629745395919600,0.443919677734375,2.3300774097442627,-1.882209300994873,0.22492828965187073
1725629745405953500,0.45395361328125,2.084362030029297,-2.0242486000061035,0.36889371275901794
1725629745415987700,0.46398779296875,1.8679851293563843,-1.7449918985366821,0.590430498123169
1725629745426021600,0.474021728515625,1.956544041633606,-1.6544047594070435,0.8253791332244873
1725629745436055600,0.4840556640625,2.2236406803131104,-1.7303800582885742,0.9539057016372681
1725629745446089500,0.49408935546875,2.3194596767425537,-1.7558684349060059,0.9270109534263611
1725629745456123600,0.50412353515625,2.282092809677124,-1.9396047592163086,0.7061963081359863
1725629745466157600,0.514157470703125,2.1744184494018555,-2.1680452823638916,0.4634063243865967
1725629745476191500,0.52419140625,2.043651580810547,-2.379638433456421,0.2601066529750824
1725629745486225700,0.5342255859375,1.9793076515197754,-2.510057210922241,0.10229653120040894
1725629745496259600,0.544259521484375,1.9804199934005737,-2.51076340675354,-0.051873061805963516
1725629745506293500,0.55429345703125,1.9513736963272095,-2.5319509506225586,-0.09036905318498611
1725629745516327700,0.56432763671875,1.9007744789123535,-2.530731678009033,-0.12389735132455826
1725629745526362600,0.574362548828125,1.8381567001342773,-2.250157117843628,-0.35032036900520325
1725629745536395500,0.5843955078125,1.921270489692688,-2.139598846435547,-0.844039797782898
1725629745546430500,0.594430419921875,1.9080513715744019,-1.4712612628936768,-1.277400016784668
1725629745556464600,0.604464599609375,1.6402568817138672,-0.5748001933097839,-1.650862216949463
1725629745566498600,0.61449853515625,1.5769535303115845,-0.30228692293167114,-1.9751652479171753
1725629745576532500,0.624532470703125,1.5530027151107788,-0.19237162172794342,-2.035308599472046
1725629745586566700,0.634566650390625,1.474853277206421,-0.2421325147151947,-1.8653900623321533
1725629745596600600,0.6446005859375,1.5674148797988892,-0.32961079478263855,-1.543291449546814
1725629745606634500,0.654634521484375,1.7962228059768677,-0.45962417125701904,-1.0749093294143677
1725629745616668700,0.664668701171875,1.9679489135742188,-0.5489522814750671,-0.5147509574890137
1725629745626702600,0.67470263671875,2.101060628890991,-0.530288815498352,0.08053158223628998
1725629745636736500,0.684736572265625,2.4055798053741455,-0.5313456058502197,0.6713963747024536
1725629745646770700,0.694770751953125,2.790910005569458,-0.5074586272239685,1.2415904998779297
1725629745656804600,0.7048046875,3.1820011138916016,-0.7136754393577576,1.7716577053070068
1725629745666838500,0.714838623046875,3.812122106552124,-0.8906070590019226,2.4413392543792725
1725629745676872700,0.724872802734375,4.665812969207764,-0.9389623999595642,3.0950140953063965
1725629745686907600,0.73490771484375,5.5201826095581055,-1.3470500707626343,3.6266636848449707
1725629745696941600,0.744941650390625,6.088808536529541,-1.712201714515686,4.328011989593506
1725629745706975700,0.754975830078125,6.271721363067627,-1.5311509370803833,5.091522216796875
1725629745717009700,0.765009765625,6.14937162399292,-1.1362203359603882,5.666441440582275
1725629745727043600,0.775043701171875,5.86412239074707,-0.8613564968109131,6.071700096130371
1725629745737077800,0.785077880859375,5.5377373695373535,-0.7694712281227112,6.362729072570801
1725629745747111700,0.795111572265625,5.310447692871094,-0.6701158881187439,6.491902828216553
1725629745757145600,0.8051455078125,5.169432163238525,-0.6104078888893127,6.409054756164551
1725629745767179800,0.8151796875,4.997050762176514,-0.618084192276001,6.245770454406738
1725629745777213700,0.825213623046875,4.701882362365723,-0.8202632069587708,5.977702617645264
1725629745787247600,0.83524755859375,4.358748912811279,-0.9660465121269226,5.613069534301758
1725629745797281500,0.845281494140625,4.061769962310791,-1.2211101055145264,5.110466480255127
1725629745807315700,0.855315673828125,3.661334991455078,-1.653086543083191,4.573166370391846
1725629745817349600,0.865349609375,3.5694680213928223,-2.1806905269622803,3.458052635192871
1725629745827384800,0.875384765625,3.060070753097534,-2.561939239501953,1.3215597867965698
1725629745837418500,0.88541845703125,1.7367510795593262,-3.648848056793213,-2.425869941711426
1725629745847452700,0.89545263671875,1.5623582601547241,-2.649061918258667,-3.3710153102874756
1725629745857486800,0.90548681640625,1.4530458450317383,-0.13464362919330597,-2.4261715412139893
1725629745867520500,0.9155205078125,0.4427279829978943,1.7135565280914307,-1.4332427978515625
1725629745877555200,0.92555517578125,-0.025322413071990013,1.028968095779419,-1.6409199237823486
1725629745887589000,0.935589111328125,-0.039225976914167404,0.028980759903788567,-1.6915961503982544
1725629745897623300,0.945623291015625,-0.1800871640443802,-0.49986550211906433,-1.3613111972808838
1725629745907657200,0.9556572265625,-0.39937424659729004,-0.8165648579597473,-0.9530794620513916
1725629745917691100,0.965691162109375,-0.5791919231414795,-0.9592492580413818,-0.6383436918258667
1725629745927725300,0.975725341796875,-0.849928081035614,-0.8233140707015991,-0.4248407781124115
1725629745937759200,0.98575927734375,-1.0819430351257324,-0.7002968192100525,-0.37624675035476685
1725629745947793200,0.995793212890625,-1.2782543897628784,-0.5836684703826904,-0.47581782937049866
1725629745957827000,1.0058271484375,-1.3778542280197144,-0.1074686273932457,-0.6623841524124146
1725629745967861200,1.015861328125,-1.5101823806762695,0.5254834890365601,-0.9658675789833069
1725629745977896200,1.025896240234375,-1.4263545274734497,1.4237099885940552,-1.5359705686569214
1725629745987930400,1.035930419921875,-1.1514835357666016,1.8744760751724243,-1.913622498512268
1725629745997964000,1.045964111328125,-0.8760179877281189,1.9341540336608887,-1.726958155632019
1725629746007998200,1.055998291015625,-1.1664226055145264,1.603793740272522,-1.4325587749481201
1725629746018032400,1.066032470703125,-1.3413646221160889,1.369256854057312,-1.0126800537109375
1725629746028066000,1.076066162109375,-1.5350416898727417,0.39417025446891785,-1.1316314935684204
1725629746038100200,1.086100341796875,-1.9847890138626099,-0.17569445073604584,-1.3504741191864014
1725629746048134100,1.096134033203125,-1.8020128011703491,0.13513079285621643,-1.1956373453140259
1725629746058168000,1.10616796875,-1.2986681461334229,0.5004693865776062,-0.964295506477356
1725629746068202200,1.1162021484375,-0.7776211500167847,0.8556077480316162,-0.5266678333282471
1725629746078236200,1.126236083984375,0.24921450018882751,0.7343521118164062,0.4211124777793884
1725629746088270000,1.13627001953125,1.3610717058181763,0.3999107778072357,1.7159099578857422
1725629746098304300,1.14630419921875,2.1556930541992188,-0.09799537062644958,3.0428807735443115
1725629746108338200,1.156338134765625,2.5012693405151367,-0.7662376165390015,3.842008113861084
1725629746118372000,1.1663720703125,2.3603675365448,-1.1479841470718384,3.736156940460205
1725629746128407300,1.1764072265625,1.8456249237060547,-0.8715924024581909,2.908707857131958
1725629746138441000,1.18644091796875,1.1706242561340332,-0.5560804605484009,1.9912755489349365
1725629746148475100,1.19647509765625,0.46384263038635254,-0.20067493617534637,1.2262729406356812
1725629746158509300,1.20650927734375,-0.03394098952412605,0.46317967772483826,0.526408851146698
1725629746168543000,1.21654296875,-0.36879485845565796,1.2502425909042358,-0.05106434226036072
1725629746178577200,1.2265771484375,-0.7957100868225098,1.8411556482315063,-0.6361578106880188
1725629746188611300,1.236611328125,-1.1647623777389526,2.651824712753296,-1.092462182044983
1725629746198645000,1.24664501953125,-1.4888968467712402,3.685147285461426,-1.3444868326187134
1725629746208679200,1.25667919921875,-1.3214497566223145,4.580783843994141,-1.313810110092163
1725629746218713300,1.26671337890625,-1.0303083658218384,4.759814262390137,-1.0091066360473633
1725629746228747000,1.2767470703125,-0.8070009350776672,4.278366565704346,-0.5079625844955444
1725629746238781200,1.28678125,-0.5613073706626892,3.3821403980255127,0.11732505261898041
1725629746248815400,1.2968154296875,-0.20266589522361755,2.2898857593536377,0.6141790151596069
1725629746258849000,1.30684912109375,0.09642720222473145,1.3902658224105835,0.8273219466209412
1725629746268883200,1.31688330078125,0.34470438957214355,1.1938443183898926,0.5381327271461487
1725629746278918100,1.326918212890625,0.4610361158847809,1.327215552330017,-0.07964197546243668
1725629746288952000,1.3369521484375,0.5028855800628662,1.443109393119812,-0.7733525633811951
1725629746298986200,1.346986328125,0.3351219892501831,2.21189284324646,-1.25655198097229
1725629746309020200,1.357020263671875,0.0689116045832634,2.4863243103027344,-1.7399942874908447
1725629746319054000,1.36705419921875,-0.26401904225349426,2.34678316116333,-2.1200780868530273
1725629746329088300,1.377088134765625,-0.5625381469726562,2.014415979385376,-2.2443127632141113
1725629746339122200,1.3871220703125,-0.8193472623825073,1.5663567781448364,-2.15472412109375
1725629746349156000,1.397156005859375,-0.9417533278465271,1.2083957195281982,-2.020805835723877
1725629746359190300,1.407190185546875,-0.9462360143661499,1.047180414199829,-1.864180564880371
1725629746369224200,1.41722412109375,-0.9116985201835632,1.0322661399841309,-1.7162278890609741
1725629746379258000,1.427258056640625,-0.898098349571228,1.1594797372817993,-1.6217559576034546
1725629746389292300,1.437292236328125,-0.8406241536140442,1.2711447477340698,-1.5748454332351685
1725629746399326200,1.447326171875,-0.7297053337097168,1.344059705734253,-1.5445654392242432
1725629746409360100,1.457360107421875,-0.6746143698692322,1.2430167198181152,-1.5057426691055298
1725629746419394300,1.467394287109375,-0.6594759225845337,1.132529854774475,-1.4096243381500244
1725629746429429200,1.47742919921875,-0.6320371031761169,1.1871228218078613,-1.2917722463607788
1725629746439463200,1.487463134765625,-0.5689634084701538,1.266690731048584,-1.207323670387268
1725629746449497300,1.497497314453125,-0.5446357131004333,1.3969467878341675,-1.0989617109298706
1725629746459531300,1.50753125,-0.4739743173122406,1.4561325311660767,-0.8291576504707336
1725629746469565200,1.517565185546875,-0.04895618557929993,1.8824572563171387,-0.45460960268974304
1725629746479599400,1.527599365234375,-0.20051538944244385,1.4686236381530762,-0.4859437644481659
1725629746489633000,1.537633056640625,-0.23382434248924255,0.9717717170715332,-0.639801025390625
1725629746499667200,1.547667236328125,-0.22819793224334717,0.7128999829292297,-0.800397515296936
1725629746509701400,1.557701416015625,-0.18082642555236816,0.6353365182876587,-0.9170858263969421
1725629746519735000,1.567735107421875,-0.19613410532474518,0.7690686583518982,-1.0013856887817383
1725629746529769200,1.577769287109375,-0.20684801042079926,1.3040728569030762,-0.9286911487579346
1725629746539803400,1.587803466796875,-0.13631631433963776,1.4416680335998535,-0.7176949977874756
1725629746549837000,1.597837158203125,-0.2952050268650055,0.8893939852714539,-0.7797413468360901
1725629746559871200,1.607871337890625,-0.815708339214325,-0.07040440291166306,-1.0217304229736328
1725629746569906200,1.61790625,-1.427061915397644,-0.9419373869895935,-1.1306170225143433
1725629746579940000,1.627940185546875,-2.041250228881836,-1.4983415603637695,-0.9894390106201172
1725629746589974300,1.637974365234375,-2.6448090076446533,-1.7897491455078125,-0.7131158113479614
1725629746600008200,1.64800830078125,-2.9551360607147217,-0.3706323504447937,-0.29032278060913086
1725629746610042000,1.6580419921875,-2.8849596977233887,-0.46368104219436646,0.07505065947771072
1725629746620076300,1.668076171875,-2.6563029289245605,-0.7408246397972107,0.426484078168869
1725629746630110200,1.678110107421875,-2.389909267425537,-1.5099948644638062,0.638045608997345
1725629746640144100,1.68814404296875,-2.2129461765289307,-1.9768314361572266,0.5421720743179321
1725629746650178300,1.69817822265625,-1.9716577529907227,-2.661342144012451,0.30687808990478516
1725629746660212200,1.708212158203125,-1.820826768875122,-3.1626155376434326,0.006448585540056229
1725629746670246100,1.71824609375,-1.7422393560409546,-3.4590344429016113,-0.4648803174495697
1725629746680280300,1.7282802734375,-1.6322021484375,-3.7516517639160156,-1.019506812095642
1725629746690314200,1.738314208984375,-1.838494062423706,-4.1473917961120605,-1.4162496328353882
1725629746700348200,1.74834814453125,-2.524482250213623,-4.056939601898193,-1.3248858451843262
1725629746710382300,1.75838232421875,-3.608776569366455,-3.8637449741363525,-0.7242165803909302
1725629746720417300,1.768417236328125,-4.563587188720703,-3.8757314682006836,0.05173095688223839
1725629746730451200,1.778451171875,-4.987507343292236,-3.738229513168335,0.5266372561454773
1725629746740485000,1.788485107421875,-4.392757892608643,-3.366804599761963,0.34290939569473267
1725629746750519300,1.798519287109375,-3.694129467010498,-3.8052151203155518,-0.013244733214378357
1725629746760553200,1.80855322265625,-3.1557390689849854,-4.478919982910156,-0.079280324280262
1725629746770587100,1.818587158203125,-2.4869561195373535,-4.593952178955078,0.12967714667320251
1725629746780621300,1.828621337890625,-1.5162431001663208,-4.772397518157959,0.5367823839187622
1725629746790655200,1.8386552734375,-0.43582096695899963,-5.204036235809326,1.3633322715759277
1725629746800689200,1.848689208984375,0.3891323208808899,-5.673379898071289,2.6033761501312256
1725629746810723300,1.858723388671875,1.0512399673461914,-6.158824920654297,4.107066631317139
1725629746820757200,1.86875732421875,1.6432355642318726,-6.861575603485107,5.790771007537842
1725629746830791200,1.878791259765625,2.1190502643585205,-8.092305183410645,7.568976402282715
1725629746840825000,1.8888251953125,2.439697742462158,-9.207283973693848,9.0128173828125
1725629746850859300,1.898859375,2.9471435546875,-9.121140480041504,9.908388137817383
1725629746860893200,1.90889306640625,3.319762945175171,-8.946733474731445,9.914533615112305
1725629746870928400,1.918928466796875,3.735868215560913,-9.377933502197266,9.500824928283691
1725629746880962000,1.928962158203125,4.013016700744629,-9.016007423400879,9.197283744812012
1725629746890996200,1.938996337890625,3.623162269592285,-7.310571670532227,8.781997680664062
1725629746901030400,1.949030517578125,2.5127177238464355,-4.904058933258057,7.820476531982422
1725629746911064000,1.95906396484375,0.6379269361495972,-1.8909356594085693,5.614804744720459
1725629746921098200,1.96909814453125,-0.7048488259315491,1.0222722291946411,3.1503093242645264
1725629746931132400,1.97913232421875,-1.1698753833770752,3.0099403858184814,1.4765959978103638
1725629746941166000,1.989166015625,-1.3151768445968628,3.9417881965637207,0.6023905277252197
1725629746951200300,1.9992001953125,-1.2685080766677856,4.860060691833496,0.2485184520483017
1725629746961234200,2.009234130859375,-1.3205275535583496,5.661417484283447,0.24655553698539734
1725629746971268000,2.01926806640625,-1.6000361442565918,5.849799633026123,0.44959011673927307
1725629746981302300,2.02930224609375,-2.029174327850342,5.46064567565918,0.7592140436172485
1725629746991336200,2.039336181640625,-2.369407892227173,4.8520379066467285,0.9189698696136475
1725629747001370000,2.0493701171875,-2.59429931640625,4.2055816650390625,0.9184690117835999
1725629747011404300,2.059404296875,-2.739314079284668,3.7000064849853516,0.8065802454948425
1725629747021438200,2.069438232421875,-2.936617612838745,3.1979634761810303,0.6799023151397705
1725629747031473200,2.07947314453125,-3.063197374343872,2.849963665008545,0.5388269424438477
1725629747041507300,2.08950732421875,-2.9895312786102295,2.8217904567718506,0.466339111328125
1725629747051541000,2.099541015625,-2.6799044609069824,2.90615177154541,0.36786898970603943
1725629747061575200,2.1095751953125,-1.971888542175293,3.2971765995025635,0.1023169755935669
1725629747071609300,2.119609375,-0.9569128751754761,3.8053035736083984,-0.29259786009788513
1725629747081643000,2.12964306640625,0.1419188231229782,3.8679347038269043,-0.6441258192062378
1725629747091677200,2.13967724609375,1.231704831123352,3.048058032989502,-0.7264289259910583
1725629747101711400,2.14971142578125,2.030592918395996,1.8874784708023071,-0.39570459723472595
1725629747111745000,2.1597451171875,2.5091261863708496,0.682909369468689,0.4100307822227478
1725629747121779200,2.169779296875,2.694126605987549,-0.6284387111663818,1.3410048484802246
1725629747131813400,2.1798134765625,2.7080037593841553,-1.797090768814087,2.150266408920288
1725629747141847000,2.189846923828125,2.802419662475586,-2.657346487045288,2.7743074893951416
1725629747151881200,2.199881103515625,3.184540033340454,-3.204289436340332,3.138033628463745
1725629747161915400,2.209915283203125,3.5713613033294678,-3.2017149925231934,3.1645970344543457
1725629747171949000,2.219948974609375,3.6940770149230957,-3.023963451385498,3.0181992053985596
1725629747181983200,2.229983154296875,3.4211416244506836,-2.3917453289031982,2.757631301879883
1725629747192018200,2.24001806640625,2.529592990875244,-1.7584867477416992,2.3609766960144043
1725629747202052000,2.250052001953125,1.008276104927063,-1.1890939474105835,2.008629560470581
1725629747212086300,2.260086181640625,-0.43331244587898254,-0.6104838252067566,1.4439048767089844
1725629747222120200,2.2701201171875,-1.119666337966919,-0.3941238224506378,0.353054404258728
1725629747232154000,2.280154052734375,-1.1009304523468018,-0.32094281911849976,-0.7254765629768372
1725629747242188300,2.290188232421875,-0.8989045023918152,-0.32632049918174744,-1.1536097526550293
1725629747252222200,2.30022216796875,-0.9395621418952942,-0.21462726593017578,-1.1192498207092285
1725629747262256000,2.310256103515625,-1.0166858434677124,-0.22815051674842834,-0.9433319568634033
1725629747272290300,2.320290283203125,-0.7623581886291504,-0.209370955824852,-0.5551610589027405
1725629747282324200,2.33032421875,-0.3355424702167511,-0.022954363375902176,0.12401683628559113
1725629747292358100,2.340358154296875,-0.04915891960263252,0.1750687062740326,0.8684790134429932
1725629747302392300,2.350392333984375,-0.13867053389549255,0.16767829656600952,1.2809280157089233
1725629747312426000,2.360426025390625,-0.5237590670585632,-0.00948716327548027,1.1194581985473633
1725629747322460200,2.370460205078125,-0.9977529644966125,-0.10928881168365479,0.5345965027809143
1725629747332494300,2.380494384765625,-1.375807285308838,-0.192064106464386,-0.10146649181842804
1725629747342528000,2.390528076171875,-1.652101755142212,0.018795963376760483,-0.43186652660369873
1725629747352562200,2.400562255859375,-1.7451488971710205,-0.04171505197882652,-0.24013888835906982
1725629747362596400,2.410596435546875,-1.720090389251709,-0.37121593952178955,0.17810776829719543
1725629747372631300,2.42063134765625,-1.317517638206482,-0.7796862721443176,0.48204606771469116
1725629747382665200,2.430665283203125,-0.7051920890808105,-0.962822675704956,0.5420551896095276
1725629747392699100,2.44069921875,-0.4975222647190094,-0.8307919502258301,0.40303975343704224
1725629747402733000,2.450733154296875,-0.43823835253715515,-0.8444124460220337,0.21066288650035858
1725629747412767200,2.460767333984375,-0.47496363520622253,-0.9250423312187195,0.08633667230606079
1725629747422801200,2.47080126953125,-0.7112088203430176,-0.9285993576049805,0.081554114818573
1725629747432835000,2.4808349609375,-0.8924965858459473,-0.8102953433990479,0.3328382670879364
1725629747442869200,2.490869140625,-1.143157720565796,0.30890512466430664,1.1490542888641357
1725629747452903200,2.500903076171875,-1.1865501403808594,0.5370386838912964,1.8770304918289185
1725629747462937000,2.51093701171875,-0.9513615965843201,0.19030940532684326,2.2278664112091064
1725629747472971300,2.52097119140625,-0.5718414187431335,-0.20534896850585938,2.19789457321167
1725629747483005200,2.531005126953125,-0.07331424951553345,-0.44922032952308655,1.8326225280761719
1725629747493039000,2.5410390625,0.11852815747261047,-0.20840799808502197,1.3848590850830078
1725629747503073300,2.5510732421875,0.08316673338413239,0.23257341980934143,0.9211675524711609
1725629747513107200,2.561107177734375,0.011700274422764778,0.18349403142929077,0.3952890932559967
1725629747523141000,2.57114111328125,-0.08506815880537033,0.029410002753138542,-0.04504008591175079
1725629747533176000,2.581176025390625,-0.19131523370742798,-0.062326837331056595,-0.294975608587265
1725629747543210200,2.591210205078125,-0.20266328752040863,-0.23610347509384155,-0.37240105867385864
1725629747553244200,2.601244140625,-0.10442301630973816,-0.563103437423706,-0.3070148527622223
1725629747563278000,2.611278076171875,-0.08827563375234604,-0.7052287459373474,-0.1356438845396042
1725629747573312300,2.621312255859375,-0.14179398119449615,-0.5721684098243713,0.016091052442789078
1725629747583346200,2.63134619140625,-0.163711816072464,-0.329685240983963,0.04845703765749931
1725629747593380000,2.641380126953125,-0.20891711115837097,0.09786928445100784,-0.015231925994157791
1725629747603414300,2.651414306640625,-0.3963963985443115,0.601244330406189,-0.24772919714450836
1725629747613448200,2.6614482421875,-0.545045793056488,0.6359930038452148,-0.655170202255249
1725629747623482000,2.671482177734375,-0.6908575296401978,0.5004591941833496,-0.9556705355644226
1725629747633516300,2.681516357421875,-0.7466608285903931,0.5915566086769104,-1.0239441394805908
1725629747643550200,2.69155029296875,-0.9371526837348938,0.6795507669448853,-0.940185546875
1725629747653584100,2.701584228515625,-1.357972264289856,0.6435922384262085,-0.9368102550506592
1725629747663618000,2.7116181640625,-1.5358649492263794,0.4443860650062561,-0.8636659979820251
1725629747673652200,2.72165234375,-1.3666201829910278,0.4471283257007599,-0.7550034523010254
1725629747683686100,2.73168603515625,-0.919307291507721,0.4351311922073364,-0.7043282985687256
1725629747693720000,2.741719970703125,-0.5065258741378784,0.41818442940711975,-0.5328825116157532
1725629747703754200,2.751754150390625,-0.2976095378398895,0.3040905296802521,-0.19797305762767792
1725629747713789200,2.7617890625,-0.24362990260124207,0.030694928020238876,0.2360047549009323
1725629747723823400,2.7718232421875,-0.2562667429447174,-0.20803172886371613,0.661273717880249
1725629747733857300,2.781857177734375,-0.21574407815933228,-0.29072582721710205,0.9058632254600525
1725629747743891200,2.79189111328125,-0.2007541060447693,-0.19620183110237122,0.9648118019104004
1725629747753925000,2.801925048828125,-0.24043573439121246,-0.124544158577919,0.9009577035903931
1725629747763959300,2.811959228515625,-0.33093029260635376,0.05725402384996414,0.7990445494651794
1725629747773993200,2.8219931640625,-0.4676620364189148,0.2865564525127411,0.7200815677642822
1725629747784027100,2.832027099609375,-0.6272246241569519,0.4481106400489807,0.6643857359886169
1725629747794061000,2.84206103515625,-0.7392739057540894,0.5276009440422058,0.6187782883644104
1725629747804095200,2.85209521484375,-0.7710691690444946,0.5404291749000549,0.5782840847969055
1725629747814129200,2.862129150390625,-0.710985541343689,0.5776638984680176,0.5467362403869629
1725629747824163000,2.8721630859375,-0.6004020571708679,0.7165929675102234,0.623455286026001
1725629747834197200,2.882197265625,-0.4594840705394745,0.6322386860847473,0.749136745929718
1725629747844231200,2.892231201171875,-0.32425379753112793,0.4361642301082611,0.8570130467414856
1725629747854265000,2.90226513671875,-0.21165668964385986,0.23746070265769958,0.8443930745124817
1725629747864299300,2.91229931640625,-0.1529335230588913,0.09553413838148117,0.6998136043548584
1725629747874333400,2.92233349609375,-0.11590919643640518,0.023898299783468246,0.4587000906467438
1725629747884368400,2.932368408203125,-0.11475823074579239,-0.04029691964387894,0.19094645977020264
1725629747894402600,2.942402587890625,-0.14068463444709778,-0.14076919853687286,-0.014021346345543861
1725629747904436200,2.952436279296875,-0.15887898206710815,-0.19338518381118774,-0.14109984040260315
1725629747914470400,2.962470458984375,-0.18392682075500488,-0.14539901912212372,-0.256026953458786
1725629747924504600,2.972504638671875,-0.17377348244190216,-0.08118832111358643,-0.3864803612232208
1725629747934538200,2.982538330078125,-0.16185370087623596,-0.09042389690876007,-0.5258728861808777
1725629747944572400,2.992572509765625,-0.12932123243808746,-0.13661475479602814,-0.6498674750328064
1725629747954606600,3.002606689453125,-0.0809188187122345,-0.20400097966194153,-0.7626009583473206
1725629747964640300,3.01264013671875,-0.019428351894021034,-0.32674047350883484,-0.8591737151145935
1725629747974674400,3.02267431640625,0.028889114037156105,-0.4623206555843353,-0.906275749206543
1725629747984708600,3.03270849609375,0.06774169951677322,-0.5240190029144287,-0.902777910232544
1725629747994742300,3.0427421875,0.0883825272321701,-0.5723077058792114,-0.8738176226615906
1725629748004776400,3.0527763671875,0.1036611869931221,-0.49019694328308105,-0.7792742848396301
1725629748014810600,3.062810546875,0.13339325785636902,-0.36713069677352905,-0.6292118430137634
1725629748024844300,3.07284423828125,0.1646920144557953,-0.2901206910610199,-0.44631296396255493
1725629748034878500,3.08287841796875,0.17988774180412292,-0.03037433698773384,-0.2564255893230438
1725629748044912400,3.092912353515625,0.19458423554897308,0.20506548881530762,-0.11488042771816254
1725629748054946300,3.1029462890625,0.22019106149673462,0.23787429928779602,-0.010269866324961185
1725629748064981500,3.1129814453125,0.217830091714859,0.1817764937877655,0.055859073996543884
1725629748075015400,3.123015380859375,0.16119477152824402,0.26498109102249146,0.08935365080833435
1725629748085049300,3.13304931640625,0.15769296884536743,0.30614516139030457,0.08081680536270142
1725629748095083500,3.14308349609375,0.17481470108032227,0.362747460603714,0.026785263791680336
1725629748105117400,3.153117431640625,0.25226694345474243,0.13256165385246277,-0.03932914137840271
1725629748115151400,3.1631513671875,0.2932961583137512,-0.2813121974468231,-0.08333069086074829
1725629748125185500,3.173185546875,0.24141764640808105,-0.40405288338661194,-0.058824583888053894
1725629748135219500,3.183219482421875,0.1605536937713623,-0.2834375202655792,0.00283265532925725
1725629748145253400,3.19325341796875,0.15141920745372772,-0.09935996681451797,0.07312650233507156
1725629748155287600,3.20328759765625,0.19148407876491547,0.044666189700365067,0.16949085891246796
1725629748165321500,3.213321533203125,0.25439995527267456,0.07679152488708496,0.2685970067977905
1725629748175355400,3.22335546875,0.2849264442920685,0.046165965497493744,0.3061760663986206
1725629748185389600,3.2333896484375,0.2608996331691742,0.0729021281003952,0.28910139203071594
1725629748195423500,3.243423583984375,0.22106429934501648,0.11735108494758606,0.24498480558395386
1725629748205457400,3.25345751953125,0.18938635289669037,0.1893683224916458,0.17193017899990082
1725629748215491600,3.26349169921875,0.1476098746061325,0.3242926001548767,0.06469959765672684
1725629748225525500,3.273525390625,0.11927840113639832,0.3959346413612366,-0.09669395536184311
1725629748235560400,3.283560546875,0.15257403254508972,0.4880794882774353,-0.2982238829135895
1725629748245594600,3.2935947265625,0.21863938868045807,0.6085198521614075,-0.5093777179718018
1725629748255628300,3.303628173828125,0.3054688274860382,0.5996115803718567,-0.6669164896011353
1725629748265662500,3.313662353515625,0.4720013737678528,0.591572105884552,-0.7742537260055542
1725629748275696600,3.323696533203125,0.663925290107727,0.6046527624130249,-0.8960145115852356
1725629748285730300,3.333730224609375,0.831171989440918,0.5217617154121399,-0.9508138298988342
1725629748295764500,3.343764404296875,0.9553096890449524,0.4823858141899109,-0.8926035165786743
1725629748305798700,3.353798583984375,1.0158545970916748,0.5247482657432556,-0.7662882804870605
1725629748315832300,3.363832275390625,1.0422989130020142,0.6298054456710815,-0.6675867438316345
1725629748325866500,3.373866455078125,1.0855227708816528,0.7399470806121826,-0.6639919281005859
1725629748335900700,3.383900634765625,1.1077942848205566,0.8438125252723694,-0.6966891884803772
1725629748345934300,3.393934326171875,1.0736163854599,0.9536648988723755,-0.705602765083313
1725629748355968500,3.403968505859375,0.9867453575134277,1.090165138244629,-0.6668556332588196
1725629748366002400,3.41400244140625,0.9117680788040161,1.1077395677566528,-0.6076891422271729
1725629748376036400,3.424036376953125,0.8927784562110901,1.0925896167755127,-0.5423820614814758
1725629748386070500,3.434070556640625,0.9005478024482727,1.0760033130645752,-0.4832611680030823
1725629748396104400,3.4441044921875,0.9393335580825806,0.7136775851249695,-0.3893309533596039
1725629748406138400,3.454138427734375,0.9788197875022888,0.20770931243896484,-0.22462581098079681
1725629748416173600,3.464173583984375,0.7582331299781799,0.010669744573533535,0.003478205529972911
1725629748426207500,3.47420751953125,0.37964707612991333,-0.1312941163778305,0.17188310623168945
1725629748436241400,3.484241455078125,-0.024041814729571342,-0.3082239031791687,0.19964762032032013
1725629748446275600,3.494275634765625,-0.3762371242046356,-0.4705412685871124,0.11946737766265869
1725629748456309500,3.5043095703125,-0.6041866540908813,-0.5606541633605957,0.05464790016412735
1725629748466343400,3.514343505859375,-0.7235943078994751,-0.6783162355422974,0.09324588626623154
1725629748476377600,3.524377685546875,-0.7863773107528687,-0.8304184079170227,0.2335212379693985
1725629748486411300,3.534411376953125,-0.8139434456825256,-0.8715291023254395,0.415292352437973
1725629748496445400,3.544445556640625,-0.7977460622787476,-0.9427548050880432,0.5590383410453796
1725629748506479600,3.554479736328125,-0.7646532654762268,-1.248447299003601,0.6526100635528564
1725629748516513300,3.56451318359375,-0.7394880056381226,-1.7341471910476685,0.7449471950531006
1725629748526547500,3.57454736328125,-0.7457779049873352,-1.9760075807571411,0.8637827634811401
1725629748536581600,3.58458154296875,-0.8080524802207947,-1.6913374662399292,0.990139365196228
1725629748546615300,3.594615234375,-0.9938783049583435,-2.053234100341797,1.042175531387329
1725629748556649500,3.6046494140625,-1.1776422262191772,-2.8411505222320557,0.9696282744407654
1725629748566683600,3.61468359375,-1.21605384349823,-2.0233476161956787,0.7668256759643555
1725629748576717300,3.62471728515625,-1.1203081607818604,-1.1773287057876587,0.36491018533706665
1725629748586751500,3.63475146484375,-0.9706774353981018,-0.23575939238071442,-0.21529771387577057
1725629748596786400,3.644786376953125,-0.8996285200119019,0.4714108109474182,-0.7980772852897644
1725629748606820400,3.6548203125,-0.8838565349578857,0.6843783855438232,-1.2365641593933105
1725629748616854500,3.6648544921875,-0.7953929901123047,0.5070294141769409,-1.4094980955123901
1725629748626888400,3.674888427734375,-0.6524349451065063,0.4223804771900177,-1.3036034107208252
1725629748636922400,3.68492236328125,-0.4996962547302246,0.3659651279449463,-1.0016121864318848
1725629748646956500,3.69495654296875,-0.3446558713912964,0.25620076060295105,-0.5861154794692993
1725629748656990500,3.704990478515625,-0.22999531030654907,0.0794142633676529,-0.17827925086021423
1725629748667024400,3.7150244140625,-0.13991184532642365,-0.04486396163702011,0.09060896188020706
1725629748677058600,3.72505859375,-0.0649513229727745,-0.02036261558532715,0.19686749577522278
1725629748687092500,3.735092529296875,0.005501436069607735,0.06852051615715027,0.12982159852981567
1725629748697126400,3.74512646484375,0.021509431302547455,0.12450868636369705,-0.029164591804146767
1725629748707160600,3.75516064453125,-0.010872750543057919,0.2183147519826889,-0.18573123216629028
1725629748717194500,3.765194580078125,-0.05663730949163437,0.2892911732196808,-0.24606859683990479
1725629748727228400,3.775228515625,-0.09683869779109955,0.254606693983078,-0.24711880087852478
1725629748737262600,3.7852626953125,-0.11532050371170044,0.14821076393127441,-0.2267157882452011
1725629748747296300,3.795296142578125,-0.1218811571598053,0.14220255613327026,-0.16048982739448547
1725629748757330400,3.805330322265625,-0.15469636023044586,0.1425037533044815,-0.030581355094909668
1725629748767364600,3.815364501953125,-0.3079304099082947,0.10189501941204071,0.2013329118490219
1725629748777399600,3.825399658203125,-0.551642656326294,-0.06642501056194305,0.3683304190635681
1725629748787433500,3.83543359375,-0.7383095622062683,-0.17274491488933563,0.30184876918792725
1725629748797467400,3.84546728515625,-0.8561310172080994,-0.273039311170578,0.0005571113433688879
1725629748807501600,3.85550146484375,-0.9798678159713745,-0.4036118984222412,-0.4324716627597809
1725629748817535500,3.865535400390625,-1.0761263370513916,-0.42904454469680786,-0.7830554842948914
1725629748827569400,3.8755693359375,-1.1752068996429443,-0.2223168909549713,-0.8881151676177979
1725629748837603300,3.885603271484375,-1.297905683517456,-0.054260775446891785,-0.740761935710907
1725629748847637500,3.895637451171875,-1.3294411897659302,0.05005548521876335,-0.45686760544776917
1725629748857671400,3.90567138671875,-1.2291604280471802,0.10807192325592041,-0.11734785884618759
1725629748867705300,3.915705322265625,-1.0742212533950806,0.1679728478193283,0.22568129003047943
1725629748877739000,3.925739013671875,-0.8698474168777466,0.16473737359046936,0.4862188398838043
1725629748887772700,3.935772705078125,-0.6467541456222534,0.03984693065285683,0.5904455184936523
1725629748897806800,3.945806884765625,-0.41404926776885986,-0.08906657993793488,0.5945172309875488
1725629748907841000,3.955841064453125,-0.1519164890050888,-0.24396325647830963,0.4963039755821228
1725629748917874700,3.965874755859375,-0.006069278344511986,-0.2602817714214325,0.41520965099334717
1725629748927908900,3.975908935546875,0.10659652948379517,-0.21471181511878967,0.3154478371143341
1725629748937943000,3.985943115234375,0.2134428322315216,-0.09297578036785126,0.15310364961624146
1725629748947976700,3.995976806640625,0.2936760187149048,0.007658812683075666,-0.042681314051151276
1725629748958012000,4.006011962890625,0.36175602674484253,0.027841845527291298,-0.19367828965187073
1725629748968045800,4.0160458984375,0.43437111377716064,0.011874760501086712,-0.31944119930267334
1725629748978079700,4.026079833984375,0.4907289445400238,-0.10717493295669556,-0.4750518202781677
1725629748988114000,4.036114013671875,0.5706397891044617,-0.2363480031490326,-0.6399338841438293
1725629748998147800,4.04614794921875,0.6201711297035217,-0.2540383040904999,-0.826675534248352
1725629749008181800,4.056181640625,0.6787739992141724,-0.28015103936195374,-1.0040210485458374
1725629749018216000,4.0662158203125,0.7885327339172363,-0.3131862282752991,-1.1312698125839233
1725629749028249900,4.076249755859375,0.8917019367218018,-0.31484848260879517,-1.1977020502090454
1725629749038283800,4.08628369140625,0.9863964915275574,-0.2909649908542633,-1.22727370262146
1725629749048318000,4.09631787109375,1.0373046398162842,-0.19974501430988312,-1.2351443767547607
1725629749058351900,4.106351806640625,1.0492267608642578,-0.1682099848985672,-1.2052381038665771
1725629749068385800,4.1163857421875,1.036008358001709,-0.11561469733715057,-1.0688111782073975
1725629749078420000,4.126419921875,1.033704161643982,-0.056422486901283264,-0.8522335290908813
1725629749088454000,4.136453857421875,1.0436028242111206,-0.12711551785469055,-0.5730707049369812
1725629749098487800,4.14648779296875,1.0245921611785889,-0.037245821207761765,-0.22487112879753113
1725629749108522000,4.15652197265625,0.9656631350517273,0.052388086915016174,0.15477868914604187
1725629749118556000,4.166555908203125,0.8838910460472107,0.01728922128677368,0.4896911680698395
1725629749128590800,4.1765908203125,0.7804799675941467,-0.03593280911445618,0.6717630624771118
1725629749138625000,4.186625,0.7097053527832031,-0.027148373425006866,0.6347848176956177
1725629749148658700,4.19665869140625,0.6341651678085327,0.023353759199380875,0.4648036062717438
1725629749158692900,4.20669287109375,0.5656864643096924,0.07652883231639862,0.2265380471944809
1725629749168727000,4.21672705078125,0.5004793405532837,0.08699726313352585,0.010541660711169243
1725629749178760700,4.2267607421875,0.42750847339630127,0.045747824013233185,-0.14980967342853546
1725629749188795000,4.236794921875,0.34281328320503235,0.07302209734916687,-0.21452420949935913
1725629749198829000,4.2468291015625,0.28993675112724304,0.0688643679022789,-0.21343311667442322
1725629749208862700,4.25686279296875,0.2744070291519165,0.021080901846289635,-0.15118815004825592
1725629749218897000,4.26689697265625,0.2707723379135132,0.09666167944669724,-0.05603393167257309
1725629749228931000,4.27693115234375,0.29177212715148926,0.12359154224395752,0.057157400995492935
1725629749238964700,4.28696484375,0.3140886127948761,0.072654590010643,0.16028404235839844
1725629749248999000,4.2969990234375,0.31077873706817627,0.043446965515613556,0.23806092143058777
1725629749259033000,4.307033203125,0.2971436083316803,0.014099731110036373,0.22351419925689697
1725629749269066800,4.317066650390625,0.3207356333732605,0.10146995633840561,0.08763942122459412
1725629749279101000,4.327100830078125,0.4267920255661011,0.2947555184364319,-0.11291631311178207
1725629749289135000,4.337135009765625,0.6102541089057922,0.38685423135757446,-0.32218995690345764
1725629749299168800,4.347168701171875,0.7674511671066284,0.35083577036857605,-0.45534056425094604
1725629749309204000,4.357203857421875,0.9003487825393677,0.36778971552848816,-0.5071105360984802
1725629749319238000,4.36723779296875,1.0807816982269287,0.4104042947292328,-0.6089956164360046
1725629749329271800,4.377271728515625,1.2191635370254517,0.38874170184135437,-0.7358734607696533
1725629749339306000,4.387305908203125,1.2718794345855713,0.3149327337741852,-0.8186942934989929
1725629749349340000,4.39733984375,1.2704187631607056,0.27234119176864624,-0.8319165706634521
1725629749359373800,4.407373779296875,1.2239668369293213,0.22777026891708374,-0.8106709718704224
1725629749369408000,4.417407958984375,1.171616554260254,0.18062885105609894,-0.738154411315918
1725629749379442000,4.42744189453125,1.1041476726531982,0.18062850832939148,-0.6522641777992249
1725629749389475800,4.437475830078125,1.0065487623214722,0.0628589391708374,-0.5412813425064087
1725629749399510000,4.447510009765625,0.8641611337661743,-0.13781636953353882,-0.4551434814929962
1725629749409543700,4.457543701171875,0.8553769588470459,-0.25471851229667664,-0.461712121963501
1725629749419577900,4.467577880859375,0.7591500282287598,-0.22214007377624512,-0.5371235609054565
1725629749429612000,4.477612060546875,0.6653448939323425,-0.08692643791437149,-0.6622340679168701
1725629749439645700,4.487645751953125,0.5555211901664734,-0.0070358640514314175,-0.7056646347045898
1725629749449680000,4.497679931640625,0.42190831899642944,0.04051072895526886,-0.6926164627075195
1725629749459714000,4.507714111328125,0.24463793635368347,-0.032635919749736786,-0.616081178188324
1725629749469747700,4.517747802734375,-0.018021071329712868,-0.13340452313423157,-0.3250763714313507
1725629749479782000,4.527781982421875,0.034820836037397385,-0.16283990442752838,-0.25402671098709106
1725629749489816000,4.537816162109375,-0.054360441863536835,-0.23322811722755432,-0.23794351518154144
1725629749499850800,4.547850830078125,-0.20159809291362762,-0.17589718103408813,-0.2465580552816391
1725629749509885000,4.557885009765625,-0.31774771213531494,-0.10094704478979111,-0.23509171605110168
1725629749519918800,4.5679189453125,-0.3946478068828583,-0.0881766602396965,-0.10531481355428696
1725629749529952800,4.577952880859375,-0.4528155028820038,-0.1505706012248993,0.11550205945968628
1725629749539987000,4.587987060546875,-0.4326423108577728,-0.23448148369789124,0.3823675811290741
1725629749550020900,4.598020751953125,-0.4136943817138672,-0.34942227602005005,0.6519806981086731
1725629749560054800,4.6080546875,-0.4304528534412384,-0.425599604845047,0.8976988196372986
1725629749570089000,4.6180888671875,-0.4779036343097687,-0.4512045383453369,1.0713310241699219
1725629749580123000,4.628122802734375,-0.5496156215667725,-0.36890700459480286,1.1357784271240234
1725629749590156800,4.63815673828125,-0.6377347707748413,-0.3350256085395813,1.039914608001709
1725629749600191000,4.64819091796875,-0.7335662245750427,-0.23889856040477753,0.7882673740386963
1725629749610225000,4.658224853515625,-0.8459892868995667,-0.07338245958089828,0.44883182644844055
1725629749620258800,4.6682587890625,-0.9328882694244385,0.06167709082365036,0.08031240105628967
1725629749630293000,4.67829296875,-0.9778639674186707,0.1936989575624466,-0.28410816192626953
1725629749640327000,4.688326904296875,-0.9830424785614014,0.30223530530929565,-0.5806772112846375
1725629749650360800,4.69836083984375,-0.9729287624359131,0.37562382221221924,-0.7868451476097107
1725629749660395000,4.70839501953125,-0.9475275278091431,0.34995147585868835,-0.9117916226387024
1725629749670428700,4.7184287109375,-0.8998619914054871,0.2169848531484604,-0.9753199815750122
1725629749680464000,4.7284638671875,-0.8416956067085266,0.1760328859090805,-0.9791128635406494
1725629749690497800,4.738497802734375,-0.7607665657997131,0.08707663416862488,-0.8668569922447205
1725629749700532000,4.748531982421875,-0.623885989189148,0.004852868616580963,-0.6547641754150391
1725629749710566000,4.75856591796875,-0.4585043787956238,-0.0010043871589004993,-0.3842489719390869
1725629749720599800,4.768599853515625,-0.27098026871681213,-0.06660683453083038,-0.08266250044107437
1725629749730634000,4.778634033203125,-0.0780235305428505,-0.03782167285680771,0.19191640615463257
1725629749740668000,4.78866796875,0.04114307835698128,0.08485817164182663,0.4050971269607544
1725629749750701800,4.798701904296875,0.09310470521450043,0.1511707454919815,0.5154557824134827
1725629749760735700,4.80873583984375,0.0759049504995346,0.2606258690357208,0.5151556730270386
1725629749770770000,4.81877001953125,0.0294890608638525,0.29167237877845764,0.4219365417957306
1725629749780803800,4.828803955078125,-0.005865202285349369,0.21999871730804443,0.28825199604034424
1725629749790837800,4.838837646484375,-0.07424082607030869,0.2768063545227051,0.1896740198135376
1725629749800872000,4.848871826171875,-0.2679833769798279,0.3823000192642212,0.24766089022159576
1725629749810905900,4.85890576171875,-0.4097403287887573,0.2774946093559265,0.3559735119342804
1725629749820939800,4.868939697265625,-0.4839423894882202,0.21220827102661133,0.34151121973991394
1725629749830974000,4.878973876953125,-0.5481902360916138,0.30369794368743896,0.21938152611255646
1725629749841007900,4.8890078125,-0.6641733050346375,0.3459641933441162,0.0020222992170602083
1725629749851041800,4.899041748046875,-0.8371880650520325,0.2742082476615906,-0.1757497787475586
1725629749861076000,4.909075927734375,-1.059859275817871,0.20803163945674896,-0.21043851971626282
1725629749871110000,4.91910986328125,-1.2903847694396973,0.053408533334732056,-0.1358788013458252
1725629749881145000,4.92914501953125,-1.4326149225234985,-0.1655310094356537,-0.022482475265860558
1725629749891179000,4.939178955078125,-1.4803823232650757,-0.2608056962490082,0.13074347376823425
1725629749901213200,4.949213134765625,-1.4737532138824463,-0.2766096889972687,0.32060930132865906
1725629749911247000,4.9592470703125,-1.4213485717773438,-0.30088046193122864,0.4831807613372803
1725629749921281000,4.969281005859375,-1.2717406749725342,-0.31506821513175964,0.5787287950515747
1725629749931315200,4.979315185546875,-1.0287883281707764,-0.21262982487678528,0.609211266040802
1725629749941349000,4.98934912109375,-0.8374737501144409,-0.04937724769115448,0.6439332962036133
1725629749951383000,4.999383056640625,-0.6656866073608398,0.11190642416477203,0.6740827560424805
1725629749961417200,5.009417236328125,-0.4160301685333252,0.23714344203472137,0.7034318447113037
1725629749971451100,5.019451171875,-0.13279540836811066,0.22738325595855713,0.7362484931945801
1725629749981485000,5.029485107421875,0.08005321025848389,0.22663436830043793,0.7446641325950623
1725629749991519200,5.039519287109375,0.19074362516403198,0.17086991667747498,0.7812709808349609
1725629750001553200,5.04955322265625,0.315782755613327,0.1260710209608078,0.7369123101234436
1725629750011587000,5.059587158203125,0.4488116502761841,0.10451852530241013,0.6109355092048645
1725629750021621200,5.069621337890625,0.5849276781082153,0.0893494263291359,0.5351435542106628
1725629750031655200,5.0796552734375,0.6135760545730591,-0.04180225357413292,0.4480873644351959
1725629750041689000,5.089689208984375,0.6102170348167419,-0.20947301387786865,0.32120585441589355
1725629750051723000,5.099722900390625,0.5869888663291931,-0.30126267671585083,0.15879282355308533
1725629750061758000,5.109758056640625,0.5809879302978516,-0.3453960716724396,0.01776272989809513
1725629750071792000,5.119792236328125,0.6014204621315002,-0.39303702116012573,-0.0728745087981224
1725629750081826300,5.129826416015625,0.6283881664276123,-0.41880232095718384,-0.15000978112220764
1725629750091860000,5.13985986328125,0.6503621339797974,-0.3751167058944702,-0.2486448884010315
1725629750101894100,5.14989404296875,0.6822165250778198,-0.28806567192077637,-0.3782292306423187
1725629750111928300,5.15992822265625,0.7292428016662598,-0.23403383791446686,-0.514612078666687
1725629750121962000,5.1699619140625,0.7557814717292786,-0.13079160451889038,-0.6394035220146179
1725629750131996200,5.17999609375,0.7794955372810364,-0.1786476969718933,-0.7344211935997009
1725629750142030000,5.190030029296875,0.8515539765357971,-0.3506636619567871,-0.7440517544746399
1725629750152064000,5.20006396484375,0.9647680521011353,-0.24142847955226898,-0.6509813070297241
1725629750162098200,5.21009814453125,1.0565451383590698,-0.019278772175312042,-0.4175366461277008
1725629750172132000,5.220132080078125,1.0612188577651978,0.10653752833604813,-0.02845647744834423
1725629750182166000,5.230166015625,0.9859398007392883,0.18603768944740295,0.44845786690711975
1725629750192200200,5.2402001953125,0.8708512783050537,0.22780369222164154,0.8786607384681702
1725629750202234000,5.250234130859375,0.7346577644348145,0.14802522957324982,1.0848780870437622
1725629750212268000,5.26026806640625,0.5453463792800903,0.1393512338399887,0.9785465002059937
1725629750222302200,5.27030224609375,0.3989923596382141,0.05217345058917999,0.6053969264030457
1725629750232336100,5.280336181640625,0.32007259130477905,-0.03343985229730606,0.10828354209661484
1725629750242371000,5.29037109375,0.26204338669776917,-0.0790717825293541,-0.3100476562976837
1725629750252405200,5.3004052734375,0.2094936966896057,-0.11093612760305405,-0.5326322317123413
1725629750262439000,5.31043896484375,0.16173630952835083,-0.024331990629434586,-0.5504285097122192
1725629750272473000,5.32047314453125,0.13690680265426636,0.0916178971529007,-0.3904644846916199
1725629750282507300,5.33050732421875,0.1633959412574768,0.012860496528446674,-0.13854540884494781
1725629750292541000,5.340541015625,0.19335472583770752,-0.03926291689276695,0.12090127915143967
1725629750302575000,5.3505751953125,0.22553768754005432,-0.03305188938975334,0.30578458309173584
1725629750312609300,5.360609375,0.28616616129875183,0.022502586245536804,0.36072465777397156
1725629750322643000,5.370642822265625,0.3469544053077698,0.23748786747455597,0.3192126452922821
1725629750332677000,5.380677001953125,0.4569014310836792,0.40414583683013916,0.18533095717430115
1725629750342711300,5.390711181640625,0.6279802322387695,0.3875378370285034,-0.004025655798614025
1725629750352745000,5.400744873046875,0.7612065076828003,0.3584998846054077,-0.15400996804237366
1725629750362779100,5.410779052734375,0.8145472407341003,0.3397424519062042,-0.27473875880241394
1725629750372813300,5.420813232421875,0.8408070802688599,0.185812309384346,-0.4217061400413513
1725629750382847000,5.430846923828125,0.8478079438209534,0.08063395321369171,-0.5433720946311951
1725629750392881000,5.440880859375,0.802992582321167,0.02777229994535446,-0.561538577079773
1725629750509921500,5.557921630859375,0.09296789020299911,2.2101688385009766,-0.8414819240570068
1725629750519954400,5.567954345703125,0.04939454793930054,2.3263912200927734,-0.9696176648139954
1725629750529988600,5.577988525390625,0.027534255757927895,2.0662903785705566,-0.9865828156471252
1725629750540022300,5.588022216796875,-0.005313142668455839,1.6775928735733032,-0.9624235033988953
1725629750550055400,5.598055419921875,-0.024814406409859657,1.177159070968628,-0.8104875087738037
1725629750560089300,5.60808935546875,-0.04351577162742615,0.7340248823165894,-0.6340636014938354
1725629750570122500,5.61812255859375,-0.08222881704568863,0.3824133276939392,-0.47797468304634094
1725629750580156700,5.62815673828125,-0.17871320247650146,0.22430242598056793,-0.43916207551956177
1725629750590190300,5.6381904296875,-0.24089480936527252,0.18607833981513977,-0.4839561879634857
1725629750600223500,5.648223388671875,-0.28348711133003235,0.30656781792640686,-0.5770047903060913
1725629750610257400,5.65825732421875,-0.3028155267238617,0.56810462474823,-0.6919654607772827
1725629750620291600,5.66829150390625,-0.28489452600479126,0.5293105244636536,-0.853651225566864
1725629750630324500,5.678324462890625,-0.26833686232566833,0.31020238995552063,-0.9986574053764343
1725629750640358400,5.6883583984375,-0.25434061884880066,-0.016952162608504295,-1.094882607460022
1725629750650391300,5.698391357421875,-0.26477596163749695,-0.39708802103996277,-1.1728205680847168
1725629750660425500,5.708425537109375,-0.2928527593612671,-0.7784854173660278,-1.2971662282943726
1725629750670459400,5.71845947265625,-0.37973812222480774,-0.8597890138626099,-1.4654614925384521
1725629750680492300,5.7284921875,-0.3652590811252594,-0.8105284571647644,-1.5631555318832397
1725629750690526500,5.7385263671875,-0.2998822033405304,-0.7965471148490906,-1.5950562953948975
1725629750700560400,5.748560302734375,-0.22730888426303864,-0.8863881826400757,-1.5167008638381958
1725629750710593500,5.758593505859375,-0.15708425641059875,-0.9007463455200195,-1.2743403911590576
1725629750720627500,5.76862744140625,-0.08975239098072052,-0.9036776423454285,-0.8965398073196411
1725629750730661400,5.778661376953125,-0.12739509344100952,-1.0057423114776611,-0.5257803797721863
1725629750740694500,5.788694580078125,-0.2137991487979889,-0.9817102551460266,-0.2516726553440094
1725629750750728400,5.798728515625,-0.2275668829679489,-0.294240802526474,0.26222580671310425
1725629750760761600,5.80876171875,-0.3088538646697998,0.9930258989334106,1.1413257122039795
1725629750770795300,5.818795166015625,-0.3779546320438385,2.753232955932617,2.0707807540893555
1725629750780829400,5.828829345703125,-0.3849962651729584,3.9831972122192383,2.4843242168426514
1725629750790862600,5.838862548828125,-0.3676721453666687,1.6805275678634644,0.9704623222351074
1725629750800896500,5.848896484375,-0.19869641959667206,-1.781585693359375,-1.1114096641540527
1725629750810930400,5.858930419921875,0.06979576498270035,-1.4134206771850586,-1.2967365980148315
1725629750820963300,5.86896337890625,0.2935499846935272,-0.1969667673110962,-0.8899272084236145
1725629750830997500,5.87899755859375,0.6200886964797974,0.5944107174873352,-0.8551716208457947
1725629750841030400,5.889030517578125,1.0328986644744873,0.6776612997055054,-1.1280019283294678
1725629750851064300,5.899064208984375,1.072982668876648,1.061097264289856,-1.0947926044464111
1725629750861098500,5.909098388671875,0.7260285019874573,1.4772714376449585,-0.9329675436019897
1725629750871131400,5.91913134765625,0.13707681000232697,1.4918031692504883,-0.8707329630851746
1725629750881165600,5.92916552734375,-0.457282155752182,1.258928894996643,-0.800970196723938
1725629750891199500,5.939199462890625,-0.9664223790168762,0.586470901966095,-0.7731708288192749
1725629750901232400,5.949232421875,-1.4058523178100586,-0.36895549297332764,-0.6708559989929199
1725629750911266600,5.9592666015625,-1.6584933996200562,-1.073217511177063,-0.4022809863090515
1725629750921300500,5.969300537109375,-1.6818726062774658,-1.4383107423782349,0.017420755699276924
1725629750931333600,5.979333740234375,-1.467047929763794,-1.424923062324524,0.5052218437194824
1725629750941367300,5.9893671875,-1.0820116996765137,-1.21096932888031,0.9670844674110413
1725629750951400400,5.999400390625,-0.442892462015152,-0.8626497983932495,1.1205544471740723
1725629750961434600,6.0094345703125,0.2323925495147705,-0.04353317618370056,0.9697148203849792
1725629750971468500,6.019468505859375,0.7121439576148987,0.7102596163749695,0.790787398815155
1725629750981501700,6.029501708984375,0.863501250743866,0.7816668152809143,0.5727720856666565
1725629750991535400,6.039535400390625,0.8361236453056335,0.35988524556159973,0.38484159111976624
1725629751001569500,6.049569580078125,0.7350743412971497,-0.3760511875152588,0.30260908603668213
1725629751011602400,6.0596025390625,0.512401819229126,-1.1444551944732666,0.4378790259361267
1725629751021636600,6.06963671875,0.24027177691459656,-1.5066043138504028,0.7150683999061584
1725629751031670500,6.07967041015625,0.03868485242128372,-1.326128602027893,0.8514345288276672
1725629751041703400,6.089703369140625,-0.02064676582813263,-0.7949073910713196,0.6644790172576904
1725629751051737600,6.099737548828125,0.01265872735530138,-0.20602867007255554,0.2551754415035248
1725629751061770500,6.1097705078125,0.1349228322505951,0.36478927731513977,-0.16541427373886108
1725629751071804400,6.119804443359375,0.18526962399482727,0.7987534403800964,-0.6364715099334717
1725629751081838600,6.129838623046875,0.12206931412220001,0.8688791394233704,-1.0891313552856445
1725629751242376400,6.29037646484375,1.7709026336669922,0.23996414244174957,0.9015730619430542
1725629751252410400,6.300410400390625,1.575302243232727,-0.18293198943138123,1.207890510559082
1725629751262443500,6.310443603515625,1.1614025831222534,-0.6286996006965637,1.4287649393081665
1725629751272477400,6.3204775390625,0.6094399094581604,-0.9366081953048706,1.45575749874115
1725629751282511400,6.330511474609375,0.10972760617733002,-0.9075963497161865,1.3463292121887207
1725629751292544500,6.34054443359375,-0.2583790421485901,-0.6027341485023499,1.1712071895599365
1725629751302578400,6.350578369140625,-0.45332226157188416,-0.32369348406791687,0.9424831867218018
1725629751312612600,6.360612548828125,-0.4441756308078766,-0.1386709213256836,0.6459002494812012
1725629751322645500,6.3706455078125,-0.2301373928785324,0.02973405085504055,0.33334293961524963
1725629751332679400,6.380679443359375,0.07600387930870056,0.18751941621303558,0.026803243905305862
1725629751342713600,6.390713623046875,0.3418435752391815,0.29323336482048035,-0.22271984815597534
1725629751352746500,6.40074658203125,0.4816526174545288,0.29510077834129333,-0.37390536069869995
1725629751362780700,6.41078076171875,0.5179103016853333,0.19551056623458862,-0.4051162898540497
1725629751372813600,6.4208134765625,0.5062485933303833,0.047429751604795456,-0.3353712856769562
1725629751382847500,6.430847412109375,0.47504541277885437,-0.08047069609165192,-0.21371224522590637
1725629751392881400,6.44088134765625,0.41520631313323975,-0.15922115743160248,-0.07079023122787476
1725629751402914600,6.45091455078125,0.32221919298171997,-0.19560416042804718,0.045787252485752106
1725629751412948700,6.46094873046875,0.20934191346168518,-0.19163605570793152,0.12720860540866852
1725629751422982400,6.470982421875,0.11072208732366562,-0.1499892771244049,0.16257548332214355
1725629751433015600,6.481015625,0.05455895513296127,-0.09092995524406433,0.1507028341293335
1725629751443049500,6.491049560546875,0.022026723250746727,-0.055842071771621704,0.0885079875588417
1725629751453083400,6.50108349609375,-0.0013880557380616665,-0.06772855669260025,-0.02604363113641739
1725629751463116300,6.5111162109375,-0.011997256428003311,-0.0789395123720169,-0.12778577208518982
1725629751473150500,6.521150390625,0.0014234777772799134,-0.08577025681734085,-0.2007601112127304
1725629751483184600,6.5311845703125,0.017559275031089783,-0.12594644725322723,-0.24469977617263794
1725629751493217500,6.541217529296875,0.025715738534927368,-0.17618271708488464,-0.26571157574653625
1725629751503251500,6.55125146484375,0.015046220272779465,-0.19835186004638672,-0.25648269057273865
1725629751513285400,6.561285400390625,-0.02126491442322731,-0.21331189572811127,-0.1974974125623703
1725629751523318500,6.571318603515625,-0.05948607623577118,-0.1960930973291397,-0.13352671265602112
1725629751533352400,6.5813525390625,-0.07418858259916306,-0.12895241379737854,-0.07155629247426987
1725629751543385600,6.591385498046875,-0.07048068940639496,-0.038824133574962616,-0.024782521650195122
1725629751553419500,6.60141943359375,-0.05285748466849327,0.024422481656074524,-0.008538836613297462
1725629751563453400,6.611453369140625,-0.024938831105828285,0.08135950565338135,-0.013905733823776245
1725629751573486600,6.621486572265625,-0.006466879975050688,0.1222613975405693,-0.020886678248643875
1725629751583520500,6.6315205078125,-0.015460026450455189,0.1776924729347229,-0.023835105821490288
1725629751593554400,6.641554443359375,-0.036106184124946594,0.20479066669940948,-0.022680358961224556
1725629751603587300,6.65158740234375,-0.06661665439605713,0.14504759013652802,-0.00811053067445755
1725629751613621500,6.66162158203125,-0.13192667067050934,0.036006860435009,0.01866861991584301
1725629751623655700,6.67165576171875,-0.2218046635389328,-0.13741685450077057,0.0006822944851592183
1725629751633688600,6.6816884765625,-0.27972760796546936,-0.3168310821056366,-0.036151621490716934
1725629751643722500,6.691722412109375,-0.2794750928878784,-0.3961935341358185,-0.05405547469854355
1725629751653756400,6.70175634765625,-0.2596057653427124,-0.38960033655166626,-0.07189199328422546
1725629751663789600,6.71178955078125,-0.241510272026062,-0.3612799644470215,-0.10645098239183426
1725629751673823500,6.721823486328125,-0.22420957684516907,-0.3304373621940613,-0.1340131014585495
1725629751683857400,6.731857421875,-0.19623373448848724,-0.2848094701766968,-0.13411808013916016
1725629751693890600,6.741890625,-0.17254437506198883,-0.21651245653629303,-0.11636092513799667
1725629751703924500,6.751924560546875,-0.1613481491804123,-0.17173166573047638,-0.09806802123785019
1725629751713957600,6.76195751953125,-0.15543779730796814,-0.11623777449131012,-0.07365748286247253
1725629751723991300,6.7719912109375,-0.14158964157104492,-0.094606913626194,-0.05374132841825485
1725629751734025500,6.782025390625,-0.11327757686376572,-0.11022236198186874,-0.019651269540190697
1725629751744058600,6.79205859375,-0.07603758573532104,-0.12125759571790695,0.02793988212943077
1725629751754092500,6.802092529296875,-0.060203760862350464,-0.12045571953058243,0.06149038299918175
1725629751764126500,6.81212646484375,-0.0663290023803711,-0.1100456714630127,0.07177542895078659
1725629751774159400,6.822159423828125,-0.07952150702476501,-0.0890386551618576,0.07229607552289963
1725629751784193500,6.832193603515625,-0.09458058327436447,-0.06122192367911339,0.059543441981077194
1725629751794227700,6.842227783203125,-0.12511585652828217,-0.052607130259275436,0.02358943596482277
1725629751804260600,6.852260498046875,-0.15444347262382507,-0.0857669934630394,0.00828477367758751
1725629751814294500,6.86229443359375,-0.16751693189144135,-0.12658526003360748,0.02057393081486225
1725629751824328400,6.872328369140625,-0.1730671525001526,-0.14448221027851105,0.040085140615701675
1725629751834361600,6.882361572265625,-0.16772699356079102,-0.13093949854373932,0.03591835871338844
1725629751844395500,6.8923955078125,-0.16157056391239166,-0.09404353052377701,-0.007796629797667265
1725629751854429400,6.902429443359375,-0.16134792566299438,-0.08682769536972046,-0.07702763378620148
1725629751864462300,6.91246240234375,-0.1496431529521942,-0.13584375381469727,-0.1457342654466629
1725629751874496500,6.92249658203125,-0.14304518699645996,-0.17423082888126373,-0.19951653480529785
1725629751884530200,6.9325302734375,-0.134786918759346,-0.17001821100711823,-0.2424660474061966
1725629751894563000,6.94256298828125,-0.12575826048851013,-0.1498623490333557,-0.27163615822792053
1725629751904597000,6.952596923828125,-0.11769424378871918,-0.11218328028917313,-0.3091195225715637
1725629751914630100,6.962630126953125,-0.09830749779939651,-0.06338191777467728,-0.3347660303115845
1725629751924664000,6.9726640625,-0.08595531433820724,-0.019290940836071968,-0.3500952124595642
1725629751934698000,6.982697998046875,-0.08168493956327438,-0.0023628235794603825,-0.3581360876560211
1725629751944731000,6.99273095703125,-0.09162876754999161,0.01243643183261156,-0.3550669848918915
1725629751954765000,7.00276513671875,-0.12070516496896744,0.041073136031627655,-0.3636503517627716
1725629751964799200,7.01279931640625,-0.13063670694828033,0.05450128763914108,-0.37341323494911194
1725629751974832000,7.02283203125,-0.12228742986917496,0.060420431196689606,-0.36548659205436707
1725629751984866000,7.032865966796875,-0.11049536615610123,0.06605933606624603,-0.33665022253990173
1725629751994900000,7.04289990234375,-0.11517108231782913,0.06549101322889328,-0.27796295285224915
1725629752004933000,7.05293310546875,-0.11030054092407227,0.0562528520822525,-0.1960461437702179
1725629752014967000,7.062967041015625,-0.09420493245124817,0.09077859669923782,-0.11493957787752151
1725629752025001000,7.0730009765625,-0.062383584678173065,0.16382139921188354,-0.10187845677137375
1725629752035034000,7.0830341796875,-0.023501966148614883,0.2352428436279297,-0.16405528783798218
1725629752045068000,7.093068115234375,0.012422740459442139,0.3336627781391144,-0.2641832232475281
1725629752055102200,7.103102294921875,0.056154776364564896,0.4092957675457001,-0.3512243926525116
1725629752065135000,7.113135009765625,0.09303727746009827,0.46268925070762634,-0.41304895281791687
1725629752075169000,7.1231689453125,0.16339214146137238,0.48527446389198303,-0.431791216135025
1725629752085202000,7.133201904296875,0.2493322491645813,0.4402777850627899,-0.3889750838279724
1725629752095236000,7.143236083984375,0.3479035794734955,0.3651353418827057,-0.28029918670654297
1725629752105270300,7.153270263671875,0.37793630361557007,0.3839845359325409,0.00589609844610095
1725629752115303000,7.163302978515625,0.2851560413837433,0.15072011947631836,0.24424314498901367
1725629752125337000,7.173337158203125,0.19620612263679504,-0.13559980690479279,0.249435156583786
1725629752135371000,7.18337109375,0.14286699891090393,-0.10710238665342331,0.1992201954126358
1725629752145404200,7.193404052734375,0.06279207020998001,-0.09027950465679169,0.11303509026765823
1725629752155438000,7.20343798828125,-0.030613774433732033,0.026656968519091606,0.04194200783967972
1725629752165472000,7.213471923828125,-0.08869121223688126,0.11546951532363892,0.06313693523406982
1725629752175505200,7.223505126953125,-0.10828036069869995,0.13898497819900513,0.23349934816360474
1725629752185539000,7.2335390625,-0.08565408736467361,0.054657064378261566,0.3956957459449768
1725629752195573000,7.243572998046875,-0.0000017689308151602745,-0.19705773890018463,0.44828546047210693
1725629752205606000,7.25360595703125,0.14855793118476868,-0.43593767285346985,0.4299606382846832
1725629752215640000,7.26364013671875,0.25418850779533386,-0.5656344294548035,0.37667664885520935
1725629752225674200,7.27367431640625,0.29922986030578613,-0.6034184694290161,0.30424070358276367
1725629752235707100,7.28370703125,0.32849401235580444,-0.5724102258682251,0.21209318935871124
1725629752245741000,7.293740966796875,0.3546311855316162,-0.4701245427131653,0.10294026136398315
1725629752255774000,7.30377392578125,0.3464007079601288,-0.29147541522979736,0.013330750167369843
1725629752265808100,7.31380810546875,0.30355608463287354,-0.07605256885290146,-0.07092810422182083
1725629752275842300,7.32384228515625,0.23098228871822357,0.11372002959251404,-0.14030052721500397
1725629752285875200,7.333875244140625,0.15762139856815338,0.2613029181957245,-0.1765708178281784
1725629752295909000,7.3439091796875,0.09587200731039047,0.3360314667224884,-0.17528212070465088
1725629752305943000,7.353943115234375,0.05558384954929352,0.33236226439476013,-0.15903756022453308
1725629752315976200,7.36397607421875,0.031241493299603462,0.2862730622291565,-0.12225532531738281
1725629752326010000,7.374010009765625,0.018022483214735985,0.18793228268623352,-0.08782389760017395
1725629752336044000,7.3840439453125,0.01889546774327755,0.08728370815515518,-0.054166071116924286
1725629752346077000,7.394076904296875,0.010664044879376888,0.0075740329921245575,-0.016716647893190384
1725629752356111000,7.404111083984375,-0.0005603798199445009,-0.04507666081190109,0.0025941997300833464
1725629752366145000,7.41414501953125,-0.008767765946686268,-0.06872968375682831,-0.0008898163214325905
1725629752376178000,7.424177978515625,-0.020290996879339218,-0.0829744040966034,-0.021948495879769325
1725629752386212000,7.434212158203125,-0.025433886796236038,-0.06768389791250229,-0.056185923516750336
1725629752396245000,7.444244873046875,-0.023020263761281967,-0.02496199682354927,-0.08160419762134552
1725629752406279200,7.454279052734375,-0.008792772889137268,0.019628284499049187,-0.09553174674510956
1725629752416313000,7.46431298828125,0.00958250556141138,0.03919772058725357,-0.09456822276115417
1725629752426346000,7.474345947265625,0.016705013811588287,0.025033511221408844,-0.08272051066160202
1725629752436380200,7.484380126953125,0.02208087220788002,-0.02735033445060253,-0.08266058564186096
1725629752446414000,7.4944140625,0.032846491783857346,-0.07188022136688232,-0.08254730701446533
1725629752456447200,7.504447265625,0.04222055524587631,-0.07757539302110672,-0.07622815668582916
1725629752466481000,7.51448095703125,0.038610607385635376,-0.0647570863366127,-0.05481093004345894
1725629752476515000,7.52451513671875,0.03297802433371544,-0.029506679624319077,-0.030709324404597282
1725629752486548200,7.53454833984375,0.027764765545725822,0.004323925822973251,-0.009791715070605278
1725629752496582100,7.54458203125,0.010524792596697807,0.015725452452898026,0.01068879198282957
1725629752506616000,7.554615966796875,-0.0018036591354757547,-0.005748621188104153,0.018932795152068138
1725629752516649000,7.56464892578125,-0.001349323894828558,-0.013513334095478058,0.02526073157787323
1725629752526683100,7.57468310546875,-0.011320766061544418,-0.013671942055225372,0.035615161061286926
1725629752536716000,7.584716064453125,-0.03191845491528511,-0.01185673289000988,0.04486218839883804
1725629752546750000,7.59475,-0.06490320712327957,-0.0016546493861824274,0.05869705602526665
1725629752556784000,7.6047841796875,-0.08767642825841904,0.021677305921912193,0.06979231536388397
1725629752566817000,7.614817138671875,-0.0920865461230278,0.041364897042512894,0.06748759746551514
1725629752576851200,7.624851318359375,-0.08584782481193542,0.03856617957353592,0.06051730737090111
1725629752586884900,7.634884765625,-0.0762246623635292,0.01690780371427536,0.04947824776172638
1725629752596918000,7.64491796875,-0.0825992003083229,-0.01371854916214943,0.024072222411632538
1725629752606952200,7.6549521484375,-0.09877853095531464,-0.0282308217138052,-0.00980503112077713
1725629752616986000,7.664986083984375,-0.09416753053665161,-0.01177887711673975,-0.035473909229040146
1725629752627019300,7.675019287109375,-0.06941374391317368,0.021842852234840393,-0.043441709131002426
1725629752637053000,7.685052978515625,-0.0424303263425827,0.05504155158996582,-0.0443626306951046
1725629752647087000,7.695087158203125,-0.02746783383190632,0.060655657202005386,-0.030546613037586212
1725629752657120000,7.7051201171875,-0.022737260907888412,0.04269316792488098,-0.012986263260245323
1725629752667154200,7.715154296875,-0.022369660437107086,0.0010835824068635702,0.007070784457027912
1725629752677187000,7.72518701171875,-0.02382694184780121,-0.0649431049823761,0.03670830279588699
1725629752687221000,7.735220947265625,-0.032074425369501114,-0.14219805598258972,0.047003086656332016
1725629752697255200,7.745255126953125,-0.029926855117082596,-0.17095327377319336,0.04474286362528801
1725629752707288000,7.7552880859375,-0.023768728598952293,-0.13931620121002197,0.0297892764210701
1725629752717322000,7.765322021484375,-0.014672702178359032,-0.08876246958971024,0.004909224808216095
1725629752727356000,7.77535595703125,-0.010973777621984482,-0.03468295931816101,-0.027944767847657204
1725629752737389000,7.78538916015625,0.0027537525165826082,0.005712131969630718,-0.06861522793769836
1725629752747423200,7.79542333984375,0.021456832066178322,0.008471015840768814,-0.10204289853572845
1725629752757457000,7.805456787109375,0.03860625997185707,-0.00013365776976570487,-0.10993890464305878
1725629752767490000,7.815489990234375,0.043509576469659805,-0.01104360818862915,-0.08526845276355743
1725629752777524000,7.82552392578125,0.04193538427352905,-0.03474494442343712,-0.051948584616184235
1725629752787557000,7.83555712890625,0.034155286848545074,-0.06417790800333023,-0.01822088658809662
1725629752797591000,7.845591064453125,0.031397584825754166,-0.07657678425312042,0.01471362728625536
1725629752807625000,7.855625,0.026907403022050858,-0.0807500034570694,0.03363244980573654
1725629752817658000,7.865658203125,0.011888240464031696,-0.089408740401268,0.0433037169277668
1725629752827692000,7.875692138671875,-0.016530413180589676,-0.06301311403512955,0.0505753830075264
1725629752837726200,7.885726318359375,-0.051658038049936295,-0.016240546479821205,0.050560202449560165
1725629752847759000,7.895759033203125,-0.07508107274770737,0.016570130363106728,0.035815346986055374
1725629752857793000,7.90579296875,-0.07651864737272263,0.02904544211924076,0.010416780598461628
1725629752867827200,7.9158271484375,-0.07107988744974136,0.021870778873562813,-0.01539850514382124
1725629752877860000,7.925860107421875,-0.06097851321101189,0.009526495821774006,-0.0404583178460598
1725629752887894800,7.935894775390625,-0.05351665988564491,0.01796615868806839,-0.07181790471076965
1725629752897927700,7.945927734375,-0.025313517078757286,0.03415658324956894,-0.11512196809053421
1725629752907961900,7.9559619140625,0.008595237508416176,0.03174817934632301,-0.14648674428462982
1725629752917996000,7.96599609375,0.03908656910061836,0.04669836536049843,-0.1659528613090515
1725629752928029000,7.97602880859375,0.06729433685541153,0.08931045979261398,-0.17033660411834717
1725629752938062800,7.986062744140625,0.0903775542974472,0.13497036695480347,-0.1657826006412506
1725629752948096800,7.9960966796875,0.11143456399440765,0.16768233478069305,-0.1548512876033783
1725629752958130000,8.0061298828125,0.12320093810558319,0.1799672245979309,-0.13513830304145813
1725629752968163800,8.016163818359376,0.1256723552942276,0.16679111123085022,-0.09780395030975342
1725629752978197800,8.02619775390625,0.1261509209871292,0.1360856592655182,-0.047990329563617706
1725629752988231000,8.03623095703125,0.13225328922271729,0.11142371594905853,0.010976051911711693
1725629752998264800,8.046264892578124,0.13450366258621216,0.08968992531299591,0.06888756155967712
1725629753008298000,8.056298095703125,0.12857919931411743,0.07841703295707703,0.1094091534614563
1725629753018331600,8.06633154296875,0.11490041017532349,0.07912436872720718,0.13282153010368347
1725629753028365800,8.07636572265625,0.10967054963111877,0.0910433754324913,0.13092359900474548
1725629753038399000,8.08639892578125,0.14129264652729034,0.14146633446216583,0.11324605345726013
1725629753048433000,8.096432861328125,0.12050759792327881,0.10021401941776276,0.049343645572662354
1725629753058466800,8.106466796875,0.07545063644647598,0.06519238650798798,0.0005710459081456065
1725629753068499700,8.116499755859374,0.056976448744535446,0.090385302901268,-0.01624908111989498
1725629753078534000,8.126533935546876,0.0489768460392952,0.08356042206287384,-0.020442228764295578
1725629753088568000,8.136568115234375,0.04142012074589729,0.043536704033613205,-0.022010058164596558
1725629753098601000,8.14660107421875,0.027464622631669044,0.0065451329573988914,-0.014562263153493404
1725629753108635000,8.156634765625,0.01778045855462551,-0.029161786660552025,0.012633268721401691
1725629753118667800,8.166667724609376,0.009490038268268108,-0.06102731078863144,0.03673860803246498
1725629753128702000,8.176701904296875,0.005576011259108782,-0.08708100020885468,0.061377763748168945
1725629753138735900,8.18673583984375,-0.008545666001737118,-0.09549286216497421,0.07308395951986313
1725629753148769000,8.19676904296875,-0.04478048160672188,-0.09379355609416962,0.0728750228881836
1725629753158802700,8.206802734375,-0.06228437274694443,-0.08227085322141647,0.05290691554546356
1725629753168836900,8.2168369140625,-0.0626002848148346,-0.06725838035345078,0.027113039046525955
1725629753178870000,8.2268701171875,-0.07268860191106796,-0.0485808327794075,0.008117776364088058
1725629753188904000,8.236904052734374,-0.08829735964536667,-0.035088978707790375,-0.008258087560534477
1725629753198937900,8.246937744140626,-0.10533413290977478,-0.03619791939854622,-0.015220655128359795
1725629753208970800,8.256970703125,-0.12071561813354492,-0.05457525700330734,-0.015954039990901947
1725629753219005000,8.2670048828125,-0.13320450484752655,-0.07153107225894928,-0.012634143233299255
1725629753229037800,8.277037841796876,-0.1413947492837906,-0.09735359251499176,-0.008311066776514053
1725629753239071700,8.28707177734375,-0.14916425943374634,-0.12579429149627686,-0.0011575501412153244
1725629753249106000,8.29710595703125,-0.16045130789279938,-0.13837748765945435,0.017940277233719826
1725629753259138800,8.307138916015624,-0.17639273405075073,-0.1300005167722702,0.02404637262225151
1725629753269173000,8.317173095703126,-0.17618443071842194,-0.0956418439745903,0.017473632469773293
1725629753279206700,8.32720654296875,-0.16555602848529816,-0.05227094143629074,-0.00989114586263895
1725629753289239800,8.33723974609375,-0.15347303450107574,-0.028334463015198708,-0.044937193393707275
1725629753299274000,8.34727392578125,-0.14489126205444336,-0.025004979223012924,-0.05972706153988838
1725629753309308000,8.357307861328126,-0.1358906775712967,-0.032615549862384796,-0.06955265998840332
1725629753319341000,8.367341064453125,-0.1315435916185379,-0.0210742074996233,-0.06659175455570221
1725629753329374700,8.377374755859375,-0.1190856397151947,0.011424591764807701,-0.05564427375793457
1725629753339409000,8.387408935546874,-0.10077374428510666,0.039540115743875504,-0.04009700566530228
1725629753349441800,8.39744189453125,-0.08415567874908447,0.05588763207197189,-0.013594384305179119
1725629753359476000,8.40747607421875,-0.07647991925477982,0.06768810003995895,0.0144417779520154
1725629753369508900,8.4175087890625,-0.05520525202155113,0.0802299901843071,0.03500058129429817
1725629753379542800,8.427542724609374,-0.045651163905858994,0.07497796416282654,0.055046193301677704
1725629753389577000,8.437576904296876,-0.017876729369163513,0.09497328102588654,0.0751105472445488
1725629753399609900,8.44760986328125,-0.02749606780707836,0.0648726373910904,0.06401262432336807
1725629753409643800,8.457643798828125,-0.05427122116088867,0.009281013160943985,0.03915201127529144
1725629753419678000,8.467677978515624,-0.0478130578994751,0.024609103798866272,0.030087143182754517
1725629753429710800,8.4777109375,-0.030134251341223717,0.036451488733291626,0.006844072137027979
1725629753439745000,8.4877451171875,-0.01643281988799572,0.03992451727390289,-0.024080820381641388
1725629753449778700,8.49777880859375,-0.006944926455616951,0.06738749146461487,-0.04961930587887764
1725629753459811800,8.507811767578126,0.0002450760221108794,0.08224713057279587,-0.0696105882525444
1725629753469845800,8.517845703125,-0.002690019551664591,0.07485324889421463,-0.07969187945127487
1725629753479879000,8.52787890625,-0.010291746817529202,0.07397787272930145,-0.0766494870185852
1725629753489912800,8.537912841796874,-0.0032895917538553476,0.07511006295681,-0.0798165425658226
1725629753499946800,8.54794677734375,0.03885892778635025,0.09246721118688583,-0.06995459645986557
1725629753509980000,8.55797998046875,0.05588478222489357,0.06618154793977737,-0.08987770229578018
1725629753520013800,8.568013916015625,0.049780018627643585,0.04684620350599289,-0.11658787727355957
1725629753530048000,8.578048095703124,0.05283220857381821,0.06651108711957932,-0.13165079057216644
1725629753540081000,8.588080810546876,0.0645677000284195,0.07214473932981491,-0.1393132358789444
1725629753550114800,8.59811474609375,0.08471482992172241,0.06487660109996796,-0.14017656445503235
1725629753560149000,8.60814892578125,0.08378298580646515,0.03185979649424553,-0.12259597331285477
1725629753570182000,8.618181884765624,0.068165123462677,0.0020106742158532143,-0.08268040418624878
1725629753580215800,8.6282158203125,0.046941060572862625,-0.024066200479865074,-0.03634751960635185
1725629753590248700,8.638248779296875,0.01970023661851883,-0.049344733357429504,0.003319094656035304
1725629753600283000,8.648282958984375,-0.0033869731705635786,-0.05709479749202728,0.03629382327198982
1725629753610316800,8.65831689453125,-0.015455886721611023,-0.05280204862356186,0.056829988956451416
1725629753620350000,8.668349853515625,-0.018074573948979378,-0.02676033042371273,0.06123405694961548
1725629753630383900,8.6783837890625,-0.0024179648607969284,0.014342175796627998,0.05361166223883629
1725629753640417800,8.688417724609375,0.012748205102980137,0.033573657274246216,0.03558659180998802
1725629753650451000,8.698450927734376,0.017771335318684578,0.027741407975554466,0.021094249561429024
1725629753660484900,8.70848486328125,0.0184970460832119,0.015430678613483906,0.01818021759390831
1725629753670518800,8.718518798828125,0.013433641754090786,0.019345426931977272,0.01853960193693638
1725629753680551700,8.7285517578125,0.010023198090493679,0.032845787703990936,0.006031532771885395
1725629753690585900,8.7385859375,0.004680691286921501,0.03396940603852272,-0.009758520871400833
1725629753700620000,8.7486201171875,-0.019721854478120804,0.04478023946285248,-0.0197251345962286
1725629753710653000,8.75865283203125,-0.05113606154918671,0.05826617777347565,-0.022963015362620354
1725629753720686800,8.768686767578124,-0.07706858962774277,0.0659259632229805,-0.032225221395492554
1725629753730719700,8.7787197265625,-0.09623595327138901,0.03843625262379646,-0.019278626888990402
1725629753740754000,8.78875390625,-0.1193428635597229,0.00808100774884224,0.031242337077856064
1725629753750788000,8.7987880859375,-0.1240789145231247,-0.006677105091512203,0.09131225943565369
1725629753760821000,8.808821044921874,-0.1008542850613594,-0.008990326896309853,0.12319135665893555
1725629753770855000,8.81885498046875,-0.06279899179935455,0.0035723610781133175,0.08876924216747284
1725629753780888800,8.828888916015625,-0.016788627952337265,0.00030679296469315886,-0.015070335939526558
1725629753790922000,8.838921875,0.025642015039920807,-0.06390956789255142,-0.12846769392490387
1725629753800955600,8.84895556640625,0.050654422491788864,-0.1560823619365692,-0.20289160311222076
1725629753810989800,8.85898974609375,0.05704529955983162,-0.1496027261018753,-0.24751020967960358
1725629753821022700,8.869022705078125,0.07135871797800064,-0.028744742274284363,-0.2948484420776367
1725629753831057000,8.879056884765625,0.09034164249897003,0.12847545742988586,-0.33920153975486755
1725629753841090000,8.889090087890626,0.09490310400724411,0.2282816767692566,-0.3958938419818878
1725629753851123700,8.899123779296875,0.07310803234577179,0.30290448665618896,-0.41575905680656433
1725629753861158000,8.909157958984375,-0.004494084045290947,0.41751575469970703,-0.3527523875236511
1725629753871190800,8.919190673828124,-0.1577398031949997,0.44430652260780334,-0.20755478739738464
1725629753881224700,8.929224609375,-0.2223411649465561,0.26466432213783264,-0.1660667359828949
1725629753891258600,8.939258544921875,-0.20265579223632812,0.23131519556045532,-0.10523246973752975
1725629753901291500,8.94929150390625,-0.17810091376304626,0.10034067183732986,0.009131129831075668
1725629753911325700,8.95932568359375,-0.11162476241588593,-0.062294621020555496,0.18435439467430115
1725629753921360000,8.96935986328125,-0.049340616911649704,-0.22373971343040466,0.36725229024887085
1725629753931392800,8.979392822265625,0.007733428385108709,-0.3398490846157074,0.5049623847007751
1725629753941426700,8.9894267578125,0.047546353191137314,-0.44665008783340454,0.5204734206199646
