time,seconds_elapsed,z,y,x
1725891791953528800,0.04152880859375,0,0,0
1725891791972377600,0.060377685546875,0.3946962356567383,0.48946142196655273,0.3090684413909912
1725891791991226400,0.079226318359375,0.25684165954589844,0.7654142379760742,0.0762641429901123
1725891792010075400,0.098075439453125,-0.1396160125732422,1.2822976112365723,-0.07544374465942383
1725891792028924200,0.116924072265625,0.6963891983032227,0.7680625915527344,0.1071774959564209
1725891792047773000,0.13577294921875,0.07121467590332031,0.1605825424194336,0.33368849754333496
1725891792066622000,0.1546220703125,0.4921703338623047,0.3032970428466797,0.6680688858032227
1725891792085470700,0.173470703125,1.6147136688232422,0.4626731872558594,0.08457565307617188
1725891792104319500,0.192319580078125,-2.7607831954956055,-0.27216625213623047,-0.43941211700439453
1725891792123168500,0.21116845703125,-0.8935508728027344,-0.1634202003479004,-0.3153226375579834
1725891792142017300,0.230017333984375,-2.0671043395996094,0.13459110260009766,-1.276508092880249
1725891792160866000,0.248865966796875,-0.793947696685791,0.036861419677734375,-1.0706677436828613
1725891792179715000,0.267715087890625,-0.40006542205810547,-0.7506341934204102,0.051978349685668945
1725891792198563800,0.286563720703125,-0.12163734436035156,-0.6585936546325684,1.1331779956817627
1725891792217412600,0.30541259765625,1.2058420181274414,-1.0604500770568848,0.7074503898620605
1725891792236261600,0.32426171875,2.483062744140625,-2.729055404663086,0.4876863956451416
1725891792255110400,0.3431103515625,1.730544090270996,-1.5013046264648438,0.11485826969146729
1725891792273959200,0.361959228515625,3.0522279739379883,1.5355005264282227,-1.6430116891860962
1725891792292808000,0.380807861328125,5.3573150634765625,0.8480477333068848,-2.470583915710449
1725891792311657000,0.399656982421875,3.091132164001465,-1.3491144180297852,-1.8731809854507446
1725891792330505700,0.418505615234375,1.4778952598571777,-2.6560916900634766,-3.1916909217834473
1725891792349354500,0.4373544921875,1.0351762771606445,-3.759394645690918,-1.9845293760299683
1725891792368203500,0.45620361328125,1.570136547088623,-3.921213150024414,-2.4794046878814697
1725891792387052300,0.47505224609375,1.3488179445266724,-5.602108478546143,-4.1227874755859375
1725891792405901000,0.493901123046875,-0.07244765758514404,-6.305275917053223,-6.001743316650391
1725891792424750000,0.51275,-2.1081295013427734,-6.796597480773926,-2.8183341026306152
1725891792443598800,0.531598876953125,-2.695345401763916,-5.219456195831299,-1.9186115264892578
1725891792462447600,0.550447509765625,-2.024728536605835,-3.5842177867889404,-2.948683500289917
1725891792481296600,0.569296630859375,-0.25185346603393555,-3.2913801670074463,-1.1962060928344727
1725891792500145400,0.5881455078125,-1.1439814567565918,-2.4414148330688477,-0.18935728073120117
1725891792518994200,0.606994140625,-0.4842703342437744,-1.7359399795532227,-0.05140876770019531
1725891792537843200,0.62584326171875,2.5451083183288574,-0.9419169425964355,0.4082307815551758
1725891792556692000,0.64469189453125,5.146927833557129,0.50787353515625,1.6697444915771484
1725891792575540700,0.663540771484375,5.560365676879883,1.323348045349121,2.0254974365234375
1725891792594389500,0.682389404296875,4.218709468841553,0.0939033031463623,1.3354806900024414
1725891792613238500,0.701238525390625,3.3099679946899414,0.45839929580688477,0.8850164413452148
1725891792632087300,0.72008740234375,1.796667456626892,0.8856844902038574,2.0869598388671875
1725891792650936000,0.73893603515625,0.26603978872299194,0.7408297061920166,2.5786209106445312
1725891792669785000,0.75778515625,-0.5095853805541992,-0.15247488021850586,2.5146121978759766
1725891792688633900,0.7766337890625,-5.524138450622559,0.7945384979248047,0.21923351287841797
1725891792707482600,0.795482666015625,-0.5829422473907471,-1.2738230228424072,1.0002107620239258
1725891792726331600,0.81433154296875,4.786189556121826,-0.6463623046875,-0.6408662796020508
1725891792745180400,0.833180419921875,-2.6119232177734375,-1.0074715614318848,0.2471752166748047
1725891792764029200,0.852029296875,-1.825756549835205,0.03888082504272461,-0.08428382873535156
1725891792782878200,0.870878173828125,3.754239082336426,1.55259108543396,-2.96577787399292
1725891792801727000,0.88972705078125,-1.6735382080078125,1.4806206226348877,3.4659624099731445
1725891792820575700,0.90857568359375,-2.493165969848633,-1.0079851150512695,0.6089353561401367
1725891792839424500,0.927424560546875,1.721459984779358,-0.9388433694839478,-1.703688621520996
1725891792858273500,0.9462734375,-0.5557155609130859,1.3736169338226318,0.2403278350830078
1725891792877122300,0.965122314453125,-0.4423474073410034,0.7827134132385254,0.7622165679931641
1725891792895971000,0.98397119140625,-2.181830883026123,-0.49439144134521484,-0.40627193450927734
1725891792914820000,1.002820068359375,-0.40892088413238525,0.10288166999816895,-2.655423164367676
1725891792933668900,1.0216689453125,-1.8471863269805908,-0.37181901931762695,-0.8545465469360352
1725891792952517600,1.040517578125,-1.9446682929992676,-0.9472618103027344,-0.8525180816650391
1725891792971366700,1.05936669921875,-0.33551764488220215,1.154902696609497,0.5832586288452148
1725891792990215400,1.07821533203125,-0.6681226491928101,-0.6531670093536377,0.13965606689453125
1725891793009064200,1.097064208984375,0.49526286125183105,0.30778980255126953,-0.5041542053222656
1725891793027913200,1.115913330078125,0.7985315322875977,-0.9423351287841797,1.0974225997924805
1725891793046762000,1.134761962890625,0.47013646364212036,-2.2194180488586426,0.49925804138183594
1725891793065610800,1.15361083984375,-0.3520321846008301,-2.8854691982269287,-1.8457107543945312
1725891793084459800,1.172459716796875,1.7293260097503662,-4.130107402801514,-3.773463249206543
1725891793103308500,1.19130859375,5.908072471618652,-1.69745934009552,-4.1863250732421875
1725891793122157300,1.2101572265625,5.260187149047852,1.8831264972686768,-1.3261566162109375
1725891793141006300,1.22900634765625,2.5119667053222656,2.939133882522583,7.822666168212891
1725891793159855000,1.247855224609375,1.5424408912658691,2.6970250606536865,7.239200592041016
1725891793178704000,1.266703857421875,4.153321266174316,-0.36192965507507324,-2.449125289916992
1725891793197553000,1.285552978515625,3.02748441696167,1.031219482421875,-3.988924026489258
1725891793216401700,1.304401611328125,1.4823206663131714,2.4600696563720703,0.19856739044189453
1725891793235250400,1.32325048828125,-0.15771064162254333,2.737816095352173,3.413106918334961
1725891793254099500,1.342099365234375,-1.241693377494812,0.9223713874816895,0.1604156494140625
1725891793272948200,1.3609482421875,-1.9775736331939697,1.1260888576507568,-1.7468461990356445
1725891793291797000,1.379796875,-1.275140643119812,3.1683382987976074,-0.04577064514160156
1725891793310646000,1.39864599609375,-2.086566686630249,2.7001399993896484,-0.11022663116455078
1725891793329494800,1.417494873046875,-1.7997456789016724,1.508894920349121,-0.2769584655761719
1725891793348343600,1.436343505859375,-3.611542224884033,1.0673184394836426,-0.7140541076660156
1725891793367192600,1.455192626953125,-4.238842964172363,1.5574984550476074,-1.6439929008483887
1725891793386041300,1.474041259765625,-3.7921242713928223,0.9928984642028809,-0.2620992660522461
1725891793404890400,1.492890380859375,-1.828299880027771,-0.42969274520874023,-0.611750602722168
1725891793423739100,1.5117392578125,-1.1848149299621582,0.6320667266845703,-0.7748956680297852
1725891793442588000,1.530587890625,0.5616912841796875,-0.11692428588867188,-0.28914546966552734
1725891793461437000,1.54943701171875,0.21291667222976685,-0.021144390106201172,0.32833003997802734
1725891793480285700,1.56828564453125,-0.056202977895736694,0.9737133979797363,0.6055917739868164
1725891793499134500,1.587134521484375,0.0336495041847229,-0.12973785400390625,0.08669662475585938
1725891793517983500,1.6059833984375,0.6334513425827026,-1.0012660026550293,-0.8948307037353516
1725891793536832300,1.624832275390625,1.498392105102539,0.4287099838256836,-1.8463201522827148
1725891793555681000,1.643680908203125,1.760338306427002,0.3727993965148926,0.689549446105957
1725891793574530000,1.662530029296875,0.5173447132110596,1.3935227394104004,-0.02410888671875
1725891793593378800,1.68137890625,-0.9956017732620239,0.8579244613647461,-0.7443513870239258
1725891793612227600,1.7002275390625,-2.1511476039886475,1.6227264404296875,-1.326089859008789
1725891793631076600,1.71907666015625,-2.4837193489074707,3.401297092437744,0.30843162536621094
1725891793649925400,1.73792529296875,-1.0634548664093018,3.425877094268799,0.9185914993286133
1725891793668774100,1.756774169921875,0.6044149994850159,2.2046217918395996,0.11597824096679688
1725891793687630300,1.77563037109375,1.7688610553741455,2.3868188858032227,-0.951690673828125
1725891793706472000,1.794471923828125,0.9786893129348755,3.988406181335449,0.15000629425048828
1725891793725321000,1.813321044921875,0.06975394487380981,2.335160732269287,0.47489070892333984
1725891793744169700,1.832169677734375,-4.500027656555176,0.8274335861206055,0.6286449432373047
1725891793763018800,1.851018798828125,-8.975756645202637,-6.0095014572143555,-3.5053625106811523
1725891793781867500,1.869867431640625,-7.156403064727783,-4.681824684143066,-1.527303695678711
1725891793800716300,1.88871630859375,-1.831023931503296,-1.0842323303222656,3.344280242919922
1725891793819565300,1.9075654296875,2.4227187633514404,-5.8968987464904785,2.616457939147949
1725891793838414000,1.9264140625,9.343301773071289,-4.214092254638672,2.9353675842285156
1725891793857262800,1.945262939453125,11.083582878112793,1.2106046676635742,0.3507833480834961
1725891793876112000,1.96411181640625,8.698935508728027,1.325808048248291,1.1882743835449219
1725891793894960600,1.982960693359375,1.7913799285888672,0.42606115341186523,0.1672372817993164
1725891793913809400,2.001809326171875,-2.4499399662017822,-1.8629980087280273,-0.029397964477539062
1725891793932658400,2.020658447265625,-3.4950361251831055,-1.3965857028961182,-1.1857314109802246
1725891793951507200,2.039507080078125,-1.0302127599716187,-1.5013401508331299,-0.6665830612182617
1725891793970356200,2.058356201171875,3.6758835315704346,-0.8024964332580566,-2.408759117126465
1725891793989205000,2.077205078125,3.408978223800659,0.9364516735076904,-1.8382830619812012
1725891794008053800,2.0960537109375,2.014956474304199,-1.9979599714279175,0.6877956390380859
1725891794026902800,2.11490283203125,-0.6756054759025574,1.260714054107666,1.2023067474365234
1725891794045751600,2.13375146484375,-0.4744921922683716,0.2434983253479004,-1.0948657989501953
1725891794064600300,2.152600341796875,1.127040982246399,0.5838942527770996,0.9589328765869141
1725891794083449300,2.171449462890625,0.3205142915248871,0.15316224098205566,0.46459102630615234
1725891794102298000,2.190298095703125,1.8905019760131836,-0.5500504970550537,-1.3643693923950195
1725891794121147100,2.209147216796875,1.1198785305023193,-3.894679307937622,1.0649538040161133
1725891794139996000,2.227995849609375,2.253556728363037,-2.880919933319092,-1.2349472045898438
1725891794158844700,2.2468447265625,1.2504551410675049,0.6637482643127441,-0.6573657989501953
1725891794177693700,2.265693603515625,-1.0403592586517334,-0.6912062168121338,0.5274925231933594
1725891794196542500,2.28454248046875,-1.3773276805877686,1.0163707733154297,1.4948196411132812
1725891794215391500,2.3033916015625,-0.09301282465457916,-0.9863529205322266,0.20428752899169922
1725891794234240300,2.322240234375,-0.09504269808530807,0.26314830780029297,0.6369600296020508
1725891794253089300,2.34108935546875,0.6972237825393677,-2.023146152496338,0.6688766479492188
1725891794271938000,2.35993798828125,1.5599544048309326,-2.5279133319854736,1.7157907485961914
1725891794290786800,2.378786865234375,1.065387487411499,-1.7437207698822021,0.6023263931274414
1725891794309635800,2.3976357421875,0.1841854751110077,-1.7457951307296753,-1.9009323120117188
1725891794328484600,2.416484619140625,0.6862813830375671,-1.1989145278930664,-1.3317794799804688
1725891794347333600,2.435333740234375,1.0455540418624878,-2.2314200401306152,0.8011674880981445
1725891794366182400,2.454182373046875,0.12954026460647583,-1.7032971382141113,0.4481477737426758
1725891794385031200,2.47303125,0.4120004177093506,-2.3181514739990234,-0.6398763656616211
1725891794403880200,2.491880126953125,1.3836520910263062,-1.77032470703125,-0.5693368911743164
1725891794422729000,2.51072900390625,1.6951544284820557,-0.9597873687744141,0.21387100219726562
1725891794441578000,2.529577880859375,-0.33260178565979004,-2.305973529815674,-0.11852169036865234
1725891794460426800,2.5484267578125,0.07417690753936768,-1.117741346359253,-0.9854154586791992
1725891794479275500,2.567275634765625,-0.3445296287536621,-1.3839502334594727,0.2882270812988281
1725891794498124500,2.58612451171875,-0.4650968313217163,-0.9408318996429443,0.0972909927368164
1725891794516973300,2.604973388671875,-1.054901361465454,0.29607319831848145,0.1299457550048828
1725891794535822300,2.623822265625,-2.0876336097717285,0.25659966468811035,0.006618499755859375
1725891794554671000,2.642671142578125,-0.4369475841522217,1.3134989738464355,0.26506710052490234
1725891794573520000,2.661519775390625,-2.0174381732940674,1.1880061626434326,0.5913238525390625
1725891794592369000,2.680368896484375,-1.8314895629882812,1.6134576797485352,1.516901969909668
1725891794611218000,2.699218017578125,-3.035651445388794,2.3613710403442383,0.5083322525024414
1725891794630066700,2.718066650390625,-3.5001652240753174,2.8246495723724365,-0.6839714050292969
1725891794648915500,2.73691552734375,0.20457029342651367,0.2603180408477783,3.881681442260742
1725891794667764500,2.755764404296875,-3.703275680541992,1.2727880477905273,1.604848861694336
1725891794686613200,2.77461328125,5.786155700683594,1.622800588607788,-0.2158346176147461
1725891794705462300,2.793462158203125,1.9122469425201416,1.2379634380340576,-2.3172779083251953
1725891794724311000,2.81231103515625,-0.33478355407714844,0.6580569744110107,-0.36240100860595703
1725891794743160000,2.83116015625,-1.0244407653808594,0.7267360687255859,0.7414960861206055
1725891794762008800,2.8500087890625,-0.24339604377746582,-0.9252645969390869,0.07405662536621094
1725891794780857600,2.868857666015625,-1.7522529363632202,2.1423256397247314,2.4097986221313477
1725891794799706600,2.88770654296875,-4.5246076583862305,3.2797114849090576,0.33167076110839844
1725891794818555400,2.906555419921875,-2.779324531555176,3.9827687740325928,2.554823875427246
1725891794837404400,2.925404296875,-2.6738858222961426,3.895885705947876,3.271304130554199
1725891794856253200,2.944253173828125,0.1176687479019165,2.6704630851745605,0.9750909805297852
1725891794875102200,2.963102294921875,1.6450681686401367,3.2224667072296143,-0.4102163314819336
1725891794893951000,2.981950927734375,3.564826488494873,0.7305636405944824,-0.33268165588378906
1725891794912800000,3.000800048828125,1.7610701322555542,1.4470255374908447,-2.034303665161133
1725891794931648800,3.019648681640625,2.3814163208007812,1.6294920444488525,-1.80784273147583
1725891794950497800,3.038497802734375,0.8169190883636475,0.14368939399719238,-0.8665857315063477
1725891794969346600,3.0573466796875,-0.9498069286346436,-0.4380512237548828,-0.498077392578125
1725891794988195300,3.0761953125,-1.6777288913726807,-0.1723804473876953,-0.5304298400878906
1725891795007044400,3.09504443359375,-1.2199760675430298,-0.5200672149658203,0.5278797149658203
1725891795025893000,3.11389306640625,-0.9075763821601868,-1.9952547550201416,-0.9503488540649414
1725891795044742100,3.1327421875,1.4076991081237793,-1.121598720550537,-2.0913705825805664
1725891795063591000,3.1515908203125,4.279537200927734,-1.4739799499511719,-1.6365909576416016
1725891795082449400,3.170449462890625,4.335110664367676,-0.6779325008392334,-2.491853713989258
1725891795101288700,3.189288818359375,2.034750461578369,0.9832704067230225,0.26740360260009766
1725891795120137700,3.2081376953125,-1.5194857120513916,0.8630094528198242,-0.070281982421875
1725891795138986500,3.226986572265625,-2.217133045196533,2.0764551162719727,0.14525318145751953
1725891795157835500,3.24583544921875,-2.4617984294891357,2.299234390258789,1.0275764465332031
1725891795176684300,3.264684326171875,-0.9585597515106201,1.6958849430084229,1.8179855346679688
1725891795195533300,3.283533203125,1.1535536050796509,1.1468453407287598,0.9119243621826172
1725891795214382000,3.302382080078125,0.4646018147468567,-0.21126675605773926,-0.36527156829833984
1725891795233231000,3.321231201171875,1.689523696899414,-0.22654247283935547,-1.1885414123535156
1725891795252079900,3.340079833984375,5.820573806762695,0.23948979377746582,-0.37841320037841797
1725891795270928600,3.3589287109375,5.192505836486816,0.08990907669067383,0.9280500411987305
1725891795289777700,3.377777587890625,3.3684937953948975,-0.6373345851898193,0.3753366470336914
1725891795308626400,3.39662646484375,1.9395227432250977,-1.4617770910263062,-0.8471956253051758
1725891795327475500,3.415475341796875,1.062158465385437,-2.523005485534668,-1.8791170120239258
1725891795346324500,3.434324462890625,1.0434285402297974,-2.7654378414154053,-2.0251998901367188
1725891795365173200,3.45317333984375,0.3908548355102539,-2.7396724224090576,-1.4814977645874023
1725891795384022300,3.472022216796875,-2.74422287940979,-2.3662328720092773,-1.3528060913085938
1725891795402871000,3.49087109375,-4.477759838104248,-1.4151427745819092,-4.742503643035889
1725891795421719800,3.5097197265625,9.984620094299316,0.9009308815002441,-2.169529914855957
1725891795440568800,3.52856884765625,-1.0337549448013306,-4.699406623840332,7.150045394897461
1725891795459417600,3.54741748046875,-4.480695724487305,-0.20781254768371582,-2.963371753692627
1725891795478266600,3.5662666015625,-9.179024696350098,1.3624186515808105,-16.269699096679688
1725891795497115400,3.585115478515625,-9.427480697631836,-1.7331292629241943,-4.433884620666504
1725891795515964400,3.60396435546875,1.5303378105163574,7.772450923919678,-15.115303039550781
1725891795534813400,3.6228134765625,68.87548828125,-5.499979019165039,-0.8478336334228516
1725891795553662200,3.641662109375,-18.174646377563477,-31.04644203186035,53.40667724609375
1725891795572511200,3.66051123046875,-18.1704044342041,18.82572364807129,-3.7040529251098633
1725891795591360000,3.679360107421875,-0.8164842128753662,-11.46658992767334,-11.97618293762207
1725891795610209000,3.698208984375,-0.9322338700294495,-3.489244222640991,5.250296592712402
1725891795629057800,3.717057861328125,1.3535157442092896,17.76296615600586,1.424276351928711
1725891795647906800,3.73590673828125,3.7831685543060303,-3.1580419540405273,-5.080379962921143
1725891795666755800,3.754755859375,4.538334846496582,3.4907124042510986,3.4604835510253906
1725891795685604600,3.7736044921875,3.3548121452331543,-8.248939514160156,2.8240528106689453
1725891795704453600,3.79245361328125,1.4684631824493408,-1.5747056007385254,-2.1575655937194824
1725891795723302400,3.811302490234375,-2.2866687774658203,-4.960127353668213,-4.251016616821289
1725891795742151400,3.8301513671875,-1.2485920190811157,-0.9699175357818604,-0.8299627304077148
1725891795761000200,3.849000244140625,-0.9744582176208496,17.630373001098633,2.557027816772461
1725891795779849200,3.86784912109375,-16.717912673950195,-6.728213310241699,5.135536193847656
1725891795798698000,3.886697998046875,-3.143998861312866,0.23276567459106445,-2.3115649223327637
1725891795817547000,3.905547119140625,-0.37024641036987305,-1.9639263153076172,-7.112255573272705
1725891795836395800,3.924395751953125,1.1630170345306396,-5.473659038543701,-1.6203851699829102
1725891795855244800,3.943244873046875,-8.229283332824707,-14.147099494934082,-4.5107011795043945
1725891795874093800,3.96209375,-7.22060489654541,2.851262092590332,-5.662001609802246
1725891795892942600,3.980942626953125,8.137215614318848,44.46541213989258,12.764008522033691
1725891795911791600,3.99979150390625,21.61138153076172,18.945682525634766,15.210626602172852
1725891795930640400,4.018640380859375,-10.65886402130127,-5.524650573730469,-5.1660943031311035
1725891795949489400,4.037489501953125,3.8644986152648926,-5.123108386993408,-8.350105285644531
1725891795968338200,4.056338134765625,1.117568016052246,-7.886773586273193,5.464445114135742
1725891795987187200,4.075187255859375,-1.000483751296997,-0.7278537750244141,-1.474313735961914
1725891796006036200,4.0940361328125,-3.178481340408325,1.2155170440673828,7.346619606018066
1725891796024885000,4.112885009765625,-1.3007915019989014,0.4284248352050781,3.8798370361328125
1725891796043734000,4.131734130859375,-5.01633882522583,0.039899349212646484,6.173564910888672
1725891796062582800,4.150582763671875,-0.3850560188293457,-4.397686004638672,2.481433391571045
1725891796081431800,4.169431884765625,3.3126864433288574,-3.0587401390075684,2.9311113357543945
1725891796100280800,4.18828076171875,5.4424543380737305,-2.9137754440307617,3.366107940673828
1725891796119129600,4.207129638671875,7.448323726654053,-3.7306923866271973,3.4124202728271484
1725891796137978600,4.225978515625,6.576949596405029,-3.0907201766967773,3.763084888458252
1725891796156827400,4.244827392578125,5.227743148803711,-3.8146839141845703,4.089008331298828
1725891796175676400,4.263676513671875,1.4758901596069336,-4.213803768157959,3.2216873168945312
1725891796194525200,4.282525146484375,-1.845205307006836,-6.080796241760254,2.076329231262207
1725891796213374200,4.301374267578125,-4.276994705200195,-6.882456302642822,-0.16639623045921326
1725891796232223200,4.32022314453125,-3.6504368782043457,-8.034518241882324,-0.2925630807876587
1725891796251072000,4.339072021484375,-3.7297282218933105,-6.326265335083008,-0.24504542350769043
1725891796269921000,4.357921142578125,-3.3764748573303223,-4.619904041290283,0.6567792892456055
1725891796288769800,4.376769775390625,-3.6150472164154053,-3.5502758026123047,0.4163527488708496
1725891796307618800,4.395618896484375,-1.1801981925964355,-4.264864921569824,1.034731388092041
1725891796326467600,4.414467529296875,-3.1660094261169434,-2.3729846477508545,-0.6998629570007324
1725891796345316600,4.433316650390625,-1.4090485572814941,-0.19872331619262695,-1.57427978515625
1725891796364165600,4.45216552734375,-0.6250495910644531,0.02965855598449707,-0.8328924179077148
1725891796383014400,4.471014404296875,0.26876115798950195,0.7642157077789307,-1.6626291275024414
1725891796401863400,4.489863525390625,-0.28531599044799805,4.186272621154785,-4.880725383758545
1725891796420712200,4.508712158203125,0.25541210174560547,2.2651214599609375,-1.9855961799621582
1725891796439561200,4.527561279296875,3.052125930786133,2.2771878242492676,-1.1853046417236328
1725891796458410200,4.54641015625,2.1366844177246094,3.22159481048584,-2.0415303707122803
1725891796477259000,4.565259033203125,0.06767845153808594,4.539685249328613,-3.0421745777130127
1725891796496118000,4.584117919921875,-2.0403127670288086,3.4458506107330322,-1.8054944276809692
1725891796514957000,4.60295703125,-4.028525352478027,3.29219388961792,0.13693547248840332
1725891796533805800,4.621805908203125,-2.29840087890625,3.168394088745117,1.1899840831756592
1725891796552654800,4.64065478515625,-1.5850276947021484,2.8567862510681152,1.7940974235534668
1725891796571503600,4.659503662109375,-1.3405828475952148,1.4204440116882324,1.2088515758514404
1725891796590352600,4.6783525390625,0.5316886901855469,-0.3632432222366333,-0.5368890762329102
1725891796609201700,4.69720166015625,1.8930940628051758,-0.9042881727218628,-0.7818746566772461
1725891796628050400,4.716050537109375,0.8968820571899414,-1.3373401165008545,-0.4384727478027344
1725891796646899500,4.7348994140625,0.12255287170410156,0.055776700377464294,-1.3218936920166016
1725891796665748200,4.753748291015625,-0.9630074501037598,0.5759539604187012,-1.2532706260681152
1725891796684597200,4.77259716796875,0.28783607482910156,0.32639598846435547,0.18917560577392578
1725891796703446300,4.7914462890625,2.0356626510620117,0.8315029740333557,-0.023595333099365234
1725891796722295300,4.81029541015625,2.706472873687744,-0.261157751083374,0.5796546936035156
1725891796741144000,4.82914404296875,2.876842498779297,-2.464181423187256,2.7973265647888184
1725891796759993000,4.8479931640625,1.0578017234802246,-1.3255257606506348,0.3543429374694824
1725891796778841900,4.866841796875,-0.6717739105224609,1.1980657577514648,-1.8554396629333496
1725891796797691000,4.88569091796875,-1.3127670288085938,1.012681007385254,-1.9449377059936523
1725891796816540000,4.904539794921875,-3.2094955444335938,-1.0903573036193848,0.45509910583496094
1725891796835388700,4.923388671875,-0.5424346923828125,-0.17369818687438965,1.9536609649658203
1725891796854237700,4.94223779296875,0.10761785507202148,-1.2501821517944336,1.4400181770324707
1725891796873086500,4.96108642578125,0.5914950370788574,-1.8026788234710693,1.2588262557983398
1725891796891935500,4.979935546875,0.7355728149414062,-1.515655279159546,1.734410285949707
1725891796910784500,4.998784423828125,0.27347707748413086,-1.3927638530731201,1.7729077339172363
1725891796929633500,5.017633544921875,0.06798505783081055,-1.369357705116272,2.639291763305664
1725891796948482300,5.036482421875,-0.16688871383666992,-0.9480429887771606,3.281252384185791
1725891796967331300,5.055331298828125,-0.315826416015625,-0.7860649824142456,3.0970168113708496
1725891796986180000,5.07418017578125,0.3882308006286621,-1.1736278533935547,2.8418359756469727
1725891797005029000,5.093029052734375,-1.3546009063720703,-0.6376103162765503,0.2727775573730469
1725891797023878100,5.111878173828125,-0.9087228775024414,-1.1169421672821045,-0.6178770065307617
1725891797042727000,5.130726806640625,-0.10004568099975586,-0.6528939008712769,0.6405353546142578
1725891797061576000,5.149575927734375,-1.2291500568389893,-1.3255515098571777,-0.29799652099609375
1725891797080425000,5.168425048828125,-0.3384733200073242,-0.6798782348632812,-0.8476200103759766
1725891797099273700,5.187273681640625,-0.3470931053161621,-0.646883487701416,-1.4909424781799316
1725891797118122800,5.206122802734375,0.29087531566619873,-0.8415083885192871,-1.4369802474975586
1725891797136971800,5.2249716796875,1.2744897603988647,-1.532790184020996,-0.9235353469848633
1725891797155820500,5.243820556640625,0.8077116012573242,-3.0869739055633545,0.9384593963623047
1725891797174669600,5.262669677734375,2.651628255844116,-2.867994546890259,0.1781148910522461
1725891797193518600,5.2815185546875,2.36822247505188,-2.8145551681518555,-0.7244110107421875
1725891797212367600,5.30036767578125,3.5755109786987305,0.7817354202270508,-4.078462600708008
1725891797231216400,5.31921630859375,4.647580146789551,1.6734611988067627,-3.1969757080078125
1725891797250065400,5.3380654296875,2.84975528717041,-0.040712594985961914,-1.4984149932861328
1725891797268914200,5.3569140625,0.7117414474487305,0.024567127227783203,0.8210420608520508
1725891797287763200,5.37576318359375,-0.3148818016052246,2.7179579734802246,2.13608455657959
1725891797306612200,5.3946123046875,0.489546537399292,4.884791374206543,2.3058300018310547
1725891797325461200,5.413461181640625,0.2944047451019287,6.101202011108398,2.3254356384277344
1725891797344310000,5.43231005859375,-2.838632345199585,3.104015827178955,1.9769229888916016
1725891797363159000,5.451158935546875,-9.835391998291016,4.024928092956543,4.783342361450195
1725891797382007800,5.4700078125,-7.24240779876709,1.2602945566177368,4.558075904846191
1725891797400856800,5.48885693359375,-0.761683464050293,0.6742174029350281,0.9600238800048828
1725891797419705900,5.507705810546875,0.7561531066894531,-0.27358055114746094,0.7390842437744141
1725891797438555000,5.526554931640625,1.703050136566162,-2.0874719619750977,0.9406185150146484
1725891797457403600,5.545403564453125,2.2072935104370117,-2.126734972000122,0.6244287490844727
1725891797476252700,5.564252685546875,1.3065028190612793,-2.0314395427703857,1.1522817611694336
1725891797495101400,5.583101318359375,0.616119384765625,-2.924798011779785,-0.5660190582275391
1725891797513950500,5.601950439453125,0.4494283199310303,-1.4094278812408447,-1.6635923385620117
1725891797532799500,5.620799560546875,0.6450672149658203,-0.1452561616897583,-0.6911773681640625
1725891797551648500,5.6396484375,2.1915078163146973,0.6318815350532532,0.8351907730102539
1725891797570497300,5.658497314453125,-0.636528491973877,-1.2784600257873535,-1.9840154647827148
1725891797619961900,5.7079619140625,-2.478264570236206,1.0261532068252563,-5.537585258483887
1725891797638811000,5.726810791015625,-1.0795564651489258,0.7489838004112244,-3.9532103538513184
1725891797657659600,5.74565966796875,-1.7196052074432373,0.5876766443252563,-3.060424327850342
1725891797676508700,5.7645087890625,-2.7144761085510254,1.0007624626159668,-2.8954949378967285
1725891797695357700,5.783357666015625,-3.538914680480957,0.7194892168045044,-1.768038272857666
1725891797714206500,5.80220654296875,-3.8231124877929688,1.0922424793243408,-0.5077505111694336
1725891797733055500,5.821055419921875,-2.837038516998291,4.068210124969482,-0.4006204605102539
1725891797751904500,5.839904541015625,-0.2563478350639343,5.649083137512207,-0.3637676239013672
1725891797770753500,5.85875341796875,-0.5688256025314331,3.8440136909484863,1.603928565979004
1725891797789602300,5.877602294921875,-0.6574190258979797,1.268892526626587,2.2656173706054688
1725891797808451300,5.896451416015625,-1.6099048852920532,-1.0225043296813965,2.1181535720825195
1725891797827300400,5.91530029296875,-0.9175972938537598,-1.8606443405151367,1.9699068069458008
1725891797846149000,5.934149169921875,0.795089602470398,-4.760422229766846,1.8980445861816406
1725891797864998100,5.952998046875,3.0850067138671875,-7.2734456062316895,3.4198904037475586
1725891797883847200,5.97184716796875,4.278882026672363,-3.7939233779907227,2.161513328552246
1725891797902696200,5.9906962890625,2.291893482208252,-1.6712172031402588,0.48251819610595703
1725891797921545000,6.009544921875,0.857384204864502,-1.2844700813293457,-0.014562606811523438
1725891797940394000,6.02839404296875,0.41756343841552734,-0.386171817779541,-0.05655956268310547
1725891797959243000,6.047242919921875,0.33671998977661133,-0.07821595668792725,-0.745025634765625
1725891797978092000,6.066092041015625,-0.1440744400024414,0.8665634393692017,-0.3597850799560547
1725891797996940800,6.08494091796875,0.4647064208984375,0.5340675115585327,-0.10052490234375
1725891798015789800,6.103789794921875,-0.01699686050415039,0.20721936225891113,0.4780435562133789
1725891798034638800,6.122638916015625,-1.4480085372924805,0.7426834106445312,0.269834041595459
1725891798053487900,6.14148779296875,-3.4575366973876953,0.34688448905944824,0.010101318359375
1725891798072336600,6.160336669921875,2.025768280029297,-0.02350175380706787,0.962592601776123
1725891798091185700,6.179185546875,1.3308696746826172,-0.28031158447265625,1.2983675003051758
1725891798110034700,6.19803466796875,-1.4482150077819824,-1.0079426765441895,1.280618667602539
1725891798128883700,6.2168837890625,-0.7965688705444336,-1.5317966938018799,1.3090028762817383
1725891798147732500,6.235732421875,0.3033113479614258,-1.7234220504760742,1.1206607818603516
1725891798166581500,6.25458154296875,-0.9716386795043945,-1.726534128189087,1.3603506088256836
1725891798185430500,6.273430419921875,-2.308720111846924,-1.6692490577697754,0.754035472869873
1725891798204279300,6.292279296875,-1.6978859901428223,-1.9629195928573608,-0.02220773696899414
1725891798223128300,6.31112841796875,-1.1099209785461426,-1.7861279249191284,-0.4170870780944824
1725891798241977300,6.329977294921875,-0.4913358688354492,-1.5504013299942017,0.14376544952392578
1725891798260826400,6.348826416015625,-0.2648191452026367,-1.600536584854126,0.4606475830078125
1725891798279675400,6.36767529296875,-0.8319382667541504,-1.7493191957473755,0.7099266052246094
1725891798298524200,6.386524169921875,-1.1758499145507812,-1.4540150165557861,0.6037559509277344
1725891798317373200,6.405373291015625,-1.6998481750488281,-0.9667198657989502,0.4290809631347656
1725891798336222200,6.42422216796875,-1.0917515754699707,-0.6892159581184387,0.7727828025817871
1725891798355071200,6.4430712890625,-0.8955297470092773,-0.4341256022453308,0.9429254531860352
1725891798373920000,6.461919921875,-1.0362939834594727,-0.03453868627548218,0.898590087890625
1725891798392769000,6.48076904296875,-1.190338134765625,-0.09074485301971436,0.44151973724365234
1725891798411618000,6.4996181640625,-0.6054611206054688,0.632103681564331,0.35099363327026367
1725891798430467000,6.518467041015625,0.07799148559570312,1.141045093536377,0.3593277931213379
1725891798470535200,6.55853515625,0.12731361389160156,0.8423516750335693,0.5624399185180664
1725891798489384000,6.577384033203125,0.14773082733154297,0.6043660640716553,0.6727309226989746
1725891798508233000,6.59623291015625,-0.11386680603027344,0.2160019874572754,0.6292910575866699
1725891798527082000,6.61508203125,-0.08871936798095703,-0.039469242095947266,0.4622159004211426
1725891798545931000,6.633930908203125,0.0821990966796875,-0.43387556076049805,0.394378662109375
1725891798564780000,6.652780029296875,-0.2254486083984375,-0.9292316436767578,0.47073984146118164
1725891798583629000,6.671629150390625,-0.4608917236328125,-1.2093408107757568,0.5999350547790527
1725891798602477800,6.690477783203125,-0.5523653030395508,-1.2865300178527832,0.43108510971069336
1725891798621326800,6.709326904296875,-0.7561287879943848,-1.3309509754180908,0.38319921493530273
1725891798640175900,6.72817578125,-0.8513650894165039,-1.5024054050445557,0.27857065200805664
1725891798659025000,6.74702490234375,-1.0431303977966309,-1.4918444156646729,0.24588632583618164
1725891798677873700,6.765873779296875,-1.255202293395996,-1.240536093711853,0.04804253578186035
1725891798696722700,6.78472265625,-1.3737897872924805,-0.8821961879730225,-0.1382589340209961
1725891798715571700,6.80357177734375,-1.571396827697754,-0.7045097351074219,-0.11452150344848633
1725891798734420700,6.822420654296875,-1.4344749450683594,-0.7064845561981201,-0.12191104888916016
1725891798753269800,6.841269775390625,-1.1143112182617188,-1.070220947265625,0.011888504028320312
1725891798772118500,6.860118408203125,-0.5310707092285156,-1.553144931793213,0.3033266067504883
1725891798790967600,6.878967529296875,-0.6236667633056641,-1.8145227432250977,0.8772742748260498
1725891798809816600,6.897816650390625,-0.8111534118652344,-2.154881477355957,1.0284905433654785
1725891798828665600,6.91666552734375,-1.0736098289489746,-3.6233420372009277,0.35491418838500977
1725891798847514600,6.9355146484375,-2.1902852058410645,-4.997509956359863,0.6191935539245605
1725891798866363600,6.95436376953125,-1.601212501525879,-4.417516231536865,1.294541835784912
1725891798885212400,6.97321240234375,0.2677273750305176,-2.092637538909912,1.069791316986084
1725891798904061400,6.9920615234375,-0.32662534713745117,-0.11353302001953125,-1.702474594116211
1725891798922910500,7.010910400390625,-2.6406993865966797,-1.078688144683838,-3.152188539505005
1725891798941759500,7.029759521484375,-2.431919813156128,-1.292675495147705,-3.0680031776428223
1725891798960608500,7.0486083984375,0.1941814422607422,-3.3787195682525635,-3.1923036575317383
1725891798979457300,7.067457275390625,0.30187511444091797,-4.523257732391357,-2.7823479175567627
1725891798998306300,7.086306396484375,-1.205310344696045,-4.03385066986084,-3.9982361793518066
1725891799017155300,7.1051552734375,-2.450815200805664,-3.666121244430542,-4.822301864624023
1725891799036004400,7.12400439453125,-2.9951138496398926,-3.530697822570801,-4.788161754608154
1725891799054853400,7.142853271484375,-3.3372550010681152,-3.695380926132202,-3.790083885192871
1725891799073702400,7.161702392578125,-2.8543994426727295,-3.8122949600219727,-2.789970874786377
1725891799092551400,7.180551513671875,-1.7102422714233398,-3.297555685043335,-0.7348184585571289
1725891799111400200,7.199400146484375,0.19561195373535156,-2.7197213172912598,2.6437740325927734
1725891799130249200,7.218249267578125,-0.7843570709228516,-2.448268413543701,6.083617210388184
1725891799149098200,7.23709814453125,1.4498529434204102,-1.9405996799468994,10.672101020812988
1725891799167947300,7.255947265625,3.5701189041137695,-1.1617670059204102,12.801395416259766
1725891799186796300,7.27479638671875,1.9355133771896362,0.8972306251525879,13.481948852539062
1725891799205645300,7.293645263671875,0.9538977146148682,1.5774195194244385,12.655680656433105
1725891799224494000,7.312494140625,0.8831356763839722,2.562588930130005,10.673192024230957
1725891799243343000,7.331343017578125,1.9149425029754639,3.32936429977417,8.279645919799805
1725891799262192000,7.350192138671875,0.4361618757247925,1.9975813627243042,5.387811660766602
1725891799281041200,7.369041259765625,-1.232129693031311,1.5793768167495728,0.9260635375976562
1725891799299890200,7.38789013671875,-0.9981076717376709,0.22284388542175293,1.0959644317626953
1725891799318739200,7.4067392578125,-2.0324747562408447,-1.7862162590026855,1.8386363983154297
1725891799337588200,7.425588134765625,-2.1498162746429443,-0.8271479606628418,-0.5168790817260742
1725891799356437000,7.44443701171875,-0.9887698292732239,-0.42542004585266113,-1.2350521087646484
1725891799375286000,7.4632861328125,-0.7328011393547058,-1.0824838876724243,-0.44412899017333984
1725891799394135000,7.482135009765625,-1.494239091873169,-1.4302822351455688,0.3352842330932617
1725891799412984000,7.500984130859375,2.47859787940979,1.3729695081710815,-3.5540990829467773
1725891799431833000,7.5198330078125,2.5318174362182617,0.605582594871521,-1.4833412170410156
1725891799450682000,7.53868212890625,0.38251999020576477,-0.38578271865844727,-1.5001964569091797
1725891799469531100,7.55753125,-0.1726236343383789,-0.7338597774505615,-0.3087272644042969
1725891799488380200,7.576380126953125,0.057096123695373535,-0.4378328323364258,0.6154155731201172
1725891799507229200,7.595229248046875,-0.7010018229484558,-0.686955451965332,0.8321638107299805
1725891799526078000,7.614077880859375,0.5049609541893005,-0.1682271957397461,0.19919776916503906
1725891799544927000,7.632927001953125,-4.01678466796875,2.3004262447357178,-2.8771090507507324
1725891799563776000,7.65177587890625,-4.697164058685303,0.7225766181945801,0.1427907943725586
1725891799582625000,7.670625,-1.951499104499817,-0.5038070678710938,0.19639873504638672
1725891799601474000,7.68947412109375,-1.1135468482971191,-0.9456286430358887,0.19495201110839844
1725891799620323000,7.708322998046875,-0.2859744429588318,0.5985193252563477,-0.03086566925048828
1725891799639172000,7.727172119140625,2.0561084747314453,-1.4584777355194092,0.07654571533203125
1725891799658021000,7.746021240234375,1.7042371034622192,-0.7635214328765869,-0.6483564376831055
1725891799676870000,7.764869873046875,0.6756777167320251,0.7860081195831299,-1.5054359436035156
1725891799695719200,7.78371923828125,0.22825029492378235,2.3702523708343506,-2.302239418029785
1725891799714568000,7.80256787109375,0.2871258854866028,2.167377471923828,-2.3261804580688477
1725891799733417000,7.8214169921875,-2.4639642238616943,3.185728073120117,-1.7225074768066406
1725891799752266000,7.840265869140625,-2.5692484378814697,1.7786064147949219,-1.2652835845947266
1725891799771115000,7.859114990234375,0.053555846214294434,0.23116326332092285,-0.7915325164794922
1725891799789964000,7.877964111328125,0.9527360200881958,-0.27031421661376953,-1.0948352813720703
1725891799808813000,7.89681298828125,1.0345520973205566,-0.9467556476593018,-0.45038509368896484
1725891799827662300,7.915662353515625,3.02046275138855,-1.1358234882354736,-0.8898544311523438
1725891799846511000,7.934510986328125,2.4066033363342285,-0.6875388622283936,-1.0450754165649414
1725891799865360100,7.953360107421875,0.5270487666130066,-0.8385136127471924,-0.4399280548095703
1725891799884209200,7.972209228515625,-2.240111827850342,0.4076111316680908,-1.224034309387207
1725891799903058200,7.99105810546875,-1.909895896911621,2.264944076538086,-2.6398448944091797
1725891799921907200,8.0099072265625,-0.37059974670410156,1.4389078617095947,-2.17010498046875
1725891799940756200,8.028756103515626,-0.9547910690307617,-0.9699857234954834,-1.2718806266784668
1725891799959605200,8.047605224609375,-1.5419002771377563,0.5191564559936523,-0.7546672821044922
1725891799978454300,8.066454345703125,-1.8716585636138916,1.0125302076339722,-0.3807086944580078
1725891799997303300,8.08530322265625,-0.16969037055969238,1.1913728713989258,-0.6763238906860352
1725891800016152300,8.10415234375,0.3185963034629822,0.8910317420959473,-1.5700302124023438
1725891800035001300,8.12300146484375,-0.06082284450531006,0.6016795635223389,-1.1043701171875
1725891800053850400,8.141850341796875,-0.8186602592468262,-0.6510257720947266,0.1283550262451172
1725891800072699400,8.160699462890625,-0.43384474515914917,-1.1336150169372559,0.6613473892211914
1725891800091548400,8.17954833984375,0.17284631729125977,-1.7748758792877197,0.17655181884765625
1725891800110397400,8.1983974609375,0.9002686738967896,-1.7125804424285889,-0.28101348876953125
1725891800129246500,8.21724658203125,1.4842060804367065,-2.7791972160339355,0.4676694869995117
1725891800148095200,8.23609521484375,1.0746301412582397,-3.0614376068115234,1.970503807067871
1725891800166944500,8.254944580078124,0.1454983949661255,-0.8931372165679932,0.5794401168823242
1725891800185793500,8.27379345703125,-1.0129679441452026,-3.336000442504883,2.099885940551758
1725891800204642300,8.292642333984375,1.8651843070983887,-1.501706600189209,0.8163557052612305
1725891800223491600,8.31149169921875,1.6041537523269653,-2.6848816871643066,0.008709907531738281
1725891800242340400,8.33034033203125,-0.15577685832977295,-1.4012236595153809,0.28784656524658203
1725891800261189400,8.349189453125,-2.347214698791504,-0.5935845375061035,-2.81204891204834
1725891800280038700,8.36803857421875,0.3553736209869385,1.9093382358551025,-4.260618209838867
1725891800298887400,8.386887451171875,-0.327541708946228,1.6466164588928223,0.24678707122802734
1725891800317736700,8.40573681640625,0.782598614692688,2.7376887798309326,1.2650260925292969
1725891800336585500,8.42458544921875,1.2810050249099731,2.5303964614868164,3.1115312576293945
1725891800355434500,8.4434345703125,-0.4595305919647217,1.8962359428405762,3.451084613800049
1725891800374283800,8.46228369140625,-0.741837739944458,0.6374096870422363,3.0613322257995605
1725891800393132500,8.481132568359374,-2.3000218868255615,-0.12739133834838867,0.8577828407287598
1725891800411981600,8.499981689453126,0.3635897636413574,-1.1274938583374023,0.49607276916503906
1725891800430830800,8.518830810546875,-0.19385790824890137,-1.1054444313049316,-0.9745407104492188
1725891800449679600,8.5376796875,-0.5731487274169922,-0.9196114540100098,0.9909167289733887
1725891800468529000,8.55652880859375,1.2325434684753418,0.9252891540527344,2.472104549407959
1725891800487378000,8.5753779296875,1.2003419399261475,-3.27091646194458,-1.6409873962402344
1725891800506226700,8.594226806640625,-0.12498998641967773,-2.208528995513916,-1.4034786224365234
1725891800525076000,8.613075927734375,-0.4007754325866699,-2.392129898071289,-2.8606972694396973
1725891800543925000,8.631925048828125,0.06128978729248047,-3.8424806594848633,-2.192756175994873
1725891800562774000,8.65077392578125,0.8032431602478027,-3.265812873840332,-1.1930336952209473
1725891800581623000,8.669623046875,-0.12438726425170898,-3.0150070190429688,-1.9479408264160156
1725891800600472000,8.68847216796875,0.10999107360839844,-4.049788475036621,-0.9178938865661621
1725891800619321000,8.707321044921875,-0.5290026664733887,-3.865211009979248,-0.9691205024719238
1725891800638170000,8.726170166015624,-0.14696931838989258,-3.6568241119384766,-1.2662649154663086
1725891800657019100,8.74501904296875,-0.3039264678955078,-2.90598201751709,-1.7282629013061523
1725891800675868200,8.7638681640625,0.6709132194519043,-1.7899894714355469,-2.2372922897338867
1725891800694717200,8.78271728515625,1.8142776489257812,2.0551435947418213,0.0388798713684082
1725891800713566200,8.801566162109374,-0.8919601440429688,7.5579328536987305,3.941671848297119
1725891800732415200,8.820415283203126,-2.1474761962890625,9.389873504638672,7.210862159729004
1725891800751264300,8.83926416015625,-0.4970088005065918,3.430773973464966,2.702554225921631
1725891800770113300,8.85811328125,0.14159297943115234,1.2548545598983765,0.5592813491821289
1725891800788962300,8.87696240234375,0.11884212493896484,-0.26122593879699707,-1.1245927810668945
1725891800807811600,8.8958115234375,-0.12759923934936523,-1.073660135269165,-2.2528538703918457
1725891800826660600,8.91466064453125,0.773435115814209,-1.9831287860870361,-1.2899422645568848
1725891800845509400,8.93350927734375,1.9545001983642578,-2.621447801589966,-2.2250657081604004
1725891800864358700,8.952358642578124,1.9918179512023926,-2.826223611831665,-4.1653523445129395
1725891800883207700,8.971207763671876,0.7868294715881348,-0.8106949329376221,-3.849578857421875
1725891800902056700,8.990056640625,1.2914037704467773,-0.7029447555541992,-2.847076892852783
1725891800920905700,9.00890576171875,1.3965091705322266,-0.06689143180847168,-3.1406679153442383
1725891800939754800,9.027754638671874,0.6568775177001953,0.36136865615844727,-2.8950212001800537
1725891800958603800,9.046603759765626,0.4149460792541504,0.7658548355102539,-1.7104616165161133
1725891800977452800,9.065452880859375,0.6561956405639648,0.8694815635681152,-0.661827564239502
1725891800996301800,9.0843017578125,-0.5772342681884766,0.8875362873077393,0.2783069610595703
1725891801015150800,9.10315087890625,-2.663052558898926,3.063779592514038,1.6937108039855957
1725891801034000100,9.122000244140626,1.3589677810668945,0.5738677978515625,-2.015615940093994
1725891801052849200,9.14084912109375,0.8317704200744629,-1.3221547603607178,-3.4139299392700195
1725891801071698200,9.1596982421875,-0.09159660339355469,-1.2153706550598145,-2.3838696479797363
1725891801090547200,9.178547119140624,-1.5965471267700195,-1.2562823295593262,-1.7364935874938965
1725891801109396200,9.197396240234376,-1.8152284622192383,-3.202204704284668,-1.5372352600097656
1725891801128245200,9.216245361328125,-2.539201259613037,-5.178279399871826,0.877713680267334
1725891801147094300,9.23509423828125,-2.3837995529174805,-4.683413982391357,1.5047574043273926
1725891801165943600,9.253943603515625,-0.48816823959350586,-1.831820011138916,1.150439739227295
1725891801184792600,9.27279248046875,-2.0790200233459473,-3.391472816467285,3.4104814529418945
1725891801203641600,9.2916416015625,-1.53446626663208,0.1870427131652832,-1.5354204177856445
1725891801222490600,9.31049072265625,-1.8024425506591797,-0.7037248611450195,-0.5358414649963379
1725891801241339600,9.329339599609375,0.18195557594299316,0.44463491439819336,-1.2525005340576172
1725891801260188700,9.348188720703124,0.8682136535644531,-0.9956626892089844,-0.9519515037536621
1725891801279038000,9.367037841796876,-0.3926377296447754,-2.058460235595703,-0.004336357116699219
1725891801297887000,9.385886962890625,0.036956787109375,-2.019411087036133,0.8261423110961914
1725891801316736000,9.404736083984375,0.1659550666809082,-2.820115089416504,-0.33118247985839844
1725891801335585000,9.4235849609375,1.559596300125122,-2.940445899963379,0.17688846588134766
1725891801354434000,9.44243408203125,-0.1920146942138672,1.5136923789978027,-1.6802873611450195
1725891801373283300,9.461283447265625,-0.04061412811279297,-0.5429582595825195,-0.43260717391967773
1725891801392132400,9.48013232421875,0.040467262268066406,-0.9081969261169434,-1.7612380981445312
1725891801410981400,9.4989814453125,1.1592576503753662,1.143012523651123,-2.018866539001465
1725891801429830400,9.517830322265626,-0.9051527976989746,1.7097280025482178,0.19472551345825195
1725891801448679400,9.536679443359375,-0.17246246337890625,3.7125203609466553,-0.976356029510498
1725891801467528400,9.555528564453125,-2.701813220977783,5.76068639755249,-1.6297216415405273
1725891801486377700,9.574377685546875,-1.4603404998779297,-0.07004022598266602,-0.48000144958496094
1725891801505226800,9.593226806640626,-1.3963685035705566,-0.8993639945983887,2.1423144340515137
1725891801524075800,9.61207568359375,-1.7574658393859863,-2.0555763244628906,1.7792062759399414
1725891801542924800,9.6309248046875,-1.8657684326171875,-2.2919154167175293,0.9636940956115723
1725891801561774000,9.649774169921875,-1.304677963256836,-1.311150074005127,0.8034734725952148
1725891801580623000,9.668623046875,-1.8489532470703125,-0.520817756652832,1.0199995040893555
1725891801599472000,9.68747216796875,-0.6205334663391113,-1.4344439506530762,0.9972753524780273
1725891801618321200,9.706321044921875,0.35835695266723633,-1.4739012718200684,-0.0709843635559082
1725891801637170400,9.72517041015625,0.10473966598510742,-1.4210896492004395,-1.2174491882324219
1725891801656019500,9.74401953125,-1.2021498680114746,-1.350529432296753,-0.2674732208251953
1725891801674868500,9.762868408203126,-1.3689074516296387,-2.5897533893585205,-0.14553260803222656
1725891801693717500,9.781717529296875,-0.8030562400817871,-2.7118983268737793,-0.06821250915527344
1725891801712566800,9.80056689453125,-0.5299344062805176,-2.7801077365875244,-0.010197162628173828
1725891801731415800,9.819415771484374,-0.09484720230102539,-2.370326280593872,0.17376422882080078
1725891801750264800,9.838264892578126,1.3140130043029785,-1.4097778797149658,-0.8971824645996094
1725891801769113900,9.85711376953125,1.7430896759033203,-0.7688248157501221,-2.976543426513672
1725891801787963100,9.875963134765625,0.6130657196044922,0.5070066452026367,-3.316296100616455
1725891801806812200,9.894812255859375,1.327883243560791,1.1401128768920898,-3.6888058185577393
1725891801825661200,9.9136611328125,0.9851937294006348,0.21604609489440918,-3.0735225677490234
1725891801844510200,9.93251025390625,0.43291568756103516,0.1376628875732422,-3.0362091064453125
1725891801863359500,9.951359375,0.6245756149291992,0.05162477493286133,-3.1520934104919434
1725891801882208500,9.97020849609375,-0.13937807083129883,0.6036679744720459,-2.3207778930664062
1725891801901057500,9.9890576171875,-0.08060693740844727,1.5203745365142822,-2.436398506164551
1725891801919906800,10.00790673828125,0.2747645378112793,1.414539098739624,-2.620206356048584
1725891801938755800,10.026755859375,0.6982269287109375,1.6484514474868774,-2.5968985557556152
1725891801957604900,10.04560498046875,0.3317403793334961,1.999885082244873,-2.0761709213256836
1725891801976454000,10.064453857421874,-0.6266145706176758,2.3528518676757812,-1.5978951454162598
1725891801995303200,10.08330322265625,-1.114877700805664,2.2500905990600586,-1.557509422302246
1725891802014152200,10.102152099609375,-0.4929537773132324,2.197916269302368,-1.1182775497436523
1725891802033001200,10.121001220703125,0.1391134262084961,1.2874417304992676,-0.6711206436157227
1725891802051850200,10.139850341796874,-0.32024097442626953,2.810117483139038,-0.009335994720458984
1725891802070699500,10.158699462890626,-0.34755945205688477,5.298916816711426,0.7032365798950195
1725891802089548500,10.177548583984375,-0.016006946563720703,-3.524712085723877,-1.5352158546447754
1725891802108397600,10.1963974609375,-1.272707462310791,-2.431335926055908,0.3727407455444336
1725891802127246800,10.215246826171875,-1.4438199996948242,-4.64445686340332,2.0719408988952637
1725891802146095900,10.234095947265626,-1.2774415016174316,-4.4775390625,-0.6409425735473633
1725891802164945000,10.25294482421875,-1.1347265243530273,-2.9037575721740723,-0.22036314010620117
1725891802183794200,10.271794189453125,-2.0397801399230957,-2.6607885360717773,0.3860764503479004
1725891802202643200,10.290643310546875,2.6893444061279297,-1.2805171012878418,-2.018810272216797
1725891802221492200,10.3094921875,-0.4041304588317871,-1.7903246879577637,1.9292340278625488
1725891802240341500,10.328341552734376,-0.3473191261291504,-2.4851531982421875,2.1960554122924805
1725891802259190500,10.3471904296875,-1.3061490058898926,-4.595017433166504,1.0279297828674316
1725891802278039600,10.36603955078125,-1.4156179428100586,-3.8739066123962402,-0.7470402717590332
1725891802296888800,10.384888916015624,-0.5320839881896973,-1.4801111221313477,-0.4046506881713867
1725891802315737900,10.40373779296875,-0.061847686767578125,1.0392999649047852,-0.2932729721069336
1725891802334587000,10.4225869140625,-0.35530710220336914,2.901677131652832,-0.9554495811462402
1725891802353436200,10.441436279296875,-0.577397346496582,7.540133476257324,-1.6755943298339844
1725891802372285200,10.46028515625,-1.1602439880371094,6.192296028137207,-1.839160442352295
1725891802391134200,10.47913427734375,0.7143487930297852,-2.2483115196228027,1.6044411659240723
1725891802409983500,10.4979833984375,-1.4230737686157227,-5.9991374015808105,1.7081985473632812
1725891802428832500,10.51683251953125,-2.848827362060547,-9.298718452453613,0.48659324645996094
1725891802447681800,10.535681884765625,-3.4161009788513184,-9.657211303710938,-0.31585264205932617
1725891802466530800,10.55453076171875,-2.4076266288757324,-6.695468425750732,-0.49286937713623047
1725891802485379800,10.5733798828125,-1.2699756622314453,-5.077789783477783,0.2127842903137207
1725891802504229000,10.59222900390625,-0.21644973754882812,-2.7408905029296875,0.21724796295166016
1725891802523078100,10.611078125,0.6848392486572266,-1.6913890838623047,0.7822575569152832
1725891802541927400,10.629927490234374,0.6976690292358398,0.8115100860595703,1.248744010925293
1725891802560776400,10.6487763671875,1.397946834564209,0.9989376068115234,0.9925708770751953
1725891802579625500,10.66762548828125,3.7412543296813965,-2.0142407417297363,-0.3767232894897461
1725891802598474500,10.686474609375,1.0616025924682617,2.3082082271575928,-1.2584638595581055
1725891802617323800,10.70532373046875,1.917137622833252,0.8151459693908691,0.6199445724487305
1725891802636173000,10.724173095703126,1.6046791076660156,-0.5875036716461182,0.5964822769165039
1725891802655022000,10.74302197265625,1.184880256652832,-1.838489294052124,0.1658458709716797
1725891802673871000,10.76187109375,0.8709487915039062,-1.2085487842559814,-0.49042606353759766
1725891802692720400,10.780720458984375,0.4058361053466797,0.39550161361694336,-1.1801981925964355
1725891802711569400,10.7995693359375,2.317854881286621,0.9004721641540527,-1.85137939453125
1725891802730418700,10.818418701171876,4.342899322509766,1.0363948345184326,-2.823920488357544
1725891802749267700,10.837267822265625,3.629155158996582,0.9881353378295898,-3.8931527137756348
1725891802768116700,10.85611669921875,2.7605819702148438,0.35662221908569336,-3.0804924964904785
1725891802786966000,10.874966064453124,2.4372663497924805,0.24376416206359863,-2.0555601119995117
1725891802805815000,10.89381494140625,1.867579460144043,1.179248571395874,-2.0553135871887207
1725891802824664000,10.9126640625,2.617302894592285,1.556019902229309,-2.570356607437134
1725891802843513300,10.931513427734375,2.5625648498535156,2.084312677383423,-3.014765501022339
1725891802862362400,10.9503623046875,1.9360265731811523,2.6966493129730225,-3.517029047012329
1725891802881211600,10.969211669921876,1.314424991607666,3.3830277919769287,-2.9620370864868164
1725891802900060700,10.988060791015625,0.7339296340942383,2.606778144836426,-1.8540749549865723
1725891802918909700,11.00690966796875,0.7932000160217285,1.4926509857177734,-0.893648624420166
1725891802937759000,11.025759033203125,0.6121764183044434,0.27131223678588867,-1.1434540748596191
1725891802956608300,11.044608154296874,-0.10886764526367188,-0.8128933906555176,-1.318525791168213
1725891802975457300,11.063457275390626,0.02513599395751953,-1.526216983795166,-0.9734411239624023
1725891802994306300,11.082306396484375,-0.39611339569091797,-1.4435606002807617,-0.04188728332519531
1725891803013155600,11.101155517578125,-0.9885549545288086,-1.3721494674682617,0.07426118850708008
1725891803032004600,11.120004638671874,-1.1205134391784668,-1.4575400352478027,-0.11548328399658203
1725891803050854000,11.13885400390625,-1.333272933959961,-1.0838375091552734,0.10773801803588867
1725891803069703000,11.157702880859375,-1.0156927108764648,-2.4461498260498047,-0.28914928436279297
1725891803088552200,11.17655224609375,-1.738722324371338,-3.7173690795898438,-0.10455942153930664
1725891803107401200,11.195401123046874,-1.3876023292541504,-3.9028573036193848,-0.09549188613891602
1725891803126250500,11.21425048828125,-1.1522326469421387,-2.8494396209716797,-0.2867426872253418
1725891803145099500,11.233099609375,-1.5715303421020508,-2.4439778327941895,1.8419041633605957
1725891803163948500,11.251948486328125,-2.2536072731018066,-2.6144227981567383,2.4952239990234375
1725891803182797800,11.2707978515625,-2.0365781784057617,-1.9120264053344727,2.828184127807617
1725891803201647000,11.289647216796874,-0.7361431121826172,-1.3298325538635254,2.1127285957336426
1725891803220496100,11.30849609375,0.1612381935119629,-1.356621265411377,0.2683544158935547
1725891803239345200,11.32734521484375,0.4266700744628906,-2.16807222366333,-0.9555315971374512
1725891803258194400,11.3461943359375,0.5031518936157227,-2.3446969985961914,-0.881126880645752
1725891803277043500,11.36504345703125,0.07505559921264648,-2.1866092681884766,-0.6060233116149902
1725891803295892700,11.383892822265626,-1.1735196113586426,-1.6045594215393066,-0.33109188079833984
1725891803314741800,11.40274169921875,-1.5347304344177246,-0.6763992309570312,0.37804269790649414
1725891803333591000,11.421591064453125,-1.0543303489685059,0.2953066825866699,0.644536018371582
1725891803352440000,11.440440185546874,-0.3174309730529785,0.9032931327819824,1.0150699615478516
1725891803371289300,11.459289306640626,-0.17015886306762695,1.2317490577697754,1.1556439399719238
1725891803390138400,11.478138427734375,0.006539344787597656,1.7689943313598633,1.4718966484069824
1725891803408987600,11.496987548828125,-0.32416343688964844,1.3342561721801758,1.8468937873840332
1725891803427836700,11.515836669921875,-0.3908367156982422,0.3345818519592285,1.3944458961486816
1725891803446686000,11.53468603515625,0.5201501846313477,-0.1956043243408203,1.08610200881958
1725891803465535000,11.553534912109376,0.43810510635375977,-0.20174694061279297,0.8545956611633301
1725891803484384300,11.57238427734375,-0.24762964248657227,-0.6089167594909668,0.8274698257446289
1725891803503233300,11.5912333984375,-0.28574514389038086,-0.9193501472473145,0.17905521392822266
1725891803522082600,11.61008251953125,0.9061121940612793,-0.5103840827941895,0.3174266815185547
1725891803540931600,11.628931640625,1.2649917602539062,0.3191261291503906,0.4783203601837158
1725891803559780900,11.64778076171875,0.7054386138916016,-0.37715578079223633,1.0270617008209229
1725891803578630000,11.6666298828125,0.6954340934753418,0.41206908226013184,0.025546789169311523
1725891803597479200,11.685479248046875,0.6223897933959961,-0.26891422271728516,-1.3251558542251587
1725891803616328200,11.704328125,0.38379669189453125,-1.5798735618591309,-1.3704850673675537
1725891803635177500,11.723177490234375,1.1294918060302734,-1.2377591133117676,-0.9040371179580688
1725891803654026500,11.742026611328125,3.7824277877807617,0.7444117069244385,-2.0605275630950928
1725891803672875800,11.760875732421875,6.074553966522217,-1.356276512145996,-1.1331655979156494
1725891803691724800,11.779724853515624,2.589716911315918,2.593644857406616,-1.7332227230072021
1725891803710574000,11.798573974609376,3.2854528427124023,1.1288771629333496,0.26357364654541016
1725891803729423000,11.817423095703125,1.997727394104004,1.17668879032135,-0.6588318347930908
1725891803748272400,11.8362724609375,2.0260629653930664,1.7100203037261963,-1.2402727603912354
1725891803767121400,11.855121337890624,2.2778701782226562,1.9737484455108643,-1.7486581802368164
1725891803785970700,11.873970703125,1.773366928100586,1.489210605621338,-2.638580322265625
1725891803804819700,11.89281982421875,1.4246740341186523,1.6375963687896729,-2.2623186111450195
1725891803823669000,11.9116689453125,2.2945737838745117,2.5442681312561035,-1.9344267845153809
1725891803842518300,11.930518310546875,1.1545257568359375,2.757647752761841,-3.055574893951416
1725891803861367300,11.9493671875,1.298013687133789,2.272127389907837,-2.792252540588379
1725891803880216600,11.968216552734376,1.8476948738098145,1.5784268379211426,-1.86767578125
1725891803899065600,11.987065673828125,1.3829536437988281,0.6850595474243164,-0.6725850105285645
1725891803917914600,12.00591455078125,1.0609045028686523,-0.29812097549438477,0.575836181640625
1725891803936764000,12.024763916015624,0.20351457595825195,-1.547335147857666,1.494077205657959
1725891803955613000,12.043613037109376,-0.19810009002685547,-2.837094306945801,2.827777862548828
1725891803974462200,12.062462158203125,-0.48612356185913086,-3.9332661628723145,3.661189556121826
1725891803993311500,12.0813115234375,-0.9911694526672363,-4.024855613708496,2.7691307067871094
1725891804012160500,12.100160400390624,-1.3298473358154297,-3.37583065032959,2.0535926818847656
1725891804031009800,12.119009765625,-1.276881217956543,-3.721646785736084,1.4424090385437012
1725891804049858800,12.13785888671875,-1.6046757698059082,-3.452357292175293,0.5191130638122559
1725891804068708000,12.1567080078125,-0.7232580184936523,-2.5498290061950684,0.5316877365112305
1725891804087557000,12.17555712890625,-0.8427882194519043,-2.0756826400756836,-0.6363780498504639
1725891804106406400,12.194406494140624,-0.9696078300476074,-1.9099149703979492,-0.9710793495178223
1725891804125255400,12.21325537109375,-0.25882387161254883,-1.7323522567749023,0.3633413314819336
1725891804144104700,12.232104736328125,-0.5597829818725586,-2.3392391204833984,1.0338034629821777
1725891804162954000,12.2509541015625,-1.6390151977539062,-2.7174973487854004,0.791140079498291
1725891804181803000,12.269802978515624,-1.8462743759155273,-2.0190062522888184,0.994959831237793
1725891804200652300,12.28865234375,-1.5052251815795898,-1.3095335960388184,0.9260411262512207
1725891804219501300,12.307501220703125,-0.8106198310852051,-0.836176872253418,1.014665126800537
1725891804238350600,12.3263505859375,0.015255928039550781,-0.17191076278686523,0.7492794990539551
1725891804257199600,12.34519970703125,0.7070307731628418,0.8911242485046387,0.9437437057495117
1725891804276049000,12.364048828125,0.616325855255127,1.3581833839416504,0.6497926712036133
1725891804294898000,12.38289794921875,0.4764261245727539,1.5337843894958496,0.39925241470336914
1725891804313747200,12.401747314453125,-0.39641475677490234,1.0485410690307617,0.5017590522766113
1725891804332596500,12.420596435546875,-0.9404435157775879,0.0376129150390625,0.9975085258483887
1725891804351445500,12.439445556640624,-0.20237159729003906,-0.42497682571411133,1.4240455627441406
1725891804370294800,12.458294677734376,1.0516023635864258,-0.5431957244873047,1.5855259895324707
1725891804389143800,12.477143798828125,1.1868557929992676,-0.5278582572937012,0.7944345474243164
1725891804407993000,12.4959931640625,0.3320474624633789,-0.6096549034118652,0.7342522144317627
1725891804426842000,12.514842041015624,-0.1297163963317871,-0.5575556755065918,1.3804700374603271
1725891804445691400,12.53369140625,0.510406494140625,-0.6727852821350098,1.199723720550537
1725891804464540400,12.55254052734375,1.1091804504394531,-0.5873661041259766,0.29981422424316406
1725891804483389700,12.5713896484375,1.5236444473266602,0.38687920570373535,-1.1120574474334717
1725891804502239000,12.590239013671875,0.6754722595214844,0.10726022720336914,-1.7153958082199097
1725891804521088000,12.609087890625,-0.027238845825195312,-0.6441116333007812,-1.1925830841064453
1725891804539937300,12.627937255859376,2.1464524269104004,-2.667214870452881,-0.01718878746032715
1725891804558786300,12.646786376953125,2.291994571685791,0.9749903678894043,-1.979573130607605
1725891804577635600,12.665635498046875,5.295022010803223,0.17296195030212402,-1.173135757446289
1725891804596484600,12.684484619140624,3.328378200531006,0.7519676685333252,-1.7923680543899536
1725891804615334000,12.703333984375,2.6705198287963867,1.1400563716888428,-1.9893951416015625
1725891804634183200,12.72218310546875,2.305792808532715,1.3719391822814941,-1.4972920417785645
1725891804653032200,12.7410322265625,1.4161672592163086,1.7474321126937866,-1.180041790008545
1725891804671881500,12.759881591796875,2.128342628479004,1.7233160734176636,-1.3982319831848145
1725891804690730800,12.778730712890624,2.0879273414611816,1.9584119319915771,-2.940687656402588
1725891804709579800,12.797579833984376,1.5457005500793457,2.183537483215332,-2.293612241744995
1725891804728429000,12.816428955078125,2.7998571395874023,1.5416595935821533,-1.4757254123687744
1725891804747278000,12.835278076171875,1.8890461921691895,1.081273078918457,-1.8614046573638916
1725891804766127400,12.85412744140625,1.2384963035583496,1.3914577960968018,-1.6025872230529785
1725891804784976400,12.872976318359376,1.031724452972412,1.3467493057250977,-1.0425105094909668
1725891804803825700,12.89182568359375,1.0219769477844238,0.5641798973083496,-0.5899302959442139
1725891804822674700,12.9106748046875,1.5492897033691406,-0.4885120391845703,0.8240303993225098
1725891804841524000,12.92952392578125,1.0396356582641602,-1.433525562286377,1.1071586608886719
1725891804860373200,12.948373291015624,0.2599167823791504,-2.3930559158325195,1.3617544174194336
1725891804879222300,12.96722216796875,-0.7961444854736328,-3.397538661956787,1.9700961112976074
1725891804898071600,12.986071533203125,-0.9535489082336426,-3.6388754844665527,2.8633227348327637
1725891804916920600,13.004920654296875,-2.2041096687316895,-3.2479910850524902,2.2013039588928223
1725891804935769900,13.023769775390624,-2.7785754203796387,-2.671206474304199,1.2798805236816406
1725891804954619100,13.042619140625,-2.3334922790527344,-2.986647605895996,1.6317672729492188
1725891804973468200,13.06146826171875,-1.3480949401855469,-3.247300624847412,2.0898990631103516
1725891804992317400,13.0803173828125,-0.8759012222290039,-2.5762524604797363,1.7789525985717773
1725891805011166500,13.09916650390625,-0.6060876846313477,-1.77911376953125,0.3708510398864746
1725891805030015700,13.118015625,-0.28740549087524414,-0.29477930068969727,0.0036039352416992188
1725891805048865000,13.136864990234375,-0.3354825973510742,0.28928089141845703,0.09988069534301758
1725891805067714000,13.155714111328125,-0.6290359497070312,-0.6165556907653809,0.4825882911682129
1725891805086563300,13.174563232421875,-0.5355911254882812,-0.6013050079345703,1.584825038909912
1725891805105412400,13.193412353515624,-0.756230354309082,-0.9716701507568359,0.4884324073791504
1725891805124261600,13.21226171875,-0.6211533546447754,-0.2778172492980957,-0.6871099472045898
1725891805143111000,13.23111083984375,1.019418716430664,0.3941521644592285,0.5707597732543945
1725891805161960000,13.2499599609375,0.882390022277832,-0.8545875549316406,1.1452288627624512
1725891805180809200,13.268809326171874,-1.076429843902588,-1.1960749626159668,2.0190305709838867
1725891805199658200,13.287658203125,-1.5493392944335938,-0.8318638801574707,2.515993595123291
1725891805218507500,13.306507568359375,-0.02130889892578125,-0.9075379371643066,1.9966869354248047
1725891805237356800,13.325356689453125,1.355445384979248,-0.6287527084350586,0.8610639572143555
1725891805256205800,13.344205810546875,1.0686335563659668,-0.13500118255615234,0.01867961883544922
1725891805275055000,13.36305517578125,0.9446487426757812,-0.34274816513061523,0.7873969078063965
1725891805293904100,13.381904052734376,0.11444759368896484,-1.9689645767211914,2.033113479614258
1725891805312753400,13.40075341796875,0.15241575241088867,-3.543809413909912,2.154665231704712
1725891805331602400,13.4196025390625,1.939863681793213,-2.6609549522399902,1.8997211456298828
1725891805350451700,13.43845166015625,2.0293049812316895,-0.5142412185668945,0.47515416145324707
1725891805369301000,13.457301025390626,0.5459976196289062,1.9872686862945557,-0.9949841499328613
1725891805388150000,13.47614990234375,-0.3549680709838867,2.632290840148926,-1.5966328382492065
1725891805406999300,13.494999267578125,0.8480205535888672,-0.30250000953674316,-0.4429817199707031
1725891805425848600,13.5138486328125,0.5967912673950195,-1.919750452041626,0.19074296951293945
1725891805444697600,13.532697509765624,4.156790733337402,-0.3426513671875,-0.9216010570526123
1725891805463547000,13.551546875,6.828675270080566,1.702077865600586,-4.198596954345703
1725891805482396000,13.57039599609375,2.2253665924072266,2.1801140308380127,-5.122442245483398
1725891805501245200,13.5892451171875,2.362008571624756,1.4099204540252686,-2.148922920227051
1725891805520094500,13.608094482421874,3.8417062759399414,0.9346076250076294,-0.6354607343673706
1725891805538943500,13.626943603515626,2.80952787399292,1.676666021347046,-2.2126216888427734
1725891805557792800,13.645792724609375,1.54974365234375,2.619144916534424,-2.424454689025879
1725891805576641800,13.664641845703125,1.1996994018554688,2.5855958461761475,-1.6573278903961182
1725891805595491000,13.683490966796874,1.7268686294555664,3.099865198135376,-0.8307974338531494
1725891805614340400,13.70234033203125,1.6101441383361816,2.872145891189575,-1.4485371112823486
1725891805633189400,13.721189453125,0.7530374526977539,2.174168348312378,-2.0354883670806885
1725891805652038700,13.74003857421875,1.3614816665649414,1.7412540912628174,-0.7723596096038818
1725891805670887700,13.7588876953125,1.2707562446594238,0.4437222480773926,-0.5033726692199707
1725891805689737000,13.777737060546874,-0.03577280044555664,-1.2455573081970215,-0.5360498428344727
1725891805708586200,13.796586181640626,0.8657264709472656,-1.8726720809936523,1.869494915008545
1725891805727435300,13.815435302734375,1.5848283767700195,-2.4272828102111816,1.5258660316467285
1725891805746284500,13.834284423828125,-0.38260507583618164,-2.1168212890625,-0.5391426086425781
1725891805765133600,13.853133544921874,0.16035795211791992,-0.8126978874206543,0.8372206687927246
1725891805783982800,13.87198291015625,0.6175656318664551,-2.187983989715576,1.833932876586914
1725891805802832100,13.89083203125,-0.43347978591918945,-2.4956111907958984,1.2305517196655273
1725891805821681200,13.90968115234375,-1.522449016571045,-2.0711116790771484,-1.1797170639038086
1725891805840530400,13.928530517578125,-1.8365874290466309,-1.635838508605957,0.027826309204101562
1725891805859379700,13.947379638671874,-1.0922975540161133,-3.326594352722168,1.9030075073242188
1725891805878228700,13.966228759765626,-3.259772777557373,-4.0751848220825195,2.3441152572631836
1725891805897078000,13.985078125,-2.0577526092529297,-3.250455379486084,5.046568393707275
1725891805915927000,14.003927001953125,-2.3992419242858887,-3.2889184951782227,1.169896125793457
1725891805934776300,14.0227763671875,-1.4410061836242676,-0.875035285949707,-0.6192235946655273
1725891805953625300,14.041625244140626,0.36377954483032227,1.3447551727294922,0.3919529914855957
1725891805972474600,14.060474609375,-0.016964435577392578,0.6966452598571777,0.6589908599853516
1725891805991323600,14.07932373046875,-0.774907112121582,-0.7048792839050293,1.6720623970031738
1725891806010173000,14.0981728515625,-0.6166782379150391,-0.9275937080383301,0.9142351150512695
1725891806029022200,14.117022216796874,0.23166465759277344,0.2288975715637207,-0.5512580871582031
1725891806047871500,14.13587158203125,0.5379166603088379,0.9251866340637207,-0.4942893981933594
1725891806066720500,14.154720458984375,-0.5565481185913086,-0.2422008514404297,0.8443222045898438
1725891806085569800,14.17356982421875,-1.194380283355713,-2.0011682510375977,1.3153438568115234
1725891806104418800,14.192418701171874,-0.9700965881347656,-1.9481000900268555,0.8629279136657715
1725891806123268000,14.21126806640625,0.27602195739746094,-1.260664463043213,1.748415470123291
1725891806142117000,14.2301171875,0.27730655670166016,-1.6472177505493164,2.315723419189453
1725891806160966400,14.24896630859375,-0.043099403381347656,-2.6450252532958984,1.7891840934753418
1725891806179815700,14.267815673828125,0.5222592353820801,-2.759993553161621,1.6036014556884766
1725891806198664700,14.286664794921874,0.960383415222168,-2.748469829559326,1.508155107498169
1725891806217514000,14.305513916015625,0.5022382736206055,-1.3072047233581543,0.9712796211242676
1725891806236363300,14.32436328125,1.142350196838379,-0.3221588134765625,0.4546945095062256
1725891806255212300,14.34321240234375,2.3748598098754883,-0.22800874710083008,-0.7188026905059814
1725891806274061600,14.3620615234375,1.604752540588379,1.4596691131591797,-2.286358594894409
1725891806292910600,14.38091064453125,1.5328025817871094,0.8400447368621826,-1.830045461654663
1725891806311760000,14.399759765625,1.2179327011108398,0.75203537940979,-1.3508938550949097
1725891806330609000,14.41860888671875,2.384571075439453,0.41663241386413574,-1.09354567527771
1725891806349458200,14.437458251953124,3.217400074005127,0.24154901504516602,-1.4922235012054443
1725891806368307500,14.456307373046876,3.512570858001709,1.0166795253753662,-2.049469232559204
1725891806387156500,14.475156494140625,2.770160675048828,2.001066207885742,-3.2241334915161133
1725891806406005800,14.494005859375,1.235121726989746,1.7205486297607422,-0.7828919887542725
1725891806424855000,14.51285498046875,3.5789241790771484,0.6297273635864258,-0.01723313331604004
1725891806443704000,14.5317041015625,2.8689136505126953,1.441332459449768,-2.968203544616699
1725891806462553300,14.55055322265625,0.7028579711914062,2.704284191131592,-1.7167158126831055
1725891806481402400,14.56940234375,2.268404483795166,2.614926815032959,-1.4343223571777344
1725891806500251600,14.588251708984375,2.1363916397094727,2.3950986862182617,-2.2961478233337402
1725891806519100700,14.6071005859375,1.7059311866760254,1.1467194557189941,-2.0838816165924072
1725891806537950000,14.625949951171876,2.1565470695495605,0.4689760208129883,-2.079881191253662
1725891806556799200,14.64479931640625,2.0486316680908203,0.4154691696166992,-1.432741641998291
1725891806575648300,14.663648193359375,1.0754432678222656,-0.06027078628540039,-0.3072395324707031
1725891806594497500,14.68249755859375,0.03837442398071289,-1.2142152786254883,1.1298027038574219
1725891806613346800,14.701346923828124,0.42060279846191406,-2.5230660438537598,3.2855515480041504
1725891806632195800,14.72019580078125,0.7285161018371582,-5.027999401092529,3.5711097717285156
1725891806651045000,14.739045166015625,-1.8485145568847656,-4.017092704772949,2.356628894805908
1725891806669894100,14.75789404296875,-2.5263681411743164,-2.6322898864746094,1.3104228973388672
1725891806688743400,14.776743408203124,-2.743117332458496,-2.598921775817871,0.45297861099243164
1725891806707592400,14.795592529296876,-1.8766741752624512,-1.9703960418701172,0.3142585754394531
1725891806726441700,14.814441650390625,-1.2989864349365234,-1.6403751373291016,0.47194910049438477
1725891806745291000,14.833291015625,-0.4100942611694336,-2.025254249572754,0.34609460830688477
1725891806764140000,14.85214013671875,-0.44742918014526367,-2.435581684112549,0.5598306655883789
1725891806782989300,14.8709892578125,-0.9991827011108398,-1.40077543258667,-0.743260383605957
1725891806801838300,14.88983837890625,-0.4296846389770508,-0.3866853713989258,0.10824394226074219
1725891806820687600,14.9086875,-0.8450894355773926,-0.2003626823425293,0.8289928436279297
1725891806839537000,14.927536865234375,-1.2119174003601074,-0.5954837799072266,1.398073673248291
1725891806858386000,14.946385986328124,-1.394606590270996,-0.5419921875,1.5922260284423828
1725891806877235200,14.965235107421876,-0.606663703918457,-0.6014490127563477,2.0764670372009277
1725891806896084200,14.984084228515625,-0.14692115783691406,-0.007678508758544922,1.4295201301574707
1725891806914933500,15.00293359375,0.5723876953125,0.5691242218017578,0.4610567092895508
1725891806933782500,15.021782470703124,-0.2439284324645996,0.1369490623474121,-0.32423925399780273
1725891806952631800,15.0406318359375,-0.9533286094665527,-0.48708200454711914,0.004704475402832031
1725891806971481000,15.059481201171875,-1.0134940147399902,-1.546630859375,0.8773069381713867
1725891806990330000,15.078330078125,-0.44760942459106445,-2.155414581298828,0.8762984275817871
1725891807009179400,15.097179443359375,0.5187463760375977,-1.9095563888549805,1.5468297004699707
1725891807028028700,15.116028564453124,0.6884427070617676,-2.28047513961792,1.3020567893981934
1725891807046877700,15.134877685546876,0.8768949508666992,-1.4149436950683594,0.928123950958252
1725891807065727000,15.15372705078125,0.36762237548828125,-1.0381979942321777,1.6881051063537598
1725891807084576000,15.172575927734375,-0.05070972442626953,-1.8616743087768555,2.2091283798217773
1725891807103425300,15.19142529296875,1.203320026397705,-1.8592219352722168,1.6817076206207275
1725891807122274300,15.2102744140625,2.3098011016845703,-1.3033695220947266,0.8401410579681396
1725891807141123600,15.22912353515625,1.659383773803711,0.4559440612792969,-1.324298620223999
1725891807159972600,15.24797265625,1.150787353515625,2.1889138221740723,-2.130247116088867
1725891807178822000,15.26682177734375,1.6797151565551758,-0.4226353168487549,-1.4916433095932007
1725891807197671200,15.285671142578124,1.3483424186706543,-0.4807882308959961,-1.0530738830566406
1725891807216520200,15.304520263671876,2.6231002807617188,-0.5217854976654053,-0.8565042018890381
1725891807235369500,15.323369384765625,3.20475435256958,1.630595326423645,-1.9571430683135986
1725891807254218500,15.342218505859375,3.2154202461242676,1.9309256076812744,-2.5484049320220947
1725891807273067800,15.36106787109375,2.7259950637817383,1.924396276473999,-1.8542039394378662
1725891807291917000,15.3799169921875,2.497340202331543,1.7565219402313232,-1.6157337427139282
1725891807310766000,15.39876611328125,2.793210983276367,1.5669280290603638,-1.7373321056365967
1725891807329615400,15.417615478515625,2.8548827171325684,1.4987504482269287,-2.5265774726867676
1725891807348464400,15.43646435546875,1.8549365997314453,1.8273252248764038,-2.4880666732788086
1725891807367313700,15.455313720703124,1.4678783416748047,2.552936553955078,-1.2312471866607666
1725891807386163000,15.474162841796876,1.6917610168457031,2.0240941047668457,-1.1631197929382324
1725891807405012000,15.493011962890625,1.5573558807373047,1.3009274005889893,-1.8774842023849487
1725891807423861200,15.511861328125,1.7525525093078613,0.8233165740966797,-1.0435361862182617
1725891807442710300,15.530710205078124,2.5383167266845703,0.37447357177734375,-0.43450260162353516
1725891807461559600,15.5495595703125,1.5214009284973145,0.19009923934936523,-0.28127479553222656
1725891807480408600,15.56840869140625,0.40415239334106445,-0.906916618347168,0.4275832176208496
1725891807499257900,15.5872578125,-0.025640010833740234,-2.3851075172424316,1.5943398475646973
1725891807518107000,15.60610693359375,-0.3037900924682617,-4.376806259155273,2.243915557861328
1725891807536956200,15.6249560546875,-1.739877700805664,-4.478087425231934,1.6209735870361328
1725891807555805400,15.643805419921875,-2.452212333679199,-2.812519073486328,1.854663372039795
1725891807574654500,15.662654541015625,-2.4912281036376953,-2.7548956871032715,1.850229024887085
1725891807593503700,15.681503662109375,-2.1477599143981934,-3.008902072906494,1.3343071937561035
1725891807612352800,15.700352783203124,-1.3367433547973633,-2.585786819458008,1.6315701007843018
1725891807631202000,15.7192021484375,-0.8538122177124023,-2.3123397827148438,1.2220263481140137
1725891807650051000,15.738051025390625,-0.639188289642334,-1.9689841270446777,0.9456799030303955
1725891807668900400,15.756900390625,-0.7129292488098145,-1.2001409530639648,0.9993176460266113
1725891807687749400,15.775749267578124,-0.5511527061462402,-0.4507451057434082,0.273284912109375
1725891807706598700,15.7945986328125,-0.6264257431030273,0.17042112350463867,0.9307613372802734
1725891807725448000,15.813447998046875,-0.7278523445129395,-0.21587324142456055,0.5952458381652832
1725891807744297000,15.832296875,-0.2711362838745117,0.09669733047485352,0.19669771194458008
1725891807763146200,15.851146240234375,0.49820613861083984,0.24420690536499023,-0.09260940551757812
1725891807781995300,15.869995361328124,0.6267695426940918,0.42075061798095703,-0.2652549743652344
1725891807800844500,15.888844482421876,0.23000621795654297,-0.39173269271850586,-0.18463993072509766
1725891807819693600,15.907693603515625,-0.4631357192993164,-1.4701566696166992,0.12308168411254883
1725891807838542800,15.92654296875,-0.9184956550598145,-1.552802562713623,0.2505955696105957
1725891807857392000,15.94539208984375,-0.6888694763183594,-1.290339469909668,1.1594738960266113
1725891807876241200,15.9642412109375,-0.2958793640136719,-1.4681434631347656,1.8972759246826172
1725891807895090400,15.98309033203125,-0.33246469497680664,-1.7665739059448242,2.327565908432007
1725891807913939500,16.001939453125,0.08421754837036133,-2.4477148056030273,1.896883249282837
1725891807932788700,16.020788818359375,0.23485708236694336,-2.398141384124756,1.2436246871948242
1725891807951637800,16.0396376953125,0.5066723823547363,-1.8961362838745117,1.5031523704528809
1725891807970487000,16.058487060546874,0.7115731239318848,-1.7325830459594727,1.6989853382110596
1725891807989336000,16.077336181640625,0.9080772399902344,-0.4396672248840332,0.6426894664764404
1725891808008185300,16.096185302734376,1.4648828506469727,0.5738420486450195,-0.24439454078674316
1725891808027034600,16.11503466796875,2.3134117126464844,0.48620057106018066,-1.1931968927383423
1725891808045883600,16.133883544921876,1.4397544860839844,1.452829122543335,-2.122410297393799
1725891808064733000,16.15273291015625,1.678713321685791,0.6550381183624268,-1.3036255836486816
1725891808083582000,16.17158203125,2.0355043411254883,-0.8870854377746582,-0.4647374153137207
1725891808102431200,16.19043115234375,1.3580231666564941,0.07200264930725098,-1.1512141227722168
1725891808121280300,16.2092802734375,2.1625657081604004,0.4258718490600586,-1.1381912231445312
1725891808140129500,16.228129638671874,3.106816291809082,0.8826470375061035,-1.7649774551391602
1725891808158978600,16.246978515625,3.156137466430664,1.6453990936279297,-1.8357428312301636
1725891808177827800,16.265827880859376,2.557572364807129,1.7324366569519043,-1.5364179611206055
1725891808196677000,16.284677001953124,2.4525880813598633,1.7932425737380981,-2.267069101333618
1725891808215526100,16.303526123046876,1.9103269577026367,1.9472830295562744,-1.9187875986099243
1725891808234375400,16.32237548828125,2.0481672286987305,1.6325411796569824,-1.8728127479553223
1725891808253224400,16.341224365234375,1.8815631866455078,1.9299800395965576,-2.2929368019104004
1725891808272073700,16.36007373046875,1.558363914489746,1.7548317909240723,-2.0464444160461426
1725891808290922800,16.3789228515625,1.6007471084594727,1.6422536373138428,-1.7135467529296875
1725891808309772000,16.39777197265625,1.7137784957885742,1.9300627708435059,-1.556122064590454
1725891808328621000,16.41662109375,0.6607317924499512,1.364201545715332,-0.7253413200378418
1725891808347470300,16.43547021484375,0.9232416152954102,0.6153278350830078,-0.14923667907714844
1725891808366319400,16.4543193359375,1.0094027519226074,-0.17123889923095703,0.6774601936340332
1725891808385168600,16.473168701171875,1.2042055130004883,-1.4961872100830078,1.2075738906860352
1725891808404017700,16.492017578125,-0.12786293029785156,-2.201345443725586,1.6931414604187012
1725891808422867000,16.510866943359375,-0.7527737617492676,-3.4424386024475098,2.9565303325653076
1725891808441716000,16.529716064453126,-1.3658466339111328,-4.771862506866455,3.087160587310791
1725891808460565200,16.548565185546874,-1.9235458374023438,-4.306722164154053,1.4404757022857666
1725891808479414300,16.567414306640625,-1.8257951736450195,-2.420321464538574,-0.1869044303894043
1725891808498263600,16.586263671875,-1.4162306785583496,-1.1074538230895996,-0.46944260597229004
1725891808517112800,16.60511279296875,-0.8098220825195312,-0.9344840049743652,0.18151545524597168
1725891808535961900,16.6239619140625,-0.3362464904785156,-1.469355583190918,0.8700473308563232
1725891808554811100,16.64281103515625,-0.5629539489746094,-1.4216279983520508,0.8177464008331299
1725891808573660200,16.66166015625,-0.802037239074707,-0.7837767601013184,0.6747736930847168
1725891808592509400,16.680509521484375,-1.1341800689697266,-1.0348687171936035,1.129892349243164
1725891808611358500,16.6993583984375,-0.9851927757263184,-0.8618898391723633,1.3471059799194336
1725891808630207700,16.718207763671874,-0.8606023788452148,-0.5031743049621582,1.166860580444336
1725891808649056800,16.737056884765625,-0.6286211013793945,-0.2667379379272461,1.714491367340088
1725891808667906000,16.755906005859377,-0.5145206451416016,-0.6215777397155762,1.4430732727050781
1725891808686755000,16.774755126953124,-0.34892845153808594,-0.4938540458679199,0.8763132095336914
1725891808705604400,16.793604248046876,-0.07608890533447266,-0.35948896408081055,0.4924178123474121
1725891808724453400,16.812453369140623,0.1352839469909668,-0.39315080642700195,0.1226959228515625
1725891808743302700,16.831302734375,-0.08560609817504883,-0.3604469299316406,-0.03334331512451172
1725891808762151700,16.850151611328126,-0.2807140350341797,-0.7703170776367188,0.4658517837524414
1725891808781001000,16.8690009765625,-0.24039888381958008,-1.4113764762878418,0.6793546676635742
1725891808799850200,16.887850341796874,0.0014600753784179688,-1.6491422653198242,0.9451541900634766
1725891808818699300,16.90669921875,0.5625982284545898,-1.3618183135986328,1.072376012802124
1725891808837548300,16.92554833984375,0.27117204666137695,-1.1465816497802734,1.0460870265960693
1725891808856397600,16.9443974609375,0.3798789978027344,-1.4279446601867676,1.38991117477417
1725891808875246600,16.96324658203125,0.22897624969482422,-2.3439412117004395,1.8662199974060059
1725891808894096000,16.982095947265623,0.41933441162109375,-2.2935986518859863,1.8975906372070312
1725891808912945000,17.00094482421875,0.47170209884643555,-0.334322452545166,1.1528630256652832
1725891808931794200,17.019794189453126,0.9389705657958984,-0.04503965377807617,0.3061714172363281
1725891808950643500,17.0386435546875,1.224989414215088,0.6566383838653564,-0.5612363815307617
1725891808969492500,17.057492431640625,1.849174976348877,0.38037681579589844,-0.9064655303955078
1725891808988341500,17.076341552734377,1.3370161056518555,0.5657861232757568,-1.1566253900527954
1725891809007190800,17.095190673828125,2.0674667358398438,0.041639089584350586,-0.8259532451629639
1725891809026039800,17.114039794921876,3.1250662803649902,0.8272953033447266,-1.2921504974365234
1725891809044889000,17.13288916015625,3.658224582672119,1.4152582883834839,-1.8886929750442505
1725891809063738400,17.15173828125,3.406069278717041,2.0518362522125244,-2.326329469680786
1725891809082587400,17.17058740234375,2.6192431449890137,1.7561804056167603,-1.7432403564453125
1725891809101436700,17.189436767578126,2.932774066925049,1.267580270767212,-1.2476832866668701
1725891809120285700,17.20828564453125,2.639220714569092,1.487511157989502,-1.204864263534546
1725891809139134700,17.227134765625,2.5738725662231445,1.8679304122924805,-1.468867540359497
1725891809157984000,17.24598388671875,2.012281894683838,1.9665004014968872,-1.9169421195983887
1725891809176833000,17.2648330078125,1.4361567497253418,1.7822273969650269,-1.837092399597168
1725891809195682300,17.283682373046876,1.1229543685913086,1.404987096786499,-1.1296064853668213
1725891809214531600,17.302531494140624,1.383070468902588,1.6468818187713623,-0.9444904327392578
1725891809233380600,17.321380615234375,0.5711302757263184,0.8073716163635254,-0.687108039855957
1725891809252229600,17.340229736328126,0.9171938896179199,0.5932011604309082,-0.23150920867919922
1725891809271079000,17.359078857421874,0.6010198593139648,0.12483453750610352,0.46135902404785156
1725891809289928000,17.377927978515626,0.6477441787719727,-0.7480568885803223,1.3648097515106201
1725891809308777200,17.396777099609373,0.13250970840454102,-1.8372392654418945,1.3064868450164795
1725891809327626500,17.41562646484375,-0.15790081024169922,-2.885345935821533,1.4509294033050537
1725891809346475500,17.4344755859375,-0.2466721534729004,-3.8185248374938965,1.4873287677764893
1725891809365324500,17.453324462890624,-0.8037533760070801,-3.2295022010803223,0.46663880348205566
1725891809384173800,17.472173828125,-1.5248990058898926,-2.094524383544922,-0.09253263473510742
1725891809403022800,17.49102294921875,-1.7306504249572754,-1.9571623802185059,0.6369915008544922
1725891809421872000,17.5098720703125,-1.7392868995666504,-2.596787452697754,1.8746395111083984
1725891809440721200,17.52872119140625,-1.1856188774108887,-2.562070369720459,1.932335376739502
1725891809459570400,17.5475703125,-1.0820660591125488,-2.057114601135254,0.7906436920166016
1725891809478419500,17.56641943359375,-0.7312326431274414,-1.518120288848877,0.6972222328186035
1725891809497268700,17.585268798828125,-1.026522159576416,-1.378941535949707,0.6748147010803223
1725891809516117800,17.60411767578125,-1.1110119819641113,-0.901343822479248,0.9627695083618164
1725891809534967000,17.622967041015624,-0.6339797973632812,-0.4416046142578125,0.9776406288146973
1725891809553816000,17.641816162109375,-0.11162137985229492,0.3720269203186035,0.6325864791870117
1725891809572665300,17.660665283203127,0.3148770332336426,0.9905581474304199,0.44560694694519043
1725891809591514400,17.679514404296874,0.33345556259155273,0.6985712051391602,0.39171838760375977
1725891809610363600,17.69836376953125,-0.1213064193725586,-0.1723775863647461,0.0400235652923584
1725891809629212700,17.717212646484374,-0.20933055877685547,-0.8130879402160645,0.12343358993530273
1725891809648061700,17.736061767578125,-0.8686671257019043,-1.1913437843322754,0.1344313621520996
1725891809666911000,17.754910888671876,-1.2533774375915527,-1.3124656677246094,0.6931841373443604
1725891809685760000,17.773760009765624,-0.528414249420166,-1.454636573791504,1.4539546966552734
1725891809704609300,17.792609375,0.11377716064453125,-1.0370392799377441,2.028947114944458
1725891809723458300,17.811458251953123,0.26302003860473633,-0.9516572952270508,1.3766183853149414
1725891809742307600,17.8303076171875,-0.029375553131103516,-1.207900047302246,1.0261321067810059
1725891809761156600,17.849156494140626,-0.1352081298828125,-1.9048943519592285,1.567762851715088
1725891809780006000,17.868005859375,1.0530786514282227,-2.489980697631836,1.9996135234832764
1725891809798855000,17.88685498046875,1.370704174041748,-2.3273487091064453,1.361727237701416
1725891809817704200,17.9057041015625,1.0084519386291504,-1.1862430572509766,0.7155435085296631
1725891809836553200,17.92455322265625,0.497894287109375,0.32135629653930664,-0.036919355392456055
1725891809855402500,17.943402587890624,1.1041765213012695,0.4855537414550781,-0.029498577117919922
1725891809874251500,17.96225146484375,1.4152965545654297,0.5301156044006348,-0.5678479671478271
1725891809893100500,17.9811005859375,1.4586663246154785,1.9133150577545166,-1.829438328742981
1725891809911949800,17.99994970703125,1.2674388885498047,0.656764030456543,-1.5358388423919678
1725891809930799000,18.018799072265626,1.9142560958862305,-0.1516733169555664,-1.0457196235656738
1725891809949648100,18.037648193359374,0.961357593536377,0.8058645725250244,-1.0833371877670288
1725891809968497200,18.0564970703125,1.8577537536621094,0.338376522064209,-0.5438011884689331
1725891809987346400,18.075346435546876,2.9586825370788574,0.17922329902648926,-1.0611226558685303
1725891810006195500,18.094195556640624,3.2667441368103027,1.1624209880828857,-1.0256175994873047
1725891810025044500,18.11304443359375,3.3439865112304688,2.1600985527038574,-1.9439809322357178
1725891810043893800,18.131893798828123,2.671947479248047,2.064159631729126,-1.9197880029678345
1725891810062743000,18.150742919921875,1.9756860733032227,1.5859637260437012,-1.6620069742202759
1725891810081592000,18.169592041015626,1.9595394134521484,1.4966886043548584,-1.348236322402954
1725891810100441000,18.188441162109374,1.888451099395752,1.8749608993530273,-1.50112783908844
1725891810119290400,18.207290283203125,1.9643115997314453,2.1547484397888184,-1.7161459922790527
1725891810138139400,18.226139404296877,1.8011674880981445,2.435468912124634,-1.801287293434143
1725891810156988700,18.24498876953125,1.0560708045959473,2.4919052124023438,-1.3450367450714111
1725891810175837700,18.263837646484376,0.6899204254150391,1.201530933380127,-0.16612958908081055
1725891810194687000,18.28268701171875,1.0950117111206055,0.18986845016479492,0.7881662845611572
1725891810213536000,18.301535888671875,0.7557964324951172,-0.8676638603210449,1.1378047466278076
1725891810232385000,18.320385009765626,0.5108599662780762,-1.9920239448547363,1.2324130535125732
1725891810251234300,18.339234375,-0.4338831901550293,-2.551971912384033,1.248016595840454
1725891810270083300,18.358083251953126,-0.863398551940918,-2.936157703399658,1.9905145168304443
1725891810288932600,18.3769326171875,-1.6958909034729004,-3.429161548614502,2.417868137359619
1725891810307781600,18.39578173828125,-2.144339084625244,-3.415534019470215,2.617886781692505
1725891810326630700,18.414630615234376,-1.9710707664489746,-3.020702838897705,2.0949902534484863
1725891810345480000,18.43347998046875,-1.4446525573730469,-1.9015026092529297,0.7588133811950684
1725891810364329000,18.452328857421875,-0.9516048431396484,-0.40935325622558594,0.04195690155029297
1725891810383178200,18.47117822265625,-0.5798249244689941,-0.23173856735229492,-0.19449639320373535
1725891810402027300,18.49002734375,-0.46517372131347656,-1.1766743659973145,0.4367375373840332
1725891810420876500,18.50887646484375,-0.8430895805358887,-2.53000545501709,1.1390719413757324
1725891810439725600,18.5277255859375,-1.0103864669799805,-1.7630963325500488,1.602611780166626
1725891810458574600,18.54657470703125,-0.6829338073730469,-0.4225916862487793,0.7703871726989746
1725891810477423900,18.565423828125,-0.22913742065429688,0.31668710708618164,0.8527936935424805
1725891810496273000,18.58427294921875,0.2939300537109375,0.059273719787597656,0.4511728286743164
1725891810515122200,18.6031220703125,0.023634910583496094,-0.3641996383666992,0.5314035415649414
1725891810533971200,18.62197119140625,-0.3279132843017578,-0.4673910140991211,0.7097091674804688
1725891810552820200,18.6408203125,-0.6196351051330566,-0.784400463104248,0.6878623962402344
1725891810571669500,18.65966943359375,-0.5323553085327148,-0.9370036125183105,0.48997974395751953
1725891810590518800,18.678518798828126,0.08829545974731445,-0.8869442939758301,0.1277761459350586
1725891810609367800,18.697367919921874,0.6210761070251465,-0.2570991516113281,-0.08301210403442383
1725891810628216800,18.716216796875,1.0178627967834473,0.1288771629333496,0.5479846000671387
1725891810647065900,18.73506591796875,-0.20790576934814453,-0.6959972381591797,1.3345096111297607
1725891810665915100,18.7539150390625,-1.5335206985473633,-2.099748134613037,2.0035459995269775
1725891810684764400,18.772764404296876,-0.2977581024169922,-3.0548763275146484,1.2189555168151855
1725891810703613400,18.791613525390623,0.24750137329101562,-2.087848663330078,1.0843565464019775
1725891810722462500,18.81046240234375,0.0826416015625,-1.556647777557373,1.2252607345581055
1725891810741311700,18.829311767578126,-0.41988277435302734,-1.6465797424316406,1.7556250095367432
1725891810760160800,18.848160888671874,1.1542549133300781,-1.795121669769287,1.3927440643310547
1725891810779009800,18.867009765625,1.3884601593017578,-0.1852412223815918,-0.30404043197631836
1725891810797859000,18.885859130859377,1.2531852722167969,0.7736227512359619,-0.6581456661224365
1725891810816708000,18.9047080078125,1.9855165481567383,0.8517951965332031,-1.0079981088638306
1725891810835557400,18.923557373046876,1.4749603271484375,2.3428378105163574,-2.365553855895996
1725891810854406400,18.942406494140624,1.1745061874389648,0.9021861553192139,-1.4212274551391602
1725891810873255400,18.96125537109375,1.7234907150268555,-0.4950065612792969,-1.0666645765304565
1725891810892104700,18.980104736328126,1.7327017784118652,0.10970735549926758,-1.3063520193099976
1725891810910953700,18.99895361328125,2.457592010498047,0.9318957328796387,-1.6166473627090454
1725891810929802800,19.017802734375,2.6662187576293945,1.2587838172912598,-2.0778350830078125
1725891810948652000,19.036652099609373,2.149233341217041,1.6332793235778809,-1.7762941122055054
1725891810967501000,19.0555009765625,2.2769317626953125,1.5987615585327148,-1.8263068199157715
1725891810986350300,19.074350341796876,1.9219880104064941,1.912724494934082,-1.92851722240448
1725891811005199400,19.093199462890624,1.5474534034729004,1.7210251092910767,-0.8579671382904053
1725891811024048400,19.11204833984375,2.032474994659424,1.5103659629821777,-0.6118083000183105
1725891811042897700,19.130897705078127,1.9397954940795898,1.6075481176376343,-1.4585907459259033
1725891811061746700,19.14974658203125,0.9797840118408203,1.9455914497375488,-1.7708017826080322
1725891811080596000,19.168595947265626,1.202676773071289,1.902270793914795,-1.0137042999267578
1725891811099445000,19.187445068359374,1.0671648979187012,1.6428375244140625,-0.9196078777313232
1725891811118294000,19.2062939453125,1.3214473724365234,1.8724651336669922,-0.5853626728057861
1725891811137143300,19.225143310546876,0.7817440032958984,0.6459250450134277,-0.6529598236083984
1725891811155992300,19.243992431640624,0.7889547348022461,-0.09508419036865234,0.24709177017211914
1725891811174841600,19.262841552734375,1.204484462738037,-1.449739933013916,0.847200870513916
1725891811193690600,19.281690673828123,0.22214078903198242,-2.3840131759643555,0.7210702896118164
1725891811212539600,19.30053955078125,-0.5459513664245605,-3.0983142852783203,1.857173204421997
1725891811231388700,19.319388671875,-1.3332586288452148,-3.8217382431030273,2.042165994644165
1725891811250238000,19.338238037109374,-1.974813461303711,-3.0658082962036133,1.4707520008087158
1725891811269087000,19.3570869140625,-2.0954837799072266,-1.8045258522033691,-0.25680088996887207
1725891811287936300,19.375936279296877,-1.8596620559692383,-1.046241283416748,-0.04410386085510254
1725891811306785300,19.394785400390624,-1.256485939025879,-2.244976043701172,1.1418375968933105
1725891811325634300,19.41363427734375,-1.1532840728759766,-3.1734094619750977,2.3023314476013184
1725891811344483600,19.432483642578124,-0.5494809150695801,-2.4742374420166016,1.8493778705596924
1725891811363332600,19.45133251953125,-0.07879209518432617,-0.775238037109375,-0.02068018913269043
1725891811382182000,19.470181884765626,0.32271480560302734,0.37275075912475586,0.07724952697753906
1725891811401031000,19.489031005859374,-0.5658416748046875,0.07661962509155273,-0.6936924457550049
1725891811419880000,19.5078798828125,-0.9714879989624023,0.3088092803955078,0.4426147937774658
1725891811438729000,19.52672900390625,-1.0605897903442383,-0.35477209091186523,1.0576095581054688
1725891811457578200,19.545578125,-1.1292695999145508,-0.5990300178527832,0.5041518211364746
1725891811476427300,19.56442724609375,-0.38097620010375977,-0.31534767150878906,0.15332317352294922
1725891811495276500,19.583276611328124,-0.22619295120239258,-0.13782644271850586,0.7263374328613281
1725891811514125600,19.60212548828125,-0.3740401268005371,-1.0323309898376465,0.5717868804931641
1725891811532974600,19.620974609375,-0.6152472496032715,-1.129347324371338,1.2409257888793945
1725891811551824000,19.639823974609374,-0.24224519729614258,-1.309659481048584,0.5948081016540527
1725891811570673000,19.6586728515625,-0.29149389266967773,-0.8352532386779785,0.3901238441467285
1725891811589522000,19.67752197265625,0.05980491638183594,-0.5904569625854492,0.7568340301513672
1725891811608371200,19.69637109375,-0.6693296432495117,-1.222160816192627,1.2228779792785645
1725891811627220200,19.71522021484375,-0.8279328346252441,-1.8381013870239258,1.6399550437927246
1725891811646069500,19.734069580078124,-0.44034910202026367,-2.0586318969726562,2.2997074127197266
1725891811664918500,19.75291845703125,1.2743396759033203,-2.2690329551696777,1.7988255023956299
1725891811683767600,19.771767578125,1.3148813247680664,-1.3714981079101562,0.969590425491333
1725891811702616600,19.790616455078126,0.773310661315918,-0.016632080078125,0.7444846630096436
1725891811721465900,19.8094658203125,1.0332469940185547,0.7157149314880371,0.07396435737609863
1725891811740315000,19.82831494140625,0.3412303924560547,0.7901921272277832,-0.49906134605407715
1725891811759164000,19.847163818359373,1.0903701782226562,-0.36561012268066406,-0.40587806701660156
1725891811778013200,19.86601318359375,1.7229399681091309,0.8678839206695557,-0.9536685943603516
1725891811796862200,19.8848623046875,2.2941932678222656,-0.025004863739013672,-1.8919954299926758
1725891811815711500,19.90371142578125,0.8673434257507324,0.6187856197357178,-1.353254795074463
1725891811834560500,19.922560546875,1.9488821029663086,0.3927478790283203,-0.4023716449737549
1725891811853409500,19.941409423828127,1.8291897773742676,0.7788779735565186,-0.6346684694290161
1725891811872258600,19.960258544921874,2.7582616806030273,0.5689053535461426,-1.1159334182739258
1725891811891107800,19.97910791015625,3.2058305740356445,1.3900032043457031,-1.4953343868255615
1725891811909956900,19.997956787109374,2.4491195678710938,1.621964931488037,-1.3243513107299805
1725891811928806000,20.016805908203125,3.2456412315368652,1.8686559200286865,-1.6898133754730225
1725891811947655200,20.0356552734375,2.2434730529785156,2.555014133453369,-2.705031633377075
1725891811966504700,20.054504638671876,0.9709262847900391,2.8289966583251953,-2.1780991554260254
1725891811985353500,20.073353515625,1.4923248291015625,1.4214658737182617,-0.5090408325195312
1725891812004202500,20.092202392578123,2.850539207458496,0.7869875431060791,-0.9178774356842041
1725891812023051500,20.111051513671875,1.463418960571289,1.8534727096557617,-1.7790292501449585
1725891812041900500,20.129900634765626,0.9276862144470215,1.7585196495056152,-1.7708523273468018
1725891812060749800,20.148749755859374,0.898231029510498,1.3216781616210938,-0.49742579460144043
1725891812079598800,20.167598876953125,1.4836006164550781,-0.0804758071899414,0.7927591800689697
1725891812098448000,20.18644775390625,0.07770442962646484,-0.6692714691162109,0.7190587520599365
1725891812117297000,20.205296875,-0.11545658111572266,-1.1523752212524414,1.2528557777404785
1725891812136146200,20.224146240234376,0.6431632041931152,-1.807337760925293,1.129601001739502
1725891812154995200,20.2429951171875,0.6782832145690918,-2.0303444862365723,0.6450743675231934
1725891812173844500,20.261844482421875,0.5642356872558594,-2.3897180557250977,0.44306516647338867
1725891812192693500,20.280693603515626,-1.0399866104125977,-2.171450138092041,-0.3734743595123291
1725891812211542500,20.29954248046875,-2.142843723297119,-1.1507716178894043,0.4393634796142578
1725891812230391800,20.318391845703125,-2.043332099914551,-2.0913424491882324,0.8104352951049805
1725891812249240800,20.33724072265625,-1.2920804023742676,-2.840117931365967,1.1067006587982178
1725891812268089900,20.35608984375,-1.1193761825561523,-2.3192663192749023,0.3821675777435303
1725891812286939000,20.37493896484375,-1.0687808990478516,-1.3075628280639648,0.4553050994873047
1725891812305788200,20.3937880859375,-1.1164278984069824,-1.538952350616455,1.1790478229522705
1725891812324637200,20.41263720703125,-1.5143933296203613,-2.231152057647705,1.8474979400634766
1725891812343486200,20.431486328125,-1.5729484558105469,-1.8780231475830078,2.231431245803833
1725891812362335200,20.450335205078126,-1.1051025390625,-1.5580763816833496,1.3276710510253906
1725891812381184500,20.4691845703125,-1.1185555458068848,-0.3146686553955078,0.945249080657959
1725891812400033500,20.488033447265625,-0.8062033653259277,0.28415679931640625,0.4907660484313965
1725891812418882600,20.506882568359377,-0.3020925521850586,0.5067930221557617,1.0502715110778809
1725891812437731800,20.52573193359375,-0.19921398162841797,-0.8467259407043457,0.13795185089111328
1725891812456580900,20.544580810546876,-0.030097007751464844,-0.1074681282043457,-0.3477153778076172
1725891812475430100,20.56343017578125,0.23444318771362305,-0.13225221633911133,-0.04032468795776367
1725891812494279200,20.582279052734375,-0.3153848648071289,-0.902616024017334,-0.7948908805847168
1725891812513128200,20.601128173828126,-0.6720781326293945,-0.32375526428222656,0.03351736068725586
1725891812531977200,20.619977294921874,-1.1373000144958496,-0.8973703384399414,0.6956963539123535
1725891812550826500,20.638826416015625,-0.7767887115478516,-1.3032293319702148,1.9588279724121094
1725891812569675500,20.657675537109377,0.4171280860900879,-1.1445050239562988,2.08229398727417
1725891812588524500,20.676524658203125,0.13155698776245117,-0.7326860427856445,1.5691041946411133
1725891812607373600,20.69537353515625,0.33943748474121094,-0.7102923393249512,1.0138368606567383
1725891812626222800,20.714222900390624,0.16262006759643555,-0.9721593856811523,0.8917346000671387
1725891812645072000,20.73307177734375,0.5062479972839355,-1.3353533744812012,0.8742420673370361
1725891812663921000,20.7519208984375,0.8089427947998047,-0.9839115142822266,0.7329807281494141
1725891812682770000,20.77077001953125,1.0187783241271973,-0.8284554481506348,0.39476585388183594
1725891812701619200,20.789619140625,1.1241250038146973,-0.2321910858154297,-0.6366658210754395
1725891812720468200,20.80846826171875,0.5774106979370117,-0.03435993194580078,-0.9956507682800293
1725891812739317200,20.827317138671877,1.2594151496887207,0.2529873847961426,-1.341455340385437
1725891812758166300,20.846166259765624,1.6577024459838867,1.0727896690368652,-1.930599331855774
1725891812777015600,20.865015625,0.5885658264160156,0.2743370532989502,-1.9046530723571777
1725891812795864600,20.883864501953123,1.3950128555297852,-0.21833038330078125,-0.6342697143554688
1725891812814713600,20.902713623046875,2.3110556602478027,-0.15338826179504395,-0.7584812641143799
1725891812833563000,20.92156298828125,2.349486827850342,0.7108151912689209,-1.175075888633728
1725891812852412000,20.940411865234374,3.0990676879882812,1.7966370582580566,-1.3606021404266357
1725891812871261000,20.959260986328125,2.620985507965088,2.5439722537994385,-2.312140703201294
1725891812890110000,20.97810986328125,2.0475006103515625,2.4930779933929443,-1.0614399909973145
1725891812908959200,20.996959228515625,1.9851598739624023,0.8433020114898682,-0.8532791137695312
1725891812927808300,21.015808349609376,1.786238193511963,1.2906670570373535,-1.2771825790405273
1725891812946657300,21.0346572265625,1.281078815460205,1.929587483406067,-1.2706007957458496
1725891812965506300,21.05350634765625,1.6316499710083008,1.3891966342926025,-1.4298367500305176
1725891812984355600,21.07235546875,1.130690574645996,1.298142671585083,-1.6533091068267822
1725891813003204600,21.09120458984375,0.5077114105224609,1.2908954620361328,-0.7267584800720215
1725891813022053600,21.1100537109375,0.9837031364440918,0.8980875015258789,-1.1997759342193604
1725891813040902700,21.128902587890625,1.0084238052368164,1.5232415199279785,-0.9579849243164062
1725891813059752000,21.147751953125,1.9792494773864746,0.5812158584594727,-0.5477423667907715
1725891813078601000,21.16660107421875,0.622767448425293,-0.07115650177001953,0.05955076217651367
1725891813097450000,21.185449951171876,0.1079111099243164,-1.158949375152588,0.8164992332458496
1725891813116299000,21.204299072265623,-0.22726917266845703,-2.1998119354248047,1.2935538291931152
1725891813135148300,21.223148193359375,-0.5558185577392578,-2.775430202484131,1.2581539154052734
1725891813153997300,21.241997314453126,-0.9060811996459961,-2.639211654663086,1.2570371627807617
1725891813172846300,21.260846435546874,-1.0606822967529297,-2.093458652496338,1.2404332160949707
1725891813191695400,21.2796953125,-1.2754626274108887,-1.531942367553711,0.4023451805114746
1725891813210544600,21.298544677734377,-1.411017894744873,-0.8269143104553223,0.8631372451782227
1725891813229393700,21.3173935546875,-1.425201416015625,-1.8497381210327148,1.1886157989501953
1725891813248242700,21.33624267578125,-1.632232666015625,-1.6571879386901855,1.4769225120544434
1725891813267091700,21.355091796875,-1.0132527351379395,-2.4437694549560547,1.089709758758545
1725891813285941000,21.37394091796875,-0.793433666229248,-1.9533915519714355,-0.05526399612426758
1725891813304790000,21.3927900390625,-0.39835453033447266,-0.9387316703796387,-0.34957218170166016
1725891813323639000,21.41163916015625,-0.7085819244384766,-0.4638824462890625,0.10281848907470703
1725891813342488000,21.430488037109374,-1.1695523262023926,-0.8857555389404297,0.13733863830566406
1725891813361337000,21.449337158203125,-1.3029060363769531,-0.8222537040710449,0.6734952926635742
1725891813380186400,21.468186279296877,-1.1812376976013184,-0.9102177619934082,0.10205268859863281
1725891813399035400,21.487035400390624,-0.8454756736755371,-0.40267133712768555,-0.4232492446899414
1725891813417884400,21.505884521484376,-0.3272585868835449,-0.2334885597229004,-0.3707141876220703
1725891813436733400,21.5247333984375,-0.3174781799316406,-0.4904360771179199,0.6378636360168457
1725891813455582700,21.543582763671875,-0.21540594100952148,-0.47206687927246094,0.8927688598632812
1725891813474431700,21.562431640625,-0.4382290840148926,-0.2691354751586914,0.5332298278808594
1725891813493280800,21.58128076171875,-0.938107967376709,-0.16603946685791016,0.40084028244018555
1725891813512129800,21.6001298828125,-0.7993159294128418,-0.6709604263305664,0.4935302734375
1725891813530979000,21.61897900390625,-0.6212601661682129,-0.9734787940979004,0.5458083152770996
1725891813549828000,21.637828125,0.47087621688842773,-1.1591181755065918,0.33773088455200195
1725891813568677000,21.656677001953124,0.38985586166381836,-0.9081015586853027,0.17922306060791016
1725891813587526400,21.6755263671875,-0.5005908012390137,-0.9822311401367188,1.0308127403259277
1725891813606375400,21.69437548828125,-0.5262846946716309,-2.007722854614258,1.8957922458648682
1725891813625224400,21.713224365234375,0.3290095329284668,-2.8771228790283203,1.2913105487823486
1725891813644073500,21.732073486328126,0.9394817352294922,-2.045931816101074,0.7062695026397705
1725891813662922500,21.750922607421874,0.7984752655029297,-0.47667694091796875,0.23265457153320312
1725891813681771500,21.769771484375,0.6590313911437988,0.9199826717376709,-0.3252589702606201
1725891813700620800,21.788620849609377,1.015429973602295,0.7923622131347656,-1.0084166526794434
1725891813719469800,21.8074697265625,1.1286349296569824,0.9102950096130371,-1.3481934070587158
1725891813738318800,21.82631884765625,1.099930763244629,0.3077712059020996,-0.9737489223480225
1725891813757167900,21.84516796875,1.198582649230957,0.21690607070922852,-0.49115800857543945
1725891813776017000,21.864016845703127,1.2103681564331055,-0.27252817153930664,-0.2543599605560303
1725891813794866200,21.8828662109375,1.8001794815063477,0.6036279201507568,-0.7155615091323853
1725891813813715200,21.901715087890626,1.0041251182556152,0.9282855987548828,-1.3444191217422485
1725891813832564200,21.920564208984374,2.3746843338012695,0.7537236213684082,-1.4842818975448608
1725891813851413200,21.939413330078125,3.3403759002685547,1.520136833190918,-1.5503129959106445
1725891813870262500,21.958262451171876,2.7797789573669434,1.6412827968597412,-2.2013285160064697
1725891813889111600,21.977111572265624,2.285482883453369,1.8618484735488892,-2.2887580394744873
1725891813907960600,21.995960693359375,2.0993566513061523,1.7238516807556152,-1.5708929300308228
1725891813926809600,22.0148095703125,1.6777782440185547,2.0524752140045166,-1.3455488681793213
1725891813945658600,22.03365869140625,1.3167366981506348,2.290046215057373,-0.9302620887756348
1725891813964507600,22.052507568359374,0.9903192520141602,2.014850616455078,-1.278294324874878
1725891813983356700,22.071356689453125,1.330317497253418,1.7195963859558105,-0.7040235996246338
1725891814002206000,22.0902060546875,1.3812146186828613,1.4151637554168701,-0.5478336811065674
1725891814046958600,22.13495849609375,0.11795520782470703,-0.0050067901611328125,-0.2510559558868408
1725891814065807400,22.153807373046874,0.22651290893554688,-0.7156877517700195,0.9376263618469238
1725891814084656600,22.17265673828125,1.1678357124328613,-1.8931446075439453,1.1770145893096924
1725891814103505700,22.191505615234377,0.2040877342224121,-2.293677806854248,0.3574826717376709
1725891814122354700,22.210354736328124,-0.5827107429504395,-2.2714834213256836,0.5279021263122559
1725891814141203700,22.22920361328125,-1.274618148803711,-2.400782585144043,0.8698334693908691
1725891814160052700,22.248052734375,-1.7750415802001953,-2.666916847229004,0.9557240009307861
1725891814178902000,22.266902099609375,-1.4680190086364746,-2.2892985343933105,1.0777130126953125
1725891814197751000,22.2857509765625,-1.0599784851074219,-1.712310791015625,0.9704787731170654
1725891814216600000,22.30460009765625,-0.8112468719482422,-1.2809429168701172,0.8930492401123047
1725891814235449000,22.323448974609374,-0.1634516716003418,-1.3032994270324707,0.6279928684234619
1725891814254298000,22.342298095703125,-0.20179033279418945,-1.3945436477661133,0.5678374767303467
1725891814273147100,22.361147216796876,-0.6042470932006836,-1.1952276229858398,0.33881664276123047
1725891814291996400,22.379996337890624,-0.7325019836425781,-0.910794734954834,1.8320260047912598
1725891814310845400,22.398845458984376,-1.3021917343139648,-1.1934223175048828,0.6138465404510498
1725891814329694500,22.417694580078123,-1.0468807220458984,-0.2512655258178711,0.8971807956695557
1725891814348543500,22.43654345703125,-0.5165271759033203,-0.4242563247680664,0.3980898857116699
1725891814367392500,22.455392578125,-0.396547794342041,-0.2745838165283203,-0.4099619388580322
1725891814386241500,22.474241455078126,-0.1799631118774414,-0.23976850509643555,-0.0692136287689209
1725891814405090800,22.4930908203125,-0.14596176147460938,-0.2252969741821289,0.0668497085571289
1725891814423939800,22.51193994140625,-0.3939075469970703,0.09531450271606445,0.6106157302856445
1725891814442788900,22.530788818359376,-0.6541528701782227,0.08196258544921875,0.8052000999450684
1725891814461638000,22.549637939453124,-0.8757429122924805,0.13089704513549805,0.9467756748199463
1725891814480487000,22.56848681640625,-0.6535067558288574,0.011504173278808594,0.6963958740234375
1725891814499336000,22.5873359375,-0.3304300308227539,-0.15930509567260742,0.6492698192596436
1725891814518185200,22.606185302734374,-0.4609370231628418,-0.845160961151123,1.2154717445373535
1725891814537034200,22.6250341796875,-0.6355347633361816,-1.992434024810791,1.1348071098327637
1725891814555883300,22.64388330078125,-0.3919558525085449,-2.1271748542785645,0.9978983402252197
1725891814574732300,22.662732177734377,0.0650792121887207,-1.9558539390563965,1.2641117572784424
1725891814593581300,22.681581298828124,0.3407478332519531,-1.6162986755371094,1.1927638053894043
1725891814612430300,22.700430419921876,0.9620828628540039,-1.3166022300720215,1.4142756462097168
1725891814631279600,22.719279541015624,0.7389698028564453,-0.7698702812194824,1.1201660633087158
1725891814650128600,22.738128662109375,0.6435399055480957,0.3842458724975586,0.5456087589263916
1725891814668977700,22.756977783203126,1.115152359008789,1.206092119216919,0.0036046504974365234
1725891814687826700,22.77582666015625,1.4705524444580078,0.10273885726928711,0.22559332847595215
1725891814706675700,22.79467578125,1.5507926940917969,-0.19169378280639648,-0.18045616149902344
1725891814725524700,22.813524658203125,0.5199794769287109,1.4810535907745361,-0.8782144784927368
1725891814744373800,22.832373779296876,0.43135929107666016,0.27906179428100586,-0.9732527732849121
1725891814763222800,22.851222900390624,1.1547255516052246,-0.6555848121643066,-0.45898640155792236
1725891814782072000,22.870072021484376,1.583569049835205,-0.24566650390625,-0.6493513584136963
1725891814800921000,22.888921142578123,2.4047470092773438,0.730536699295044,-0.952743411064148
1725891814819770000,22.90777001953125,3.1587791442871094,1.187166452407837,-2.0491065979003906
1725891814838619100,22.926619140625,2.299034595489502,1.4980944395065308,-2.0865230560302734
1725891814857468200,22.94546826171875,2.3381080627441406,1.140715479850769,-1.1844005584716797
1725891814876317200,22.964317138671873,2.1856212615966797,1.5854982137680054,-1.9345569610595703
1725891814895166200,22.983166259765625,1.7480621337890625,2.0486531257629395,-1.3997650146484375
1725891814914015500,23.002015380859376,1.977750301361084,2.3686583042144775,-1.643086314201355
1725891814932864500,23.020864501953124,1.406562328338623,1.7822610139846802,-0.9848288297653198
1725891814951713500,23.039713623046875,1.5100722312927246,1.195084810256958,-0.3815898895263672
1725891814970562600,23.0585625,1.614990234375,1.390503168106079,-0.3909776210784912
1725891814989411600,23.07741162109375,0.5944175720214844,1.2578465938568115,-0.7985186576843262
1725891815008260600,23.096260498046874,0.20387935638427734,1.4211435317993164,-0.2522907257080078
1725891815027109600,23.115109619140625,1.8031706809997559,1.1932377815246582,0.5746719837188721
1725891815045958700,23.133958740234377,1.071260929107666,-0.052280426025390625,-0.046889543533325195
1725891815064808000,23.152807861328125,0.8980269432067871,-0.38950634002685547,0.16182851791381836
1725891815083657000,23.171656982421876,1.0720329284667969,-0.8462820053100586,0.48195505142211914
1725891815102506000,23.190506103515624,0.4195408821105957,-0.7319269180297852,0.602452278137207
1725891815121355000,23.20935498046875,-0.22219228744506836,-0.7910451889038086,0.8876018524169922
1725891815140204000,23.2282041015625,-0.2233600616455078,-1.3030900955200195,1.7200067043304443
1725891815159053000,23.247052978515626,-0.7548918724060059,-1.374915599822998,1.193786382675171
1725891815177902000,23.265902099609374,-1.403036117553711,-1.7482819557189941,0.4022829532623291
1725891815196751000,23.284751220703125,-1.3430466651916504,-2.8372702598571777,1.194502830505371
1725891815215600000,23.30360009765625,-2.06711483001709,-3.274484157562256,2.1273577213287354
1725891815234449400,23.322449462890624,-1.8255043029785156,-3.172152042388916,2.5929908752441406
1725891815253298400,23.34129833984375,-1.2784233093261719,-2.8066248893737793,1.6361660957336426
1725891815272147500,23.3601474609375,-0.6205415725708008,-1.1758370399475098,0.3950314521789551
1725891815290996500,23.37899658203125,0.09738492965698242,-0.4244518280029297,0.23763751983642578
1725891815309845500,23.397845458984374,-0.15420103073120117,-0.6814074516296387,0.29009151458740234
1725891815328694500,23.416694580078126,-0.6845488548278809,-0.47547149658203125,1.0611121654510498
1725891815347543600,23.43554345703125,-0.6435885429382324,-0.3620281219482422,1.4306082725524902
1725891815366392600,23.454392578125,-0.24010086059570312,-0.2032299041748047,1.3060858249664307
1725891815385241900,23.473241943359376,0.132659912109375,0.06915283203125,0.18863224983215332
1725891815404091000,23.4920908203125,0.5046024322509766,0.7107315063476562,-0.06308817863464355
1725891815422940000,23.51093994140625,0.30301904678344727,0.3364276885986328,0.7726888656616211
1725891815441789000,23.529788818359375,-0.6262602806091309,-0.6430068016052246,1.1534194946289062
1725891815460638000,23.548637939453126,-1.600982666015625,-0.9642429351806641,0.9859168529510498
1725891815479487000,23.567487060546874,-0.6719517707824707,-0.6068367958068848,0.901392936706543
1725891815498336000,23.5863359375,-0.10053539276123047,-0.10162496566772461,1.3614208698272705
1725891815517185000,23.60518505859375,-0.2925376892089844,-0.35585975646972656,1.1711065769195557
1725891815536034000,23.624033935546876,0.02961587905883789,-0.5297846794128418,1.0078213214874268
1725891815554883000,23.642883056640624,0.10453271865844727,-0.6659159660339355,1.2856247425079346
1725891815573732000,23.661732177734375,0.1702103614807129,-0.8343062400817871,1.148967981338501
1725891815592581400,23.680581298828123,-0.012939453125,-0.7625174522399902,0.8605384826660156
1725891815611430400,23.699430419921875,-0.005429744720458984,-1.4513511657714844,1.1018524169921875
