time,seconds_elapsed,z,y,x
1725891791962953200,0.050953125,0.43493571877479553,2.0883939266204834,-1.1214714050292969
1725891791981802000,0.069802001953125,0.5103775262832642,1.1937824487686157,-0.8597158193588257
1725891792000651000,0.088651123046875,0.6090322136878967,1.1366666555404663,-0.6382773518562317
1725891792019499800,0.107499755859375,0.6359102129936218,1.3904809951782227,-0.3258199989795685
1725891792038348500,0.1263486328125,0.4938841760158539,1.0740530490875244,-0.13553562760353088
1725891792057197600,0.145197509765625,0.26969680190086365,0.18005239963531494,0.10056361556053162
1725891792076046300,0.16404638671875,-0.05558869615197182,-1.3855940103530884,0.6262127757072449
1725891792094895000,0.18289501953125,-0.2528980076313019,-0.9644027948379517,1.5586978197097778
1725891792113744100,0.201744140625,0.01802051067352295,-0.4689914286136627,1.440495491027832
1725891792132593000,0.220593017578125,0.5250383019447327,-0.7921388745307922,0.7914516925811768
1725891792151441700,0.239441650390625,0.8179479241371155,-0.3315468728542328,0.3232238292694092
1725891792170290400,0.25829052734375,0.926376461982727,-0.03741546720266342,0.044669486582279205
1725891792189139500,0.277139404296875,1.053741693496704,0.8773545622825623,0.006185005884617567
1725891792207988200,0.29598828125,1.1081087589263916,1.3141229152679443,0.19708025455474854
1725891792226837000,0.3148369140625,1.5430444478988647,0.9246965646743774,0.8620065450668335
1725891792245686000,0.33368603515625,2.2024729251861572,-0.17821979522705078,1.4093414545059204
1725891792264534800,0.35253466796875,3.0213372707366943,-0.05849030241370201,2.5376086235046387
1725891792283383600,0.371383544921875,3.805687665939331,0.07803797721862793,4.408076763153076
1725891792302232600,0.390232666015625,4.0194902420043945,-1.3968950510025024,6.529304504394531
1725891792321081300,0.409081298828125,4.144106864929199,-5.123781204223633,7.757753849029541
1725891792339930000,0.42793017578125,4.107760429382324,-5.929206371307373,8.32341480255127
1725891792358779100,0.446779052734375,4.28002405166626,-5.608502388000488,8.454444885253906
1725891792377628000,0.4656279296875,4.389674186706543,-5.089267253875732,8.426344871520996
1725891792396476700,0.4844765625,5.029860496520996,-3.3684611320495605,7.780355453491211
1725891792415325700,0.50332568359375,5.769618034362793,-2.1421501636505127,6.3368821144104
1725891792434174500,0.522174560546875,6.299848556518555,-1.5627448558807373,4.2889580726623535
1725891792453023200,0.541023193359375,6.502350330352783,-1.2173007726669312,2.088928461074829
1725891792471872000,0.5598720703125,6.118727207183838,0.44608399271965027,0.14912736415863037
1725891792490721000,0.578720947265625,4.596757411956787,1.809228777885437,-1.6914081573486328
1725891792509569800,0.59756982421875,2.4104723930358887,2.21270489692688,-3.1553456783294678
1725891792528418600,0.61641845703125,0.9373720288276672,2.2258384227752686,-3.368537425994873
1725891792547267600,0.635267578125,0.767857015132904,1.8303035497665405,-2.364886522293091
1725891792566116400,0.654116455078125,1.4883720874786377,1.493411660194397,-0.6843976378440857
1725891792584965000,0.672965087890625,1.8387030363082886,0.5435169339179993,0.8546761870384216
1725891792603814100,0.691814208984375,1.682016134262085,-0.012980876490473747,1.590157389640808
1725891792622663000,0.710662841796875,1.461188554763794,-0.3568977415561676,1.535485029220581
1725891792641511700,0.72951171875,1.110552191734314,-0.6204859018325806,1.0776418447494507
1725891792660360700,0.748360595703125,0.6239983439445496,-0.7148644924163818,0.40630143880844116
1725891792679209500,0.76720947265625,0.5705476999282837,-0.6898190379142761,-2.177351236343384
1725891792698058200,0.786058349609375,0.08979712426662445,-0.5297724604606628,-1.7207297086715698
1725891792716907000,0.804906982421875,-0.09865466505289078,-0.5658134818077087,-1.151403784751892
1725891792735756000,0.823756103515625,0.3707949221134186,0.5062541961669922,0.19463679194450378
1725891792754604800,0.842604736328125,0.281914085149765,-0.3822486400604248,0.1265253722667694
1725891792773453600,0.86145361328125,-0.19120067358016968,0.3617846667766571,0.03428478538990021
1725891792792302600,0.880302490234375,0.17195843160152435,0.8981239199638367,0.14332415163516998
1725891792811151400,0.8991513671875,-0.21655155718326569,-0.7588467597961426,0.09201150387525558
1725891792830000000,0.918000244140625,-0.1380554437637329,0.23228132724761963,-0.03810269013047218
1725891792848849200,0.93684912109375,-0.40958482027053833,1.3584105968475342,-0.1089630052447319
1725891792867698000,0.955697998046875,-0.3399462401866913,-0.21456626057624817,0.0862082913517952
1725891792886546700,0.974546630859375,-0.31123560667037964,-0.5768090486526489,0.10850485414266586
1725891792905395700,0.993395751953125,-0.4303542375564575,0.37033677101135254,-0.004810560029000044
1725891792924244500,1.012244384765625,-0.22357651591300964,0.13240493834018707,0.14607304334640503
1725891792943093200,1.03109326171875,-0.12400554865598679,0.20387612283229828,0.2511417865753174
1725891792961942300,1.0499423828125,0.16798780858516693,-0.2854265570640564,0.4249328076839447
1725891792980791000,1.068791015625,0.17134757339954376,-0.5068650245666504,0.5012909173965454
1725891792999639800,1.087639892578125,0.0873536616563797,-0.04413498193025589,0.5022072196006775
1725891793018488800,1.10648876953125,-0.05253437161445618,0.26129740476608276,0.48296496272087097
1725891793037337600,1.125337646484375,-0.2565632164478302,0.540768027305603,0.4707476794719696
1725891793056186400,1.144186279296875,-0.62857985496521,1.2637264728546143,0.4295142889022827
1725891793075035400,1.163035400390625,-1.4010183811187744,1.7276782989501953,0.23159411549568176
1725891793093884200,1.18188427734375,-1.3674207925796509,-0.15256348252296448,0.25877758860588074
1725891793112733000,1.20073291015625,0.08796452730894089,-3.4442083835601807,0.6179660558700562
1725891793131582000,1.21958203125,0.45937031507492065,-2.428645610809326,0.16623157262802124
1725891793150430700,1.2384306640625,-0.4401280879974365,0.3358229100704193,-0.5524508357048035
1725891793169279500,1.257279541015625,-0.9239329695701599,1.98515784740448,-1.0402263402938843
1725891793188128500,1.27612841796875,-0.6487383842468262,1.4567598104476929,-1.0918444395065308
1725891793206977300,1.294977294921875,0.024740023538470268,-0.2799287736415863,-0.8343649506568909
1725891793225826000,1.313825927734375,0.11026109009981155,-0.05146535858511925,-0.9681442975997925
1725891793244675000,1.332675048828125,-0.16676609218120575,0.9824233055114746,-1.0713804960250854
1725891793263523800,1.35152392578125,-0.28557929396629333,1.0337358713150024,-1.020067811012268
1725891793282372600,1.37037255859375,-0.04550942778587341,0.2383899837732315,-0.76991868019104
1725891793301221600,1.3892216796875,0.001221729558892548,0.25702136754989624,-0.6437751054763794
1725891793320070400,1.4080703125,-0.06780599057674408,0.39080074429512024,-0.493196964263916
1725891793338919200,1.426919189453125,-0.143553227186203,0.4335612654685974,-0.34231334924697876
1725891793357768200,1.445768310546875,-0.043371398001909256,0.14981459081172943,-0.16485713422298431
1725891793376617000,1.464616943359375,0.1484401375055313,-0.33460119366645813,0.06391172856092453
1725891793395465700,1.4834658203125,0.11148282140493393,-0.49220430850982666,0.17600540816783905
1725891793414314800,1.502314697265625,0.05222893878817558,-0.41065385937690735,0.12713623046875
1725891793433163500,1.52116357421875,0.03023780696094036,-0.1879936307668686,0.0345902182161808
1725891793452012300,1.54001220703125,-0.09834922850131989,-0.17058399319648743,-0.047265663743019104
1725891793470861300,1.558861328125,-0.11209368705749512,0.11468986421823502,-0.17707443237304688
1725891793489710000,1.5777099609375,-0.2776380479335785,0.6085740327835083,-0.33895358443260193
1725891793508558800,1.596558837890625,-0.39675667881965637,0.5254964232444763,-0.43547022342681885
1725891793527407900,1.615407958984375,-0.23212862014770508,0.3092502951622009,-0.483423113822937
1725891793546256600,1.634256591796875,-0.11698060482740402,-0.040775224566459656,-0.5179370045661926
1725891793565105400,1.65310546875,-0.2770271897315979,0.162031888961792,-0.6110938787460327
1725891793583954400,1.671954345703125,-0.34208428859710693,0.27748534083366394,-0.6199513673782349
1725891793602803200,1.69080322265625,-0.24312418699264526,0.23625195026397705,-0.5426769852638245
1725891793621652200,1.70965234375,-0.051618073135614395,0.08139773458242416,-0.3468948304653168
1725891793640501000,1.7285009765625,-0.007024944759905338,-0.18371757864952087,-0.07597630470991135
1725891793659350000,1.74735009765625,-0.06780599057674408,0.0102319847792387,0.04528035223484039
1725891793678198800,1.76619873046875,-0.057726722210645676,0.09636391699314117,0.20746494829654694
1725891793697047600,1.785047607421875,0.13561198115348816,0.12110394239425659,0.34124433994293213
1725891793715896600,1.803896484375,0.17715078592300415,0.049632761627435684,0.5758163928985596
1725891793734745300,1.822745361328125,0.030543239787220955,0.27107125520706177,0.7749583125114441
1725891793753594000,1.841593994140625,0.27947062253952026,0.8681915402412415,0.8968258500099182
1725891793772443100,1.860443115234375,0.21502439677715302,-1.067333459854126,0.7480802536010742
1725891793791292000,1.8792919921875,0.5702422857284546,-2.053574562072754,2.141768217086792
1725891793810140700,1.898140625,0.7272345423698425,-2.1500914096832275,2.671998977661133
1725891793828989700,1.91698974609375,0.3546070158481598,-0.5639809370040894,1.7156901359558105
1725891793847838500,1.93583837890625,0.1588248461484909,0.20112723112106323,1.2890009880065918
1725891793866687500,1.9546875,0.07422006875276566,0.25182899832725525,0.9902881383895874
1725891793885536300,1.973536376953125,-0.031154103577136993,0.735023021697998,0.7065414786338806
1725891793904385000,1.992385009765625,0.1750127524137497,0.490066260099411,0.7951168417930603
1725891793923234000,2.011234130859375,0.10567960888147354,0.4280634820461273,0.7584649920463562
1725891793942082800,2.030082763671875,0.4056142270565033,0.03711003437638283,0.8131373524665833
1725891793960931600,2.048931640625,-0.04001164436340332,0.10094540566205978,0.8424589037895203
1725891793979780600,2.067780517578125,0.16798780858516693,0.17394374310970306,0.8180242776870728
1725891793998629400,2.08662939453125,-0.08338304609060287,-0.07070759683847427,0.764879047870636
1725891794017478400,2.105478515625,-0.037262752652168274,0.23472478985786438,0.8186351656913757
1725891794036327200,2.1243271484375,0.08063415437936783,0.4631882309913635,0.599334716796875
1725891794055176000,2.143176025390625,-0.0974329337477684,0.18280129134655,0.037949975579977036
1725891794074025000,2.16202490234375,0.16584978997707367,-0.12018764764070511,0.10453423857688904
1725891794092873700,2.180873779296875,0.1637117564678192,0.3361283540725708,-0.2683987021446228
1725891794111722500,2.199722412109375,-0.06383536756038666,0.4179842174053192,-0.5842158198356628
1725891794130571500,2.218571533203125,-0.40958482027053833,0.5160280466079712,-0.49136435985565186
1725891794149420300,2.237420166015625,0.10690133273601532,0.1925751268863678,-0.150196373462677
1725891794168269300,2.256269287109375,0.3298669755458832,0.15439607203006744,0.1066722646355629
1725891794187118000,2.2751181640625,0.05803215503692627,0.3263545036315918,-0.2323576956987381
1725891794205966800,2.293966796875,-0.13194678723812103,0.596662163734436,-0.04329504072666168
1725891794224815900,2.31281591796875,-0.22235478460788727,0.3819431960582733,-0.09613484144210815
1725891794243664600,2.33166455078125,0.09957095980644226,0.49250972270965576,0.116751529276371
1725891794262513400,2.350513427734375,0.05192350596189499,0.3462076187133789,-0.12056943774223328
1725891794281362400,2.369362548828125,0.0204639695584774,0.16814053058624268,-0.22014039754867554
1725891794300211500,2.38821142578125,-0.08613193035125732,0.3312414288520813,-0.48036879301071167
1725891794319060200,2.407060302734375,0.012522728182375431,0.5444332361221313,-0.7732784748077393
1725891794337909000,2.425908935546875,0.06719512492418289,0.16478078067302704,-0.6880627870559692
1725891794356758000,2.444758056640625,-0.14110976457595825,0.04718930274248123,-0.5591703653335571
1725891794375606800,2.463606689453125,-0.16065743565559387,0.6229293346405029,-0.7702241539955139
1725891794394470400,2.482470458984375,-0.13041962683200836,0.717307984828949,-1.33527410030365
1725891794413304600,2.5013046875,0.06994401663541794,0.5609265565872192,-1.2091305255889893
1725891794432153300,2.5201533203125,-0.11056652665138245,0.4653262495994568,-1.25311279296875
1725891794451002400,2.53900244140625,-0.10659590363502502,0.7786998748779297,-1.7353904247283936
1725891794469851100,2.55785107421875,0.15149445831775665,0.6546943187713623,-1.7265329360961914
1725891794488700200,2.5767001953125,0.12003492563962936,0.49861836433410645,-1.714010238647461
1725891794507549000,2.595548828125,0.061391908675432205,0.07620538026094437,-1.687437653541565
1725891794526397700,2.614397705078125,-0.09987638890743256,0.3877464234828949,-1.5997785329818726
1725891794545246700,2.633246826171875,-0.17898337543010712,0.46257734298706055,-1.5487712621688843
1725891794564095700,2.652095703125,-0.4312705397605896,0.09758564829826355,-1.3807834386825562
1725891794582944500,2.670944580078125,-0.6194168925285339,-0.16325360536575317,-0.9580650329589844
1725891794601793300,2.689793212890625,-0.5036579966545105,-0.26771149039268494,-0.4791470468044281
1725891794620642300,2.708642333984375,-0.23884813487529755,0.4747946560382843,-0.28672465682029724
1725891794639491000,2.727490966796875,-0.08857539296150208,-0.5047270059585571,-0.5686387419700623
1725891794658340000,2.746340087890625,-0.26542073488235474,-0.734717607498169,-0.5643627047538757
1725891794677188900,2.76518896484375,-0.0021380267571657896,0.22464552521705627,-0.3365101218223572
1725891794696037600,2.78403759765625,-0.2516762912273407,0.2545779049396515,-0.6566032767295837
1725891794714886700,2.80288671875,-0.0461202897131443,0.11163553595542908,-1.3322197198867798
1725891794733735400,2.8217353515625,-0.05253437161445618,0.0007635809597559273,-1.0167080163955688
1725891794752584400,2.84058447265625,-0.12400554865598679,-0.679739773273468,-0.38812822103500366
1725891794771433200,2.85943310546875,0.013744457624852657,-0.7851139307022095,-0.6993638277053833
1725891794790282200,2.8782822265625,-0.1744018942117691,-0.48823368549346924,-0.27084216475486755
1725891794809131000,2.897131103515625,-0.2770271897315979,-0.6085740327835083,-0.013362666592001915
1725891794827979800,2.915979736328125,-0.21991132199764252,-1.0655008554458618,0.7080686092376709
1725891794846828800,2.934828857421875,-0.383928507566452,-0.5203040838241577,0.5672643184661865
1725891794865677800,2.953677734375,-0.1997527778148651,-0.19135339558124542,0.7798452377319336
1725891794884526600,2.972526611328125,-0.1692095398902893,-0.0902552679181099,1.1475858688354492
1725891794903375400,2.991375244140625,-0.205861434340477,0.3816377818584442,0.960355818271637
1725891794922224400,3.010224365234375,0.2306014597415924,0.22525638341903687,1.098411202430725
1725891794941073200,3.0290732421875,0.16157373785972595,0.11988221108913422,1.2370775938034058
1725891794959922200,3.047922119140625,0.15821397304534912,-0.05818486958742142,1.063286542892456
1725891794978771000,3.06677099609375,0.3481929302215576,-0.2753472924232483,1.015639066696167
1725891794997620000,3.085619873046875,0.2788597643375397,-0.3929387629032135,1.035186767578125
1725891795016468700,3.10446875,0.281914085149765,-0.5331322550773621,0.9062942862510681
1725891795035317800,3.12331787109375,0.40225446224212646,-0.5697841048240662,0.8934661149978638
1725891795054166500,3.14216650390625,0.5797106623649597,-0.6882919073104858,1.33695387840271
1725891795073015300,3.161015380859375,0.5516108870506287,-0.8834632039070129,1.1106284856796265
1725891795091864300,3.1798642578125,0.5540543794631958,-0.874605655670166,1.1518619060516357
1725891795110713300,3.19871337890625,0.3222311735153198,-0.790917158126831,1.2844195365905762
1725891795129562000,3.21756201171875,0.23854269087314606,-0.4747946560382843,1.2550981044769287
1725891795148411100,3.2364111328125,0.38728827238082886,-0.6504182815551758,1.4884483814239502
1725891795167260000,3.255260009765625,0.32589635252952576,-0.7753401398658752,1.7095814943313599
1725891795186108700,3.274108642578125,0.1588248461484909,-0.3459021747112274,1.6387211084365845
1725891795204957700,3.292957763671875,-0.013439024798572063,-0.050549060106277466,1.6307798624038696
1725891795223806500,3.311806396484375,-0.010079269297420979,0.7570141553878784,1.3146573305130005
1725891795242655500,3.330655517578125,0.09376774728298187,0.9100357890129089,1.5260165929794312
1725891795261504300,3.349504150390625,0.08918625861406326,0.551152765750885,1.7141629457473755
1725891795280353300,3.368353271484375,0.004581485874950886,0.7582359313964844,1.4621812105178833
1725891795299202000,3.3872021484375,-0.17531819641590118,1.3147337436676025,0.9188169836997986
1725891795318051000,3.406051025390625,-0.2877173125743866,1.3321434259414673,0.30398157238960266
1725891795336899800,3.42489990234375,-0.14049890637397766,0.7802270650863647,0.16409355401992798
1725891795355748900,3.443748779296875,0.026572618633508682,0.39599308371543884,0.24686573445796967
1725891795374597600,3.46259765625,0.09896009415388107,0.443945974111557,0.24258968234062195
1725891795393446700,3.48144677734375,0.0870482325553894,1.1662936210632324,-0.6730966567993164
1725891795412295400,3.50029541015625,0.19914191961288452,1.8602359294891357,-1.1654536724090576
1725891795431144400,3.51914453125,-0.25350889563560486,-0.7231112122535706,0.7380009889602661
1725891795449993200,3.5379931640625,-0.8100066781044006,-2.318690061569214,-0.881706953048706
1725891795468842200,3.55684228515625,0.6426297426223755,4.315301418304443,-0.4064541459083557
1725891795487691300,3.575691162109375,0.2868010103702545,4.664410591125488,-2.775998592376709
1725891795506540000,3.5945400390625,0.24526220560073853,1.9234604835510254,-3.0319509506225586
1725891795525388800,3.613388916015625,-0.1893680840730667,0.9332486391067505,1.504941701889038
1725891795544237800,3.63223779296875,-2.609919786453247,-13.049446105957031,3.307298183441162
1725891795563086600,3.651086669921875,1.518304467201233,1.874896764755249,0.14698933064937592
1725891795581935600,3.669935546875,2.653902053833008,9.83171558380127,-1.6602541208267212
1725891795600784400,3.688784423828125,-5.139205455780029,-2.5700607299804688,-4.885009288787842
1725891795619633400,3.70763330078125,-1.7821979522705078,-5.016268730163574,1.590157389640808
1725891795638482200,3.726482177734375,2.1978914737701416,0.8776599764823914,4.859505653381348
1725891795657331200,3.745331298828125,-1.148425817489624,1.0383174419403076,-2.7747769355773926
1725891795676180200,3.76418017578125,-0.7861829996109009,0.28725916147232056,-2.9317691326141357
1725891795695029000,3.783029052734375,-0.5403099060058594,1.455538034439087,-1.739361047744751
1725891795713878000,3.8018779296875,-0.24006985127925873,2.3040292263031006,-0.4168388545513153
1725891795732726800,3.820726806640625,-0.7348703145980835,1.3825397491455078,-1.3762019872665405
1725891795751575800,3.839575927734375,0.8237511515617371,-2.3296854496002197,0.6995165348052979
1725891795770424600,3.858424560546875,0.7195987105369568,-1.4924954175949097,2.5373032093048096
1725891795789273600,3.877273681640625,-1.1294889450073242,3.3870925903320312,-1.2818233966827393
1725891795808122400,3.896122314453125,-1.6859867572784424,0.8492547869682312,-1.5765656232833862
1725891795826971400,3.914971435546875,-0.14660754799842834,0.27779075503349304,0.015347977168858051
1725891795845820400,3.9338203125,0.5852084755897522,0.4402807950973511,0.06696604937314987
1725891795864669200,3.952669189453125,-0.5635227560997009,0.3477347791194916,-1.7185916900634766
1725891795883518200,3.971518310546875,1.8967351913452148,-8.853415489196777,4.7889509201049805
1725891795902367000,3.990366943359375,1.5656464099884033,-1.7945680618286133,-1.3435207605361938
1725891795921216000,4.009216064453125,-2.531728982925415,11.896133422851562,-1.9256749153137207
1725891795940064800,4.028064697265625,-4.540863513946533,4.917308807373047,-5.206934928894043
1725891795958913800,4.046913818359375,0.07574722915887833,-0.25213444232940674,-1.6187152862548828
1725891795977762800,4.0657626953125,1.7788382768630981,-1.93781578540802,2.5730388164520264
1725891795996611600,4.084611572265625,1.4761546850204468,0.6476693749427795,3.2889723777770996
1725891796015460600,4.103460693359375,-0.4199695289134979,0.20906847715377808,0.599334716796875
1725891796034309400,4.122309326171875,-1.656970739364624,2.0221152305603027,-1.3896410465240479
1725891796053158400,4.141158447265625,-2.565326690673828,4.0950846672058105,-2.454989194869995
1725891796072007200,4.160007080078125,-2.9162683486938477,3.4570364952087402,-2.063119411468506
1725891796090856200,4.178856201171875,-3.124573230743408,3.224602460861206,-0.427528977394104
1725891796109705200,4.197705322265625,-3.2629342079162598,3.2481207847595215,1.6839251518249512
1725891796128554000,4.216553955078125,-2.981936454772949,2.8660247325897217,3.3341763019561768
1725891796147403000,4.235403076171875,-2.9691083431243896,2.514472246170044,4.1689229011535645
1725891796166251800,4.254251708984375,-3.3508987426757812,3.040426731109619,4.208323955535889
1725891796185100800,4.273100830078125,-4.137081623077393,3.943284749984741,3.326540470123291
1725891796203949600,4.291949462890625,-5.0616254806518555,4.767646789550781,1.596876859664917
1725891796222798600,4.310798583984375,-5.993194580078125,5.749611854553223,-0.10529781877994537
1725891796241647600,4.329647705078125,-6.682860851287842,5.5364203453063965,-0.8407790064811707
1725891796260496400,4.348496337890625,-6.574432373046875,5.556578636169434,-0.6208676695823669
1725891796279345400,4.367345458984375,-6.0900163650512695,3.556607484817505,-0.5527562499046326
1725891796298194400,4.3861943359375,-5.266265392303467,0.9072869420051575,-1.1010074615478516
1725891796317043200,4.405043212890625,-4.70610237121582,-2.377332925796509,-2.621755361557007
1725891796335892200,4.423892333984375,-3.9861981868743896,-2.743546485900879,-3.5096471309661865
1725891796354741200,4.4427412109375,-3.3710572719573975,-2.6949827671051025,-3.851120710372925
1725891796373590000,4.461590087890625,-2.8600687980651855,-2.757290840148926,-3.949469804763794
1725891796392439000,4.48043896484375,-1.830456256866455,-4.347372055053711,-4.015748500823975
1725891796411287800,4.499287841796875,-0.6371319890022278,-4.255436897277832,-3.99161958694458
1725891796430136800,4.51813671875,0.12034036219120026,-4.34492826461792,-4.002920627593994
1725891796448985600,4.536985595703125,0.7880155444145203,-6.708669662475586,-3.5178937911987305
1725891796467834600,4.555834716796875,1.2693769931793213,-8.83875560760498,-3.370675563812256
1725891796486683600,4.57468359375,2.098320484161377,-9.893413543701172,-3.5371360778808594
1725891796505532400,4.593532470703125,3.333489179611206,-9.01682186126709,-3.519726514816284
1725891796524381400,4.61238134765625,4.065305233001709,-6.629562854766846,-2.6092326641082764
1725891796543230200,4.631230224609375,3.827678680419922,-3.5468335151672363,-0.8126792311668396
1725891796562079200,4.650079345703125,2.249814987182617,-0.947909414768219,1.1506401300430298
1725891796580928300,4.66892822265625,0.09834922850131989,-0.20204351842403412,2.4722461700439453
1725891796599777000,4.687777099609375,-1.656970739364624,-1.6641483306884766,2.669250011444092
1725891796618626000,4.7066259765625,-2.466671943664551,-3.0437865257263184,2.273104190826416
1725891796637475000,4.72547509765625,-2.067166328430176,-3.112203359603882,2.219348192214966
1725891796656323800,4.74432373046875,-1.1533126831054688,-1.8962769508361816,2.13596510887146
1725891796675172900,4.7631728515625,-0.4001164436340332,-0.6171261668205261,1.7868558168411255
1725891796694022000,4.78202197265625,0.1747073233127594,-1.2606722116470337,1.873293161392212
1725891796712870700,4.80087060546875,0.06719512492418289,-1.8119776248931885,2.0791547298431396
1725891796731719700,4.8197197265625,-0.42363473773002625,-2.3626723289489746,2.4893503189086914
1725891796750568400,4.838568359375,-1.2644901275634766,-1.743255376815796,2.7920339107513428
1725891796769417500,4.85741748046875,-1.3347395658493042,-1.131474256515503,2.2990660667419434
1725891796788266500,4.8762666015625,-0.3436114490032196,-0.597273051738739,1.365053653717041
1725891796807115300,4.895115234375,0.11667517572641373,0.06551524996757507,-0.03474293276667595
1725891796825964300,4.91396435546875,0.19822561740875244,0.9158390164375305,-1.0411427021026611
1725891796844813300,4.932813232421875,0.5485565662384033,0.9992220401763916,-0.9760855436325073
1725891796863662000,4.951662109375,0.500298261642456,0.9989166259765625,-0.5096902847290039
1725891796882511000,4.970510986328125,0.40927940607070923,0.3730856776237488,0.021456625312566757
1725891796901359900,4.98935986328125,0.31612253189086914,-0.9350812435150146,0.3519344627857208
1725891796920209000,5.008208984375,0.4682278633117676,-1.3813179731369019,0.4719693958759308
1725891796939058000,5.027057861328125,0.7452550530433655,-0.9347758293151855,0.3015381395816803
1725891796957906700,5.04590673828125,0.9679152369499207,-0.9695951342582703,0.1521816849708557
1725891796976755700,5.064755615234375,0.8521563410758972,-1.9979859590530396,0.245338574051857
1725891796995604700,5.083604736328125,0.3738492429256439,-3.11281418800354,0.7080686092376709
1725891797014453800,5.102453857421875,0.2159406989812851,-2.611905097961426,1.0223585367202759
1725891797033302500,5.121302490234375,0.1954767256975174,-3.470780849456787,0.9991456866264343
1725891797052151600,5.140151611328125,-0.22388194501399994,-3.598757028579712,1.1827105283737183
1725891797071000300,5.159000244140625,-0.5577195286750793,-3.402975082397461,1.4722604751586914
1725891797089849300,5.177849365234375,-0.6652317643165588,-3.7392561435699463,1.5623630285263062
1725891797108698400,5.196698486328125,-0.6734784245491028,-4.090503215789795,1.422474980354309
1725891797127547100,5.215547119140625,-0.6307178735733032,-4.084089279174805,1.2874739170074463
1725891797146396200,5.234396240234375,-0.7562506198883057,-3.118617296218872,1.4377466440200806
1725891797165245200,5.2532451171875,-0.9361502528190613,-2.4549129009246826,1.7309616804122925
1725891797184094000,5.272093994140625,-1.0577123165130615,-2.395048141479492,1.9856923818588257
1725891797202943000,5.29094287109375,-0.8768963813781738,-2.5153884887695312,1.8360304832458496
1725891797221792000,5.3097919921875,-0.16798780858516693,-3.4439029693603516,1.887648582458496
1725891797240640800,5.328640869140625,0.6230821013450623,-4.291477680206299,2.209268808364868
1725891797259489800,5.34748974609375,1.0164790153503418,-3.8464627265930176,2.373286008834839
1725891797278338800,5.3663388671875,0.9541707634925842,-2.009592294692993,2.2211806774139404
1725891797297187600,5.3851875,1.3451242446899414,-0.4445568323135376,2.242255449295044
1725891797316036600,5.40403662109375,2.2284348011016846,0.23533566296100616,2.4389538764953613
1725891797334885600,5.4228857421875,2.889085054397583,0.503810703754425,2.5226423740386963
1725891797353734400,5.441734375,2.601367712020874,3.660454511642456,1.5858813524246216
1725891797372583400,5.46058349609375,1.3154972791671753,1.735008716583252,-0.7851903438568115
1725891797391432400,5.479432373046875,-0.10109812021255493,-1.483637809753418,-1.5802308320999146
1725891797410281500,5.498281494140625,-0.08032871782779694,-2.151007652282715,0.33483025431632996
1725891797429130200,5.517130126953125,-0.17867794632911682,-1.3770419359207153,1.9285764694213867
1725891797447979300,5.535979248046875,-0.3381136655807495,-0.9970840215682983,2.566930055618286
1725891797466828300,5.554828369140625,-0.38179048895835876,-0.6766854524612427,2.6264894008636475
1725891797485677000,5.573677001953125,-0.4364628791809082,-0.27656903862953186,2.254167318344116
1725891797504526000,5.592526123046875,0.1285870373249054,-0.81810063123703,1.5834379196166992
1725891797523375000,5.611375,0.6194168925285339,-1.0618356466293335,1.2599849700927734
1725891797542224000,5.630223876953125,0.5781835317611694,-0.7319687008857727,1.4090359210968018
1725891797561073000,5.649072998046875,0.44409868121147156,-0.5514581799507141,1.5867975950241089
1725891797619961900,5.7079619140625,1.0115920305252075,1.7328706979751587,-0.15447242558002472
1725891797638811000,5.726810791015625,1.1948515176773071,1.6650646924972534,-0.03474293276667595
1725891797657659600,5.74565966796875,0.924849271774292,1.39139723777771,0.27435463666915894
1725891797676508700,5.7645087890625,0.7599157691001892,1.7408119440078735,0.15951207280158997
1725891797695357700,5.783357666015625,1.0458004474639893,2.7481279373168945,-0.08177952468395233
1725891797714206500,5.80220654296875,1.2498292922973633,3.718791961669922,-0.50144362449646
1725891797733055500,5.821055419921875,1.4300343990325928,3.979020357131958,-1.0341176986694336
1725891797751904500,5.839904541015625,1.9620976448059082,2.936274290084839,-1.4378993511199951
1725891797770753500,5.85875341796875,2.025627613067627,2.679100275039673,-1.529529094696045
1725891797789602300,5.877602294921875,2.1087052822113037,2.2032365798950195,-1.444618821144104
1725891797808451300,5.896451416015625,2.1056509017944336,2.817155599594116,-1.0823760032653809
1725891797827300400,5.91530029296875,2.382983446121216,3.3125669956207275,-0.49655669927597046
1725891797846149000,5.934149169921875,1.598022222518921,4.166555881500244,0.0703258067369461
1725891797864998100,5.952998046875,-0.7654135823249817,4.408458232879639,0.17478369176387787
1725891797883847200,5.97184716796875,-2.7171266078948975,4.087143421173096,0.1430187225341797
1725891797902696200,5.9906962890625,-3.174053430557251,3.4096944332122803,0.9261473417282104
1725891797921545000,6.009544921875,-3.034165382385254,3.219104766845703,1.5272382497787476
1725891797940394000,6.02839404296875,-2.3658792972564697,3.6448774337768555,1.4014002084732056
1725891797959243000,6.047242919921875,-1.4569125175476074,3.601505994796753,0.8449023365974426
1725891797978092000,6.066092041015625,-0.7379246354103088,3.8299694061279297,0.47777262330055237
1725891797996940800,6.08494091796875,-0.45998117327690125,3.5355327129364014,0.3268890082836151
1725891798015789800,6.103789794921875,-0.6792816519737244,2.869079113006592,0.4313468933105469
1725891798034638800,6.122638916015625,-1.053130865097046,2.8257076740264893,0.6598103046417236
1725891798053487900,6.14148779296875,-1.1759146451950073,3.5074329376220703,0.590171754360199
1725891798072336600,6.160336669921875,-1.1563670635223389,2.7621777057647705,-0.07383827865123749
1725891798091185700,6.179185546875,-0.9669989347457886,0.3400989770889282,-0.7439569234848022
1725891798110034700,6.19803466796875,-1.062904715538025,0.6107120513916016,-0.36277732253074646
1725891798128883700,6.2168837890625,-1.2076796293258667,1.001665472984314,0.03428478538990021
1725891798147732500,6.235732421875,-1.4471386671066284,0.5978838801383972,0.168675035238266
1725891798166581500,6.25458154296875,-1.6493349075317383,0.28695371747016907,0.331165075302124
1725891798185430500,6.273430419921875,-1.5228859186172485,0.6693550944328308,0.44295331835746765
1725891798204279300,6.292279296875,-1.2363903522491455,1.0108284950256348,0.2450331300497055
1725891798223128300,6.31112841796875,-1.0769546031951904,0.9112575054168701,-0.07872519642114639
1725891798241977300,6.329977294921875,-0.7654135823249817,0.48181959986686707,-0.1605810821056366
1725891798260826400,6.348826416015625,-0.5766563415527344,-0.10277800261974335,0.09476039558649063
1725891798279675400,6.36767529296875,-0.627968966960907,-0.23228132724761963,0.3720930218696594
1725891798298524200,6.386524169921875,-0.6041452884674072,-0.1455385386943817,0.4667770564556122
1725891798317373200,6.405373291015625,-0.4318813979625702,0.11774418503046036,0.46799877285957336
1725891798336222200,6.42422216796875,-0.41355544328689575,-0.008093958720564842,0.35071274638175964
1725891798355071200,6.4430712890625,-0.5827649831771851,-0.19868376851081848,0.3421606421470642
1725891798373920000,6.461919921875,-0.6359102129936218,-0.1314886510372162,0.4203513264656067
1725891798392769000,6.48076904296875,-0.5919279456138611,0.187382772564888,0.40630143880844116
1725891798411618000,6.4996181640625,-0.5039634704589844,0.6180424690246582,0.47288569808006287
1725891798430467000,6.518467041015625,-0.3298669755458832,0.49770209193229675,0.61827152967453
1725891798470535200,6.55853515625,-0.5885682106018066,0.2551887631416321,0.6463713049888611
1725891798489384000,6.577384033203125,-0.8106175661087036,0.13851359486579895,0.783815860748291
1725891798508233000,6.59623291015625,-0.952949047088623,0.1513417512178421,0.8339067697525024
1725891798527082000,6.61508203125,-0.9929606914520264,0.10888664424419403,0.755105197429657
1725891798545931000,6.633930908203125,-0.9651663303375244,0.01695149764418602,0.6109411120414734
1725891798564780000,6.652780029296875,-0.850018322467804,0.17577634751796722,0.49884745478630066
1725891798583629000,6.671629150390625,-0.6933315396308899,0.49403688311576843,0.4182133078575134
1725891798602477800,6.690477783203125,-0.5836812853813171,0.6748528480529785,0.31406086683273315
1725891798621326800,6.709326904296875,-0.5140427350997925,0.6971494555473328,0.24289511144161224
1725891798640175900,6.72817578125,-0.47983428835868835,0.6116283535957336,0.2144898921251297
1725891798659025000,6.74702490234375,-0.43310311436653137,0.6137663722038269,0.3018435537815094
1725891798677873700,6.765873779296875,-0.3231474757194519,0.5768090486526489,0.4289034307003021
1725891798696722700,6.78472265625,-0.1957821547985077,0.4546361267566681,0.4551706314086914
1725891798715571700,6.80357177734375,-0.13041962683200836,0.29214608669281006,0.28870996832847595
1725891798734420700,6.822420654296875,-0.11728604137897491,0.0795651376247406,0.010461059398949146
1725891798753269800,6.841269775390625,-0.09071341902017593,-0.12476912885904312,-0.14317142963409424
1725891798772118500,6.860118408203125,-0.07788526266813278,-0.41126471757888794,-0.06956222653388977
1725891798790967600,6.878967529296875,-0.205861434340477,-0.8416189551353455,0.11003202199935913
1725891798809816600,6.897816650390625,-0.5256491303443909,-1.5331178903579712,0.30459246039390564
1725891798828665600,6.91666552734375,-0.8451313972473145,-2.162919521331787,0.6381246447563171
1725891798847514600,6.9355146484375,-1.463021159172058,-2.1384849548339844,1.173242211341858
1725891798866363600,6.95436376953125,-1.8897101879119873,-1.9576689004898071,1.766086459159851
1725891798885212400,6.97321240234375,-1.4966187477111816,-2.5605924129486084,1.5663336515426636
1725891798904061400,6.9920615234375,-0.406530499458313,-3.2737770080566406,0.8281035423278809
1725891798922910500,7.010910400390625,0.5568032264709473,-2.346484422683716,0.4258491098880768
1725891798941759500,7.029759521484375,1.4144574403762817,-1.439044713973999,0.15126539766788483
1725891798960608500,7.0486083984375,1.9361358880996704,-1.9329289197921753,-0.023441936820745468
1725891798979457300,7.067457275390625,2.1160356998443604,-3.1977243423461914,0.011988221667706966
1725891798998306300,7.086306396484375,2.3814563751220703,-4.041023254394531,0.5461894869804382
1725891799017155300,7.1051552734375,2.7730207443237305,-3.887085199356079,1.3962078094482422
1725891799036004400,7.12400439453125,3.367392063140869,-3.0352344512939453,1.7816635370254517
1725891799054853400,7.142853271484375,4.208552837371826,-2.3226606845855713,1.3925426006317139
1725891799073702400,7.161702392578125,5.110800266265869,-1.9524765014648438,0.3369682729244232
1725891799092551400,7.180551513671875,5.6514153480529785,-2.193462610244751,-0.8184824585914612
1725891799111400200,7.199400146484375,5.428755283355713,-2.57891845703125,-1.0023527145385742
1725891799130249200,7.218249267578125,5.120879650115967,-2.0853395462036133,-0.7299070358276367
1725891799149098200,7.23709814453125,3.939772367477417,-1.4515674114227295,-0.6178133487701416
1725891799167947300,7.255947265625,2.0888521671295166,-1.3425281047821045,-0.5695550441741943
1725891799186796300,7.27479638671875,0.8637627959251404,-0.7603739500045776,-0.21800236403942108
1725891799205645300,7.293645263671875,0.04276053607463837,-0.07712167501449585,-0.10957387089729309
1725891799224494000,7.312494140625,-0.28985533118247986,0.41218101978302,-0.3203222155570984
1725891799243343000,7.331343017578125,-0.45051276683807373,-0.3315468728542328,-0.18440480530261993
1725891799262192000,7.350192138671875,-0.757777750492096,-1.162628412246704,0.38644832372665405
1725891799281041200,7.369041259765625,-0.6591231226921082,-1.958890676498413,0.48937904834747314
1725891799299890200,7.38789013671875,-0.4465421438217163,-2.850142240524292,0.10972658544778824
1725891799318739200,7.4067392578125,-0.48533207178115845,-2.14306640625,-0.2879463732242584
1725891799337588200,7.425588134765625,-0.7599157691001892,-1.1339176893234253,-0.5130500793457031
1725891799356437000,7.44443701171875,-1.017395257949829,-0.7506000995635986,-0.6379718780517578
1725891799375286000,7.4632861328125,-1.1044435501098633,-0.521831214427948,-0.6556869745254517
1725891799394135000,7.482135009765625,-0.822834849357605,1.0166317224502563,-0.2726747691631317
1725891799412984000,7.500984130859375,0.17226386070251465,0.8031344413757324,0.6066650748252869
1725891799431833000,7.5198330078125,1.4184280633926392,-1.041066288948059,1.1353685855865479
1725891799450682000,7.53868212890625,1.7244713306427002,-1.0230457782745361,0.9835686683654785
1725891799469531100,7.55753125,1.4624103307724,-1.0902409553527832,0.5956695079803467
1725891799488380200,7.576380126953125,0.7519745230674744,-0.9317215085029602,0.7141773104667664
1725891799507229200,7.595229248046875,0.2559523284435272,0.8385646343231201,1.0052543878555298
1725891799526078000,7.614077880859375,0.25870123505592346,1.3532181978225708,0.4398989975452423
1725891799544927000,7.632927001953125,0.01802051067352295,-0.9564615488052368,-0.23846633732318878
1725891799563776000,7.65177587890625,-0.03817904740571976,-0.2179260104894638,0.3797288239002228
1725891799582625000,7.670625,0.17165300250053406,0.4500546157360077,0.9258419275283813
1725891799601474000,7.68947412109375,0.46425724029541016,0.9595158696174622,0.8055015802383423
1725891799620323000,7.708322998046875,0.4526508152484894,0.8544471263885498,0.6497310400009155
1725891799639172000,7.727172119140625,0.07941242307424545,0.15500694513320923,0.6158280372619629
1725891799658021000,7.746021240234375,0.0021380267571657896,-0.25243985652923584,0.7987820506095886
1725891799676870000,7.764869873046875,0.10476330667734146,-0.37094762921333313,0.941724419593811
1725891799695719200,7.78371923828125,0.16096286475658417,0.2234237939119339,1.7227150201797485
1725891799714568000,7.80256787109375,0.1444695144891739,0.5661189556121826,2.382143497467041
1725891799733417000,7.8214169921875,-0.15302163362503052,0.1510363221168518,1.155527114868164
1725891799752266000,7.840265869140625,0.12034036219120026,0.3568977415561676,0.7599921226501465
1725891799771115000,7.859114990234375,0.19730933010578156,-0.06215549260377884,1.051985502243042
1725891799789964000,7.877964111328125,0.14660754799842834,-0.5450441241264343,1.0419062376022339
1725891799808813000,7.89681298828125,0.019242240116000175,-1.011744737625122,0.8238275051116943
1725891799827662300,7.915662353515625,-0.143553227186203,-1.5716023445129395,0.7978657484054565
1725891799846511000,7.934510986328125,-0.12950333952903748,-1.798233151435852,0.6558396816253662
1725891799865360100,7.953360107421875,-0.020769402384757996,-1.883143424987793,0.3895026445388794
1725891799884209200,7.972209228515625,0.09376774728298187,-1.5428917407989502,0.2758817970752716
1725891799903058200,7.99105810546875,0.26908594369888306,-1.2224931716918945,0.5306124091148376
1725891799921907200,8.0099072265625,0.20861032605171204,-1.3840668201446533,0.7450259327888489
1725891799940756200,8.028756103515626,-0.007024944759905338,-1.1494947671890259,0.8699477910995483
1725891799959605200,8.047605224609375,-0.18631376326084137,-0.7426588535308838,0.6674461364746094
1725891799978454300,8.066454345703125,-0.4053087830543518,0.3205513060092926,0.2346484363079071
1725891799997303300,8.08530322265625,-0.07238747924566269,1.161101222038269,0.18272492289543152
1725891800016152300,8.10415234375,0.34147340059280396,0.8565851449966431,0.19982914626598358
1725891800035001300,8.12300146484375,0.1597411334514618,0.31871870160102844,0.21235187351703644
1725891800053850400,8.141850341796875,0.09987638890743256,0.3098611533641815,0.13080142438411713
1725891800072699400,8.160699462890625,0.42791077494621277,0.7533490061759949,0.0501672700047493
1725891800091548400,8.17954833984375,0.6050615906715393,1.188590168952942,-0.30291256308555603
1725891800110397400,8.1983974609375,0.6407971382141113,1.0218240022659302,-0.6764563918113708
1725891800129246500,8.21724658203125,0.7012727856636047,0.22036947309970856,-0.8872047066688538
1725891800148095200,8.23609521484375,0.8081740736961365,-0.5929969549179077,-1.0454187393188477
1725891800166944500,8.254944580078124,1.489593744277954,-0.490677148103714,-1.3239730596542358
1725891800185793500,8.27379345703125,1.8353432416915894,0.5056433081626892,-1.5961133241653442
1725891800204642300,8.292642333984375,1.9587379693984985,0.002901607658714056,-1.8074724674224854
1725891800223491600,8.31149169921875,2.2000296115875244,-0.8373429179191589,-1.8435134887695312
1725891800242340400,8.33034033203125,2.15726900100708,-0.8345940113067627,-1.4232386350631714
1725891800261189400,8.349189453125,2.7867650985717773,-0.5991056561470032,-0.6996692419052124
1725891800280038700,8.36803857421875,3.0283620357513428,-0.5871937870979309,-0.15722131729125977
1725891800298887400,8.386887451171875,1.8167119026184082,-0.23716825246810913,-0.4177551567554474
1725891800317736700,8.40573681640625,1.0604612827301025,-0.5682569742202759,-0.6190351247787476
1725891800336585500,8.42458544921875,0.34086254239082336,-1.0661118030548096,-0.8465822339057922
1725891800355434500,8.4434345703125,-0.03756818547844887,-1.1928662061691284,-0.4333322048187256
1725891800374283800,8.46228369140625,-0.34208428859710693,-2.126267671585083,0.011377356946468353
1725891800393132500,8.481132568359374,-0.8900299668312073,-2.5046982765197754,0.16073378920555115
1725891800411981600,8.499981689453126,-1.4214823246002197,-2.551124095916748,0.15890119969844818
1725891800430830800,8.518830810546875,-1.8243476152420044,-2.8257076740264893,0.022067490965127945
1725891800449679600,8.5376796875,-2.3787074089050293,-2.4329216480255127,-0.16821688413619995
1725891800468529000,8.55652880859375,-2.4935500621795654,-1.9967643022537231,-0.004505127668380737
1725891800487378000,8.5753779296875,-1.5033382177352905,-1.9930990934371948,0.1778380125761032
1725891800506226700,8.594226806640625,-1.1976003646850586,-1.5987858772277832,0.08834631741046906
1725891800525076000,8.613075927734375,-0.7476984858512878,-0.921336829662323,-0.2012035846710205
1725891800543925000,8.631925048828125,-0.13133592903614044,-0.8639155030250549,-0.6010146141052246
1725891800562774000,8.65077392578125,0.16340632736682892,-0.7939714789390564,-0.9256892204284668
1725891800581623000,8.669623046875,0.10598503798246384,-0.5193877816200256,-1.4699697494506836
1725891800600472000,8.68847216796875,0.09896009415388107,-0.4708240330219269,-1.6419281959533691
1725891800619321000,8.707321044921875,-0.0873536616563797,-0.20173808932304382,-1.7521892786026
1725891800638170000,8.726170166015624,-0.2254091054201126,-0.305585116147995,-1.5035673379898071
1725891800657019100,8.74501904296875,-0.12522727251052856,-0.4955640435218811,-1.1996620893478394
1725891800675868200,8.7638681640625,0.3845393657684326,-0.05787943676114082,-1.095509648323059
1725891800694717200,8.78271728515625,0.23426663875579834,0.6708822250366211,-0.9696714878082275
1725891800713566200,8.801566162109374,-0.3799578845500946,0.38469210267066956,-0.9543998837471008
1725891800732415200,8.820415283203126,-0.7617483735084534,-0.41554075479507446,-0.26473352313041687
1725891800751264300,8.83926416015625,-0.5510000586509705,-0.522442102432251,0.224569171667099
1725891800770113300,8.85811328125,-0.36743515729904175,-0.2909243404865265,0.11980585753917694
1725891800788962300,8.87696240234375,-0.5338957905769348,-0.7368556261062622,0.3323867917060852
1725891800807811600,8.8958115234375,-0.6071996092796326,-1.1913390159606934,0.6695841550827026
1725891800826660600,8.91466064453125,-0.5937605500221252,-1.0459532737731934,0.7398335933685303
1725891800845509400,8.93350927734375,-0.562911868095398,-0.5383245944976807,0.5626828074455261
1725891800864358700,8.952358642578124,-0.43860089778900146,-0.16752967238426208,0.27374377846717834
1725891800883207700,8.971207763671876,-0.46914416551589966,-0.1003345400094986,0.21143557131290436
1725891800902056700,8.990056640625,-0.3433060050010681,0.23075416684150696,0.22059854865074158
1725891800920905700,9.00890576171875,-0.1438586562871933,0.47815442085266113,0.2664133906364441
1725891800939754800,9.027754638671874,0.03145953640341759,0.5395463109016418,0.38095054030418396
1725891800958603800,9.046603759765626,0.11056652665138245,0.5242747068405151,0.5345830321311951
1725891800977452800,9.065452880859375,0.1591302752494812,0.13240493834018707,0.7172316312789917
1725891800996301800,9.0843017578125,0.03909534588456154,-0.11346813291311264,0.7874810695648193
1725891801015150800,9.10315087890625,-0.18387030065059662,-0.5942187309265137,0.9518036842346191
1725891801034000100,9.122000244140626,0.39828383922576904,0.06368265300989151,1.060232162475586
1725891801052849200,9.14084912109375,1.0396918058395386,0.42195484042167664,1.0541235208511353
1725891801071698200,9.1596982421875,1.0928370952606201,0.5624537467956543,1.0654245615005493
1725891801090547200,9.178547119140624,0.9275981783866882,1.2194387912750244,0.7294489145278931
1725891801109396200,9.197396240234376,0.5958985686302185,1.7643301486968994,0.3589594066143036
1725891801128245200,9.216245361328125,0.4312705397605896,1.7066035270690918,0.450589120388031
1725891801147094300,9.23509423828125,0.26450446248054504,1.6757547855377197,0.3326922357082367
1725891801165943600,9.253943603515625,0.9318742156028748,1.7737985849380493,-0.13614648580551147
1725891801184792600,9.27279248046875,1.2675443887710571,2.416428327560425,-0.30199626088142395
1725891801203641600,9.2916416015625,0.962417483329773,2.355341911315918,-0.48128509521484375
1725891801222490600,9.31049072265625,0.739757239818573,2.629009246826172,-0.8123738169670105
1725891801241339600,9.329339599609375,0.6334667801856995,2.1940736770629883,-1.0249547958374023
1725891801260188700,9.348188720703124,0.5375609993934631,1.6006184816360474,-0.7369319796562195
1725891801279038000,9.367037841796876,0.21838416159152985,1.642768144607544,-0.5606974959373474
1725891801297887000,9.385886962890625,-0.10323614627122879,1.2475385665893555,-0.3664425015449524
1725891801316736000,9.404736083984375,-0.035735588520765305,0.8425352573394775,-0.2879463732242584
1725891801335585000,9.4235849609375,-0.25320345163345337,-0.3095557391643524,-0.17829616367816925
1725891801354434000,9.44243408203125,-0.3283398151397705,0.011148282326757908,-0.13248129189014435
1725891801373283300,9.461283447265625,-0.5155698657035828,-0.6827940940856934,0.06085740402340889
1725891801392132400,9.48013232421875,-0.6459894776344299,-1.1201733350753784,0.008017600513994694
1725891801410981400,9.4989814453125,-0.18631376326084137,-1.2967132329940796,-0.8832340836524963
1725891801429830400,9.517830322265626,0.518318772315979,0.20540328323841095,-2.043571710586548
1725891801448679400,9.536679443359375,0.7281508445739746,-0.6830995678901672,-1.6920191049575806
1725891801467528400,9.555528564453125,0.6136136651039124,-0.8810197114944458,-1.115057349205017
1725891801486377700,9.574377685546875,0.7654135823249817,-0.10430516302585602,-0.898200273513794
1725891801505226800,9.593226806640626,0.4422661066055298,-0.7319687008857727,-0.6266708970069885
1725891801524075800,9.61207568359375,0.2767217457294464,-0.18952079117298126,-0.7311288118362427
1725891801542924800,9.6309248046875,0.1233946830034256,0.2994764447212219,-0.9204968810081482
1725891801561774000,9.649774169921875,-0.11759147047996521,0.06062832847237587,-0.8206204771995544
1725891801580623000,9.668623046875,-0.24862197041511536,-0.3153589367866516,-0.6984475255012512
1725891801599472000,9.68747216796875,-0.3243691921234131,-0.45769044756889343,-0.6379718780517578
1725891801618321200,9.706321044921875,-0.3399462401866913,-0.4744892120361328,-0.8065705895423889
1725891801637170400,9.72517041015625,-0.3393353819847107,-0.523052990436554,-0.908890426158905
1725891801656019500,9.74401953125,-0.5204567909240723,-0.5487092733383179,-0.9116393327713013
1725891801674868500,9.762868408203126,-0.7990111112594604,-0.5309942364692688,-1.0515273809432983
1725891801693717500,9.781717529296875,-0.9954041838645935,-0.28206682205200195,-1.092760682106018
1725891801712566800,9.80056689453125,-1.1136064529418945,-0.14004075527191162,-1.0829869508743286
1725891801731415800,9.819415771484374,-1.2797616720199585,-0.08597921580076218,-0.9211077094078064
1725891801750264800,9.838264892578126,-1.293811559677124,-0.10094540566205978,-0.5689441561698914
1725891801769113900,9.85711376953125,-1.0161736011505127,-0.1302669197320938,-0.289168119430542
1725891801787963100,9.875963134765625,-0.7687733173370361,0.10063996911048889,-0.3102429509162903
1725891801806812200,9.894812255859375,-0.4428769648075104,0.24022257328033447,-0.24182608723640442
1725891801825661200,9.9136611328125,-0.2877173125743866,0.37858346104621887,-0.18348850309848785
1725891801844510200,9.93251025390625,-0.1740964651107788,0.5056433081626892,-0.10651954263448715
1725891801863359500,9.951359375,0.09834922850131989,0.4185950756072998,-0.013668099418282509
1725891801882208500,9.97020849609375,0.31184646487236023,0.3675878942012787,0.11766783148050308
1725891801901057500,9.9890576171875,0.4013381600379944,0.3355174660682678,0.3229183852672577
1725891801919906800,10.00790673828125,0.592233419418335,0.4240928590297699,0.39164069294929504
1725891801938755800,10.026755859375,0.8316923975944519,0.45646870136260986,0.5000692009925842
1725891801957604900,10.04560498046875,1.063515543937683,0.41126471757888794,0.5981130003929138
1725891801976454000,10.064453857421874,1.1908808946609497,0.35384342074394226,0.6320159435272217
1725891801995303200,10.08330322265625,1.2721259593963623,0.434783011674881,0.5651262998580933
1725891802014152200,10.102152099609375,1.3014473915100098,0.3468184769153595,0.5874228477478027
1725891802033001200,10.121001220703125,1.1786636114120483,-0.06765327602624893,0.6854666471481323
1725891802051850200,10.139850341796874,1.0607666969299316,-0.0902552679181099,1.070311427116394
1725891802070699500,10.158699462890626,0.842382550239563,-0.010842849500477314,1.3995676040649414
1725891802089548500,10.177548583984375,0.9810488224029541,-0.4130973219871521,1.0935243368148804
1725891802108397600,10.1963974609375,0.9208786487579346,-0.4192059636116028,1.420947790145874
1725891802127246800,10.215246826171875,0.46944957971572876,-0.04780016839504242,1.447214961051941
1725891802146095900,10.234095947265626,0.4101957082748413,-0.06368265300989151,1.3452006578445435
1725891802164945000,10.25294482421875,0.21349723637104034,-0.11804962158203125,1.1753802299499512
1725891802183794200,10.271794189453125,-0.3133736252784729,0.3816377818584442,1.2767837047576904
1725891802202643200,10.290643310546875,0.5296197533607483,-0.9314160943031311,2.3806164264678955
1725891802221492200,10.3094921875,1.0332777500152588,-0.47143489122390747,1.6509383916854858
1725891802240341500,10.328341552734376,0.8100066781044006,-0.4705185890197754,0.6723330616950989
1725891802259190500,10.3471904296875,0.18692462146282196,-0.2811505198478699,0.23739732801914215
1725891802278039600,10.36603955078125,-0.17104214429855347,-0.1766926348209381,-0.114460788667202
1725891802296888800,10.384888916015624,-0.2605338394641876,-0.23991714417934418,-0.565889835357666
1725891802315737900,10.40373779296875,-0.13713914155960083,-0.45280352234840393,-0.7216603755950928
1725891802334587000,10.4225869140625,0.2260199636220932,-0.6385064125061035,-0.6202568411827087
1725891802353436200,10.441436279296875,0.573602020740509,-0.8874338269233704,-0.15752676129341125
1725891802372285200,10.46028515625,1.1786636114120483,-0.8886555433273315,-0.06742420047521591
1725891802391134200,10.47913427734375,1.5738930702209473,-0.726470947265625,0.21235187351703644
1725891802409983500,10.4979833984375,1.5583161115646362,-0.9595158696174622,-0.15447242558002472
1725891802428832500,10.51683251953125,1.2363903522491455,-1.335808515548706,-1.233565092086792
1725891802447681800,10.535681884765625,0.4972439408302307,-1.0038034915924072,-2.0793073177337646
1725891802466530800,10.55453076171875,0.05192350596189499,-0.20082180202007294,-2.160857915878296
1725891802485379800,10.5733798828125,-0.06627883017063141,0.30344706773757935,-1.9852341413497925
1725891802504229000,10.59222900390625,-0.07024945318698883,0.425009161233902,-1.841375470161438
1725891802523078100,10.611078125,-0.05406153202056885,0.3712530732154846,-1.6052762269973755
1725891802541927400,10.629927490234374,-0.03817904740571976,0.23655737936496735,-1.398803949356079
1725891802560776400,10.6487763671875,-0.1331685185432434,-0.471129447221756,-1.3768128156661987
1725891802579625500,10.66762548828125,-1.110857605934143,-1.8348851203918457,-2.3282346725463867
1725891802598474500,10.686474609375,-0.8900299668312073,-2.04838228225708,-1.9107086658477783
1725891802617323800,10.70532373046875,-0.5424479246139526,-2.125962257385254,-1.6663627624511719
1725891802636173000,10.724173095703126,-0.35674503445625305,-2.078620195388794,-1.6153554916381836
1725891802655022000,10.74302197265625,-0.4068359434604645,-2.0181446075439453,-1.582979679107666
1725891802673871000,10.76187109375,-0.44959646463394165,-2.040135622024536,-1.656894326210022
1725891802692720400,10.780720458984375,-0.5027416944503784,-1.475391149520874,-1.6312379837036133
1725891802711569400,10.7995693359375,-0.5219839811325073,-0.7380773425102234,-1.299538493156433
1725891802730418700,10.818418701171876,-0.42791077494621277,-0.16416990756988525,-0.7323505282402039
1725891802749267700,10.837267822265625,-0.20952661335468292,-0.06551524996757507,-0.6254491806030273
1725891802768116700,10.85611669921875,-0.15302163362503052,0.2848156988620758,-0.43944084644317627
1725891802786966000,10.874966064453124,-0.1337793916463852,0.6724094152450562,-0.13797907531261444
1725891802805815000,10.89381494140625,-0.04550942778587341,0.873994767665863,0.147905632853508
1725891802824664000,10.9126640625,0.0030543238390237093,1.151021957397461,0.5504655241966248
1725891802843513300,10.931513427734375,0.1230892539024353,1.5050181150436401,0.8934661149978638
1725891802862362400,10.9503623046875,0.3277289569377899,1.89994215965271,1.1405608654022217
1725891802881211600,10.969211669921876,0.5464185476303101,2.1421501636505127,1.3238203525543213
1725891802900060700,10.988060791015625,0.7470875978469849,2.3235769271850586,1.5889356136322021
1725891802918909700,11.00690966796875,0.9327905178070068,2.1219916343688965,1.7468441724777222
1725891802937759000,11.025759033203125,1.1340705156326294,1.8052581548690796,1.785634160041809
1725891802956608300,11.044608154296874,1.2760965824127197,1.4060579538345337,1.7581452131271362
1725891802975457300,11.063457275390626,1.3090832233428955,1.096960425376892,1.810374140739441
1725891802994306300,11.082306396484375,1.2244784832000732,0.9558506608009338,1.9148319959640503
1725891803013155600,11.101155517578125,1.1658353805541992,0.8944587707519531,1.905669093132019
1725891803032004600,11.120004638671874,1.20981764793396,0.7973312735557556,1.904141902923584
1725891803050854000,11.13885400390625,1.2742639780044556,0.5337430834770203,1.9004766941070557
1725891803069703000,11.157702880859375,1.2330305576324463,0.4143190383911133,1.8409173488616943
1725891803088552200,11.17655224609375,1.1145228147506714,0.46135562658309937,1.680565357208252
1725891803107401200,11.195401123046874,0.942258894443512,0.57008957862854,1.4313325881958008
1725891803126250500,11.21425048828125,0.8106175661087036,0.45646870136260986,1.0953569412231445
1725891803145099500,11.233099609375,0.5476402640342712,0.2692386507987976,0.9093486070632935
1725891803163948500,11.251948486328125,0.24923282861709595,0.3819431960582733,0.6332377195358276
1725891803182797800,11.2707978515625,0.04764745384454727,0.28206682205200195,0.3378845751285553
1725891803201647000,11.289647216796874,-0.06108647957444191,0.03405570983886719,-0.047265663743019104
1725891803220496100,11.30849609375,-0.15607595443725586,0.04810560122132301,-0.39912378787994385
1725891803239345200,11.32734521484375,-0.19914191961288452,0.09636391699314117,-0.7390699982643127
1725891803258194400,11.3461943359375,-0.1380554437637329,0.08139773458242416,-1.0264818668365479
1725891803277043500,11.36504345703125,-0.007330377586185932,-0.08536835014820099,-1.1822524070739746
1725891803295892700,11.383892822265626,0.14233149588108063,-0.2955058515071869,-1.401247501373291
1725891803314741800,11.40274169921875,0.20311254262924194,-0.31230461597442627,-1.5863394737243652
1725891803333591000,11.421591064453125,0.2306014597415924,-0.2835939824581146,-1.5518256425857544
1725891803352440000,11.440440185546874,0.24709481000900269,-0.32421648502349854,-1.44584059715271
1725891803371289300,11.459289306640626,0.18814635276794434,-0.3816377818584442,-1.3765074014663696
1725891803390138400,11.478138427734375,0.1282816082239151,-0.5991056561470032,-1.3016765117645264
1725891803408987600,11.496987548828125,0.01740964688360691,-0.8504765033721924,-1.2845722436904907
1725891803427836700,11.515836669921875,-0.025045456364750862,-1.1281145811080933,-1.3306925296783447
1725891803446686000,11.53468603515625,-0.029626941308379173,-1.5862630605697632,-1.3737585544586182
1725891803465535000,11.553534912109376,-0.029932374134659767,-1.8391611576080322,-1.4244602918624878
1725891803484384300,11.57238427734375,-0.06108647957444191,-1.9243767261505127,-1.5276964902877808
1725891803503233300,11.5912333984375,-0.06719512492418289,-1.9204061031341553,-1.619020700454712
1725891803522082600,11.61008251953125,-0.031154103577136993,-2.047771453857422,-1.546633243560791
1725891803540931600,11.628931640625,-0.0461202897131443,-2.0218098163604736,-1.434844970703125
1725891803559780900,11.64778076171875,-0.24892739951610565,-1.884670615196228,-1.4831032752990723
1725891803578630000,11.6666298828125,-0.467006117105484,-1.957363486289978,-1.5060107707977295
1725891803597479200,11.685479248046875,-0.6603448390960693,-1.6943861246109009,-1.4864630699157715
1725891803616328200,11.704328125,-0.9911280870437622,-1.246316909790039,-1.546633243560791
1725891803635177500,11.723177490234375,-1.2064579725265503,-0.7139481902122498,-1.6260457038879395
1725891803654026500,11.742026611328125,-1.1872156858444214,-0.014813470654189587,-1.242117166519165
1725891803672875800,11.760875732421875,-0.9318742156028748,0.28664830327033997,-0.8985057473182678
1725891803691724800,11.779724853515624,-0.6979129910469055,0.7038689255714417,-0.584826648235321
1725891803710574000,11.798573974609376,-0.6181951761245728,0.8330668210983276,-0.18440480530261993
1725891803729423000,11.817423095703125,-0.36774060130119324,0.9124792814254761,0.13416117429733276
1725891803748272400,11.8362724609375,-0.21349723637104034,1.0487021207809448,0.5049561262130737
1725891803767121400,11.855121337890624,-0.07238747924566269,1.291215419769287,0.9576069116592407
1725891803785970700,11.873970703125,0.18295399844646454,1.557857871055603,1.3051890134811401
1725891803804819700,11.89281982421875,0.406530499458313,1.7188208103179932,1.5281546115875244
1725891803823669000,11.9116689453125,0.6215549111366272,1.8070907592773438,1.7718896865844727
1725891803842518300,11.930518310546875,0.9230166673660278,2.0135629177093506,1.746538758277893
1725891803861367300,11.9493671875,1.0622938871383667,2.112523078918457,1.7221041917800903
1725891803880216600,11.968216552734376,1.0286962985992432,1.9524765014648438,1.800600290298462
1725891803899065600,11.987065673828125,0.925460159778595,1.8229732513427734,1.9792782068252563
1725891803917914600,12.00591455078125,0.878118097782135,1.6552908420562744,2.1090869903564453
1725891803936764000,12.024763916015624,0.8796452879905701,1.5343396663665771,2.2049927711486816
1725891803955613000,12.043613037109376,0.7806851863861084,1.0471749305725098,2.2068252563476562
1725891803974462200,12.062462158203125,0.6633991599082947,0.6504182815551758,2.2578325271606445
1725891803993311500,12.0813115234375,0.6093376278877258,0.4228711426258087,2.2828779220581055
1725891804012160500,12.100160400390624,0.56382817029953,0.18310672044754028,2.0455570220947266
1725891804031009800,12.119009765625,0.4272999167442322,0.2484692484140396,1.6304744482040405
1725891804049858800,12.13785888671875,0.2834412455558777,0.3733910918235779,1.2593741416931152
1725891804068708000,12.1567080078125,0.18173226714134216,0.23472478985786438,0.8693369626998901
1725891804087557000,12.17555712890625,0.07544180005788803,0.3468184769153595,0.4713585376739502
1725891804106406400,12.194406494140624,0.031154103577136993,0.27626359462738037,0.13629920780658722
1725891804125255400,12.21325537109375,-0.04764745384454727,-0.016035201027989388,-0.17432554066181183
1725891804144104700,12.232104736328125,-0.07147117704153061,-0.11957678198814392,-0.4840339720249176
1725891804162954000,12.2509541015625,-0.1078176349401474,0.02916879393160343,-0.8090140223503113
1725891804181803000,12.269802978515624,-0.14721840620040894,0.17027856409549713,-1.1269692182540894
1725891804200652300,12.28865234375,-0.18387030065059662,0.2078467458486557,-1.2561670541763306
1725891804219501300,12.307501220703125,-0.17562362551689148,0.1461493968963623,-1.3737585544586182
1725891804238350600,12.3263505859375,-0.11514800786972046,0.005955931730568409,-1.3966659307479858
1725891804257199600,12.34519970703125,-0.08002328872680664,-0.2683223485946655,-1.2720495462417603
1725891804276049000,12.364048828125,-0.016798781231045723,-0.5539016127586365,-1.2280672788619995
1725891804294898000,12.38289794921875,0.0565049909055233,-0.8373429179191589,-1.2546398639678955
1725891804313747200,12.401747314453125,0.08521563559770584,-1.0270164012908936,-1.3655118942260742
1725891804332596500,12.420596435546875,0.03237583488225937,-1.1482731103897095,-1.5979459285736084
1725891804351445500,12.439445556640624,-0.07483093440532684,-1.2475385665893555,-1.7216460704803467
1725891804370294800,12.458294677734376,-0.15485422313213348,-1.4008656740188599,-1.6492584943771362
1725891804389143800,12.477143798828125,-0.16737695038318634,-1.6421571969985962,-1.619020700454712
1725891804407993000,12.4959931640625,-0.2107483446598053,-1.733481526374817,-1.7555490732192993
1725891804426842000,12.514842041015624,-0.2623664140701294,-1.7670791149139404,-1.8334342241287231
1725891804445691400,12.53369140625,-0.24862197041511536,-1.8849760293960571,-1.7570761442184448
1725891804464540400,12.55254052734375,-0.34574946761131287,-2.0273075103759766,-1.6376521587371826
1725891804483389700,12.5713896484375,-0.4535670876502991,-1.8910846710205078,-1.472718596458435
1725891804502239000,12.590239013671875,-0.5137372612953186,-1.3990330696105957,-1.399720311164856
1725891804521088000,12.609087890625,-0.6505709886550903,-1.0172425508499146,-1.4684425592422485
1725891804539937300,12.627937255859376,-0.8790343999862671,-0.8168789148330688,-1.500512957572937
1725891804558786300,12.646786376953125,-0.8909462690353394,-0.1305723488330841,-1.110781192779541
1725891804577635600,12.665635498046875,-0.8063415288925171,0.25671592354774475,-0.6281980872154236
1725891804596484600,12.684484619140624,-0.601396381855011,0.49861836433410645,-0.31604617834091187
1725891804615334000,12.703333984375,-0.4101957082748413,0.6617192625999451,-0.06620246917009354
1725891804634183200,12.72218310546875,-0.32620179653167725,0.9964731931686401,0.2774089574813843
1725891804653032200,12.7410322265625,-0.21838416159152985,1.096655011177063,0.6372083425521851
1725891804671881500,12.759881591796875,-0.06841685622930527,1.126281976699829,0.9933425188064575
1725891804690730800,12.778730712890624,0.2208276242017746,1.4396555423736572,1.2535709142684937
1725891804709579800,12.797579833984376,0.4987711012363434,1.6485713720321655,1.3778818845748901
1725891804728429000,12.816428955078125,0.7382301092147827,1.7670791149139404,1.5528945922851562
1725891804747278000,12.835278076171875,0.9645555019378662,1.8330525159835815,1.596571445465088
1725891804766127400,12.85412744140625,1.0855066776275635,1.8785618543624878,1.6414700746536255
1725891804784976400,12.872976318359376,1.1542290449142456,1.7145447731018066,1.7831906080245972
1725891804803825700,12.89182568359375,1.2666281461715698,1.557857871055603,1.9328525066375732
1725891804822674700,12.9106748046875,1.255937933921814,1.1717913150787354,2.096869707107544
1725891804841524000,12.92952392578125,1.1905754804611206,0.9039271473884583,2.216599225997925
1725891804860373200,12.948373291015624,1.145371437072754,0.6140718460083008,2.175365924835205
1725891804879222300,12.96722216796875,1.0152572393417358,0.5465712547302246,2.1594834327697754
1725891804898071600,12.986071533203125,0.7409789562225342,0.2811505198478699,2.093815326690674
1725891804916920600,13.004920654296875,0.46883872151374817,0.31413722038269043,1.8629084825515747
1725891804935769900,13.023769775390624,0.4004218578338623,0.3306305706501007,1.4493530988693237
1725891804954619100,13.042619140625,0.38820457458496094,0.20082180202007294,0.9857066869735718
1725891804973468200,13.06146826171875,0.19150610268115997,0.08933897316455841,0.6097193956375122
1725891804992317400,13.0803173828125,-0.0360410213470459,0.10888664424419403,0.3262781500816345
1725891805011166500,13.09916650390625,-0.22327107191085815,0.15745039284229279,-0.004505127668380737
1725891805030015700,13.118015625,-0.31001389026641846,-0.005345067009329796,-0.24610215425491333
1725891805048865000,13.136864990234375,-0.3075704276561737,0.04535670951008797,-0.4516581594944
1725891805067714000,13.155714111328125,-0.29138249158859253,0.06582067906856537,-0.7192169427871704
1725891805086563300,13.174563232421875,-0.3341430425643921,-0.1000291109085083,-0.8554397821426392
1725891805105412400,13.193412353515624,-0.4685332775115967,0.09758564829826355,-0.9033926725387573
1725891805124261600,13.21226171875,-0.37201663851737976,0.15592323243618011,-1.1630102396011353
1725891805143111000,13.23111083984375,-0.17318016290664673,-0.10186170041561127,-1.2112685441970825
1725891805161960000,13.2499599609375,-0.10934479534626007,-0.15867212414741516,-1.0588576793670654
1725891805180809200,13.268809326171874,-0.129197895526886,-0.4815141558647156,-1.1061997413635254
1725891805199658200,13.287658203125,-0.1954767256975174,-0.7619010806083679,-1.3471859693527222
1725891805218507500,13.306507568359375,-0.21258094906806946,-0.8767436742782593,-1.5475496053695679
1725891805237356800,13.325356689453125,-0.16004657745361328,-1.2160791158676147,-1.5438843965530396
1725891805256205800,13.344205810546875,-0.05894844979047775,-1.3758201599121094,-1.564959168434143
1725891805275055000,13.36305517578125,0.011911863461136818,-1.5071561336517334,-1.5472440719604492
1725891805293904100,13.381904052734376,-0.08674279600381851,-1.7212642431259155,-1.623602271080017
1725891805312753400,13.40075341796875,-0.34666576981544495,-1.9512548446655273,-1.7579925060272217
1725891805331602400,13.4196025390625,-0.5934551358222961,-2.0300564765930176,-1.7195080518722534
1725891805350451700,13.43845166015625,-0.5244274139404297,-1.863595724105835,-1.6791908740997314
1725891805369301000,13.457301025390626,-0.37262752652168274,-1.727067470550537,-1.4992913007736206
1725891805388150000,13.47614990234375,-0.3811796307563782,-1.6342159509658813,-1.3477967977523804
1725891805406999300,13.494999267578125,-0.6026180982589722,-1.6033673286437988,-1.4470622539520264
1725891805425848600,13.5138486328125,-0.8811724185943604,-1.1910336017608643,-1.6883538961410522
1725891805444697600,13.532697509765624,-1.0919208526611328,-0.7078395485877991,-1.3120611906051636
1725891805463547000,13.551546875,-0.868955135345459,-0.0206166859716177,-0.5521454215049744
1725891805482396000,13.57039599609375,-0.4046979248523712,0.3627009689807892,-0.5167152285575867
1725891805501245200,13.5892451171875,-0.3961458206176758,0.7435751557350159,-0.3404807448387146
1725891805520094500,13.608094482421874,-0.41935867071151733,0.9744820594787598,0.2248746007680893
1725891805538943500,13.626943603515626,-0.19730933010578156,1.1925607919692993,0.4979311525821686
1725891805557792800,13.645792724609375,0.06261363625526428,1.491884469985962,0.7199804782867432
1725891805576641800,13.664641845703125,0.24526220560073853,1.6360485553741455,1.0461822748184204
1725891805595491000,13.683490966796874,0.3802633285522461,1.634521484375,1.4679844379425049
1725891805614340400,13.70234033203125,0.6753110289573669,1.726456642150879,1.6827033758163452
1725891805633189400,13.721189453125,0.9911280870437622,1.8645119667053223,1.7272964715957642
1725891805652038700,13.74003857421875,1.0311397314071655,1.686139464378357,1.8381685018539429
1725891805670887700,13.7588876953125,1.0241148471832275,1.6372703313827515,2.094426155090332
1725891805689737000,13.777737060546874,1.1994329690933228,1.4216350317001343,2.021122455596924
1725891805708586200,13.796586181640626,1.0378592014312744,1.134223222732544,2.1576507091522217
1725891805727435300,13.815435302734375,0.7620537877082825,1.1785109043121338,2.320751667022705
1725891805746284500,13.834284423828125,0.785877525806427,1.0261001586914062,2.1399357318878174
1725891805765133600,13.853133544921874,0.9743293523788452,0.643393337726593,1.9804999828338623
1725891805783982800,13.87198291015625,0.7370083332061768,0.6125446557998657,2.051971197128296
1725891805802832100,13.89083203125,0.5125155448913574,0.5697841048240662,1.8913136720657349
1725891805821681200,13.90968115234375,0.5149590373039246,0.6553052067756653,1.5315144062042236
1725891805840530400,13.928530517578125,0.6096430420875549,0.3410152494907379,1.0990221500396729
1725891805859379700,13.947379638671874,0.5146535634994507,0.1971566081047058,0.6836340427398682
1725891805878228700,13.966228759765626,0.25320345163345337,0.3208567202091217,0.43348491191864014
1725891805897078000,13.985078125,-0.07544180005788803,-0.17394374310970306,0.043142326176166534
1725891805915927000,14.003927001953125,-0.36743515729904175,0.2286161482334137,-0.48647743463516235
1725891805934776300,14.0227763671875,-0.45478883385658264,0.32391104102134705,-0.8413898944854736
1725891805953625300,14.041625244140626,-0.4043924808502197,0.10338886082172394,-0.9336304664611816
1725891805972474600,14.060474609375,-0.31093016266822815,0.09178243577480316,-0.7809142470359802
1725891805991323600,14.07932373046875,-0.3243691921234131,-0.007177661173045635,-0.8224530816078186
1725891806010173000,14.0981728515625,-0.43493571877479553,-0.018173227086663246,-0.9116393327713013
1725891806029022200,14.117022216796874,-0.3130682110786438,-0.1565341055393219,-1.1013128757476807
1725891806047871500,14.13587158203125,-0.05406153202056885,-0.3730856776237488,-1.1614830493927002
1725891806066720500,14.154720458984375,0.049480047076940536,-0.5267181396484375,-1.1425461769104004
1725891806085569800,14.17356982421875,-0.003359756199643016,-0.7249437570571899,-1.3765074014663696
1725891806104418800,14.192418701171874,-0.057726722210645676,-0.817184329032898,-1.5634320974349976
1725891806123268000,14.21126806640625,-0.06200277432799339,-1.0908517837524414,-1.6202424764633179
1725891806142117000,14.2301171875,-0.09285144507884979,-1.364824652671814,-1.6159664392471313
1725891806160966400,14.24896630859375,-0.16340632736682892,-1.5914554595947266,-1.6926299333572388
1725891806179815700,14.267815673828125,-0.29565855860710144,-1.8437426090240479,-1.8138866424560547
1725891806198664700,14.286664794921874,-0.41935867071151733,-1.9494222402572632,-1.973933219909668
1725891806217514000,14.305513916015625,-0.39248061180114746,-1.9872958660125732,-1.9950079917907715
1725891806236363300,14.32436328125,-0.39736753702163696,-2.0242531299591064,-1.897269606590271
1725891806255212300,14.34321240234375,-0.4718930423259735,-1.9353723526000977,-1.7149264812469482
1725891806274061600,14.3620615234375,-0.508544921875,-1.5331178903579712,-1.5063161849975586
1725891806292910600,14.38091064453125,-0.5540543794631958,-1.1992802619934082,-1.4852412939071655
1725891806311760000,14.399759765625,-0.6514872908592224,-0.8129082918167114,-1.4678317308425903
1725891806330609000,14.41860888671875,-0.7418952584266663,-0.3428478538990021,-1.2088249921798706
1725891806349458200,14.437458251953124,-0.7513636946678162,0.12293653935194016,-0.8224530816078186
1725891806368307500,14.456307373046876,-0.656679630279541,0.5832231640815735,-0.39423686265945435
1725891806387156500,14.475156494140625,-0.30482152104377747,0.8816305994987488,-0.09002619981765747
1725891806406005800,14.494005859375,-0.20708316564559937,0.9075923562049866,0.08162680268287659
1725891806424855000,14.51285498046875,-0.2977965772151947,0.975703775882721,0.6420952677726746
1725891806443704000,14.5317041015625,-0.010384701192378998,1.4051417112350464,1.0669517517089844
1725891806462553300,14.55055322265625,0.20402882993221283,1.5740457773208618,1.1402554512023926
1725891806481402400,14.56940234375,0.3274235129356384,1.7163772583007812,1.4249184131622314
1725891806500251600,14.588251708984375,0.6957749724388123,1.7737985849380493,1.5373176336288452
1725891806519100700,14.6071005859375,0.8200859427452087,1.9430081844329834,1.6863685846328735
1725891806537950000,14.625949951171876,0.9257655739784241,1.9848524332046509,1.8873430490493774
1725891806556799200,14.64479931640625,1.0693187713623047,1.7676899433135986,2.1542909145355225
1725891806575648300,14.663648193359375,1.1954623460769653,1.5123485326766968,2.25905442237854
1725891806594497500,14.68249755859375,1.368031620979309,1.0911571979522705,2.3155593872070312
1725891806613346800,14.701346923828124,1.398269534111023,0.7215840220451355,2.3552656173706055
1725891806632195800,14.72019580078125,0.9187406301498413,0.6412553191184998,2.522336959838867
1725891806651045000,14.739045166015625,0.6139190793037415,0.2991710305213928,2.490877389907837
1725891806669894100,14.75789404296875,0.554665207862854,0.21395538747310638,1.9811108112335205
1725891806688743400,14.776743408203124,0.47494736313819885,0.5719221234321594,1.478369116783142
1725891806707592400,14.795592529296876,0.3738492429256439,0.3657552897930145,1.180267095565796
1725891806726441700,14.814441650390625,0.30115634202957153,0.212733656167984,0.7465531229972839
1725891806745291000,14.833291015625,0.1792888194322586,0.13545925915241241,0.5022072196006775
1725891806764140000,14.85214013671875,-0.07849612087011337,0.1510363221168518,0.2929860055446625
1725891806782989300,14.8709892578125,-0.1750127524137497,0.40546149015426636,-0.04696023091673851
1725891806801838300,14.88983837890625,-0.20402882993221283,0.28817546367645264,-0.34353506565093994
1725891806820687600,14.9086875,-0.19272783398628235,0.15378521382808685,-0.5692496299743652
1725891806839537000,14.927536865234375,-0.22754712402820587,0.13393209874629974,-0.7790816426277161
1725891806858386000,14.946385986328124,-0.2767217457294464,0.14950916171073914,-0.8395572900772095
1725891806877235200,14.965235107421876,-0.3543015718460083,0.1418733447790146,-0.8169552683830261
1725891806896084200,14.984084228515625,-0.430659681558609,0.18432845175266266,-0.825507402420044
1725891806914933500,15.00293359375,-0.27977606654167175,-0.033139415085315704,-0.8728494048118591
1725891806933782500,15.021782470703124,-0.11423171311616898,-0.21426081657409668,-1.0509165525436401
1725891806952631800,15.0406318359375,0.1233946830034256,-0.7047852277755737,-1.3044253587722778
1725891806971481000,15.059481201171875,0.205861434340477,-1.0135773420333862,-1.490739107131958
1725891806990330000,15.078330078125,0.12522727251052856,-1.0108284950256348,-1.5634320974349976
1725891807009179400,15.097179443359375,0.04459312930703163,-1.315955400466919,-1.6886593103408813
1725891807028028700,15.116028564453124,-0.1288924664258957,-1.39445161819458,-1.8196898698806763
1725891807046877700,15.134877685546876,-0.2156352698802948,-1.5624394416809082,-1.7989203929901123
1725891807065727000,15.15372705078125,-0.2837466895580292,-1.8321361541748047,-1.926591157913208
1725891807084576000,15.172575927734375,-0.4205803871154785,-2.0459389686584473,-2.05548357963562
1725891807103425300,15.19142529296875,-0.462424635887146,-2.3373212814331055,-2.1046581268310547
1725891807122274300,15.2102744140625,-0.46975502371788025,-2.4097087383270264,-2.063119411468506
1725891807141123600,15.22912353515625,-0.44959646463394165,-1.9094105958938599,-1.8047236204147339
1725891807159972600,15.24797265625,-0.3961458206176758,-1.3761255741119385,-1.4947097301483154
1725891807178822000,15.26682177734375,-0.4373791813850403,-1.0013600587844849,-1.4174354076385498
1725891807197671200,15.285671142578124,-0.5409207344055176,-0.4747946560382843,-1.2466986179351807
1725891807216520200,15.304520263671876,-0.664926290512085,-0.20387612283229828,-1.0945932865142822
1725891807235369500,15.323369384765625,-0.6484329700469971,0.18555018305778503,-0.6801216006278992
1725891807254218500,15.342218505859375,-0.42332929372787476,0.4967857897281647,-0.27114760875701904
1725891807273067800,15.36106787109375,-0.2761108875274658,0.6122392416000366,-0.014584396965801716
1725891807291917000,15.3799169921875,-0.16523891687393188,0.7377719283103943,0.26305365562438965
1725891807310766000,15.39876611328125,-0.061391908675432205,0.9149227142333984,0.5938369035720825
1725891807329615400,15.417615478515625,0.13622283935546875,1.2304344177246094,0.9475276470184326
1725891807348464400,15.43646435546875,0.3399462401866913,1.5642719268798828,1.2062288522720337
1725891807367313700,15.455313720703124,0.48563748598098755,1.7023273706436157,1.4426335096359253
1725891807386163000,15.474162841796876,0.6539307236671448,1.846796989440918,1.6097050905227661
1725891807405012000,15.493011962890625,0.8967494964599609,1.8590142726898193,1.6145919561386108
1725891807423861200,15.511861328125,1.0045671463012695,2.0105087757110596,1.993633508682251
1725891807442710300,15.530710205078124,1.0754274129867554,1.8923063278198242,2.284710645675659
1725891807461559600,15.5495595703125,1.2932007312774658,1.389870047569275,2.3659555912017822
1725891807480408600,15.56840869140625,1.3927717208862305,0.9030108451843262,2.320751667022705
1725891807499257900,15.5872578125,1.2235621213912964,0.6601921319961548,2.4203226566314697
1725891807518107000,15.60610693359375,0.8436042666435242,0.5465712547302246,2.469191789627075
1725891807536956200,15.6249560546875,0.5904008150100708,0.41095927357673645,2.37908935546875
1725891807555805400,15.643805419921875,0.5149590373039246,0.09392046183347702,2.0040183067321777
1725891807574654500,15.662654541015625,0.4263836145401001,0.18677189946174622,1.4169771671295166
1725891807593503700,15.681503662109375,0.2987128794193268,0.2075413018465042,1.070006012916565
1725891807612352800,15.700352783203124,0.2049451321363449,0.09361502528190613,0.7010436654090881
1725891807631202000,15.7192021484375,0.07147117704153061,0.21609342098236084,0.39133524894714355
1725891807650051000,15.738051025390625,-0.0717766135931015,0.17455461621284485,0.20349432528018951
1725891807668900400,15.756900390625,-0.19608759880065918,0.11774418503046036,-0.060093823820352554
1725891807687749400,15.775749267578124,-0.26939135789871216,0.12660172581672668,-0.2879463732242584
1725891807706598700,15.7945986328125,-0.2721402645111084,-0.09361502528190613,-0.49197521805763245
1725891807725448000,15.813447998046875,-0.3035998046398163,-0.051159925758838654,-0.7210494875907898
1725891807744297000,15.832296875,-0.2770271897315979,-0.09361502528190613,-0.8872047066688538
1725891807763146200,15.851146240234375,-0.2507599890232086,-0.1724165827035904,-0.9333250522613525
1725891807781995300,15.869995361328124,-0.2003636509180069,-0.23655737936496735,-0.9006437659263611
1725891807800844500,15.888844482421876,-0.10354158282279968,-0.30344706773757935,-0.9238566160202026
1725891807819693600,15.907693603515625,-0.09132428467273712,-0.3052796721458435,-1.0900118350982666
1725891807838542800,15.92654296875,-0.05039634555578232,-0.3831649422645569,-1.3383283615112305
1725891807857392000,15.94539208984375,0.0030543238390237093,-0.5395463109016418,-1.5490766763687134
1725891807876241200,15.9642412109375,-0.03909534588456154,-0.634230375289917,-1.5909209251403809
1725891807895090400,15.98309033203125,-0.11148282140493393,-0.9589049816131592,-1.5890883207321167
1725891807913939500,16.001939453125,-0.19272783398628235,-1.254563570022583,-1.703320026397705
1725891807932788700,16.020788818359375,-0.2657261788845062,-1.3413063287734985,-1.8016693592071533
1725891807951637800,16.0396376953125,-0.39248061180114746,-1.5263984203338623,-1.861228585243225
1725891807970487000,16.058487060546874,-0.516791582107544,-1.6772819757461548,-1.993786334991455
1725891807989336000,16.077336181640625,-0.528092622756958,-1.6668972969055176,-1.9207879304885864
1725891808008185300,16.096185302734376,-0.5238165259361267,-1.6662863492965698,-1.724089503288269
1725891808027034600,16.11503466796875,-0.546113133430481,-1.5880956649780273,-1.6016111373901367
1725891808045883600,16.133883544921876,-0.5155698657035828,-1.149800181388855,-1.4299581050872803
1725891808064733000,16.15273291015625,-0.4877755343914032,-0.8639155030250549,-1.350851058959961
1725891808083582000,16.17158203125,-0.5653553605079651,-0.5734493136405945,-1.2485312223434448
1725891808102431200,16.19043115234375,-0.6053670048713684,-0.25060728192329407,-1.0500001907348633
1725891808121280300,16.2092802734375,-0.618806004524231,0.052076224237680435,-0.7555633783340454
1725891808140129500,16.228129638671874,-0.6239983439445496,0.4350884258747101,-0.3410916328430176
1725891808158978600,16.246978515625,-0.49663305282592773,0.6363683938980103,0.005268708802759647
1725891808177827800,16.265827880859376,-0.32162031531333923,0.7066178321838379,0.2202931046485901
1725891808196677000,16.284677001953124,-0.13225223124027252,0.9005674123764038,0.45761406421661377
1725891808215526100,16.303526123046876,0.06047561392188072,1.0270164012908936,0.6967676281929016
1725891808234375400,16.32237548828125,0.16646064817905426,1.1143701076507568,0.9835686683654785
1725891808253224400,16.341224365234375,0.35185810923576355,1.263115644454956,1.2389100790023804
1725891808272073700,16.36007373046875,0.5842921733856201,1.3037381172180176,1.3247365951538086
1725891808290922800,16.3789228515625,0.7938187718391418,1.4311034679412842,1.4203369617462158
1725891808309772000,16.39777197265625,0.9999856352806091,1.3956732749938965,1.4722604751586914
1725891808328621000,16.41662109375,1.063515543937683,1.4723368883132935,1.8280892372131348
1725891808347470300,16.43547021484375,1.117882490158081,1.3345868587493896,1.9835542440414429
1725891808366319400,16.4543193359375,1.1575887203216553,1.0902409553527832,2.155512809753418
1725891808385168600,16.473168701171875,1.1774418354034424,0.7707586288452148,2.307007312774658
1725891808404017700,16.492017578125,1.1398736238479614,0.5273290276527405,2.412992238998413
1725891808422867000,16.510866943359375,0.8909462690353394,0.19654574990272522,2.3864195346832275
1725891808441716000,16.529716064453126,0.5549706816673279,0.2234237939119339,2.265162944793701
1725891808460565200,16.548565185546874,0.31459537148475647,0.4500546157360077,1.9921064376831055
1725891808479414300,16.567414306640625,0.2528980076313019,0.47296205163002014,1.5177699327468872
1725891808498263600,16.586263671875,0.250149130821228,0.43203410506248474,1.0495420694351196
1725891808517112800,16.60511279296875,0.20616686344146729,0.3675878942012787,0.6436223983764648
1725891808535961900,16.6239619140625,0.09804379940032959,0.2741255760192871,0.3843103051185608
1725891808554811100,16.64281103515625,-0.029016077518463135,0.2542724609375,0.2141844630241394
1725891808573660200,16.66166015625,-0.06352993845939636,0.2176205813884735,0.02084576152265072
1725891808592509400,16.680509521484375,-0.10231985151767731,0.14706569910049438,-0.28153231739997864
1725891808611358500,16.6993583984375,-0.16157373785972595,0.05604684352874756,-0.5640572905540466
1725891808630207700,16.718207763671874,-0.20922118425369263,-0.0642935186624527,-0.7622829079627991
1725891808649056800,16.737056884765625,-0.2205221801996231,-0.3000873327255249,-0.8566614985466003
1725891808667906000,16.755906005859377,-0.23884813487529755,-0.3611738085746765,-0.9528726935386658
1725891808686755000,16.774755126953124,-0.24342961609363556,-0.33887723088264465,-1.0054070949554443
1725891808705604400,16.793604248046876,-0.20708316564559937,-0.37369653582572937,-1.0680207014083862
1725891808724453400,16.812453369140623,-0.12064579129219055,-0.4430296719074249,-1.1116975545883179
1725891808743302700,16.831302734375,0.004581485874950886,-0.5386300086975098,-1.1480439901351929
1725891808762151700,16.850151611328126,0.051618073135614395,-0.6375901103019714,-1.279685378074646
1725891808781001000,16.8690009765625,-0.029016077518463135,-0.7276926636695862,-1.4418699741363525
1725891808799850200,16.887850341796874,-0.13164135813713074,-0.772591233253479,-1.5667917728424072
1725891808818699300,16.90669921875,-0.19608759880065918,-0.9582940936088562,-1.592753529548645
1725891808837548300,16.92554833984375,-0.25900667905807495,-1.2078323364257812,-1.630627155303955
1725891808856397600,16.9443974609375,-0.3344484567642212,-1.5370885133743286,-1.7360013723373413
1725891808875246600,16.96324658203125,-0.4563159942626953,-1.8400774002075195,-1.9617159366607666
1725891808894096000,16.982095947265623,-0.5464185476303101,-2.003178358078003,-2.0417392253875732
1725891808912945000,17.00094482421875,-0.5384773015975952,-1.7044655084609985,-1.8661155700683594
1725891808931794200,17.019794189453126,-0.536339282989502,-1.5428917407989502,-1.7024037837982178
1725891808950643500,17.0386435546875,-0.5232056975364685,-1.4048362970352173,-1.510286808013916
1725891808969492500,17.057492431640625,-0.581848680973053,-1.3758201599121094,-1.5075379610061646
1725891808988341500,17.076341552734377,-0.6685914993286133,-0.9659299254417419,-1.314504623413086
1725891809007190800,17.095190673828125,-0.7480039000511169,-0.7108938694000244,-1.0784053802490234
1725891809026039800,17.114039794921876,-0.7302888631820679,-0.29275694489479065,-0.7818305492401123
1725891809044889000,17.13288916015625,-0.6255255341529846,0.04810560122132301,-0.44157886505126953
1725891809063738400,17.15173828125,-0.4718930423259735,0.43661558628082275,-0.13339759409427643
1725891809082587400,17.17058740234375,-0.3283398151397705,0.6171261668205261,0.08804088830947876
1725891809101436700,17.189436767578126,-0.26969680190086365,0.7851139307022095,0.4099666178226471
1725891809120285700,17.20828564453125,-0.16004657745361328,0.938746452331543,0.7157044410705566
1725891809139134700,17.227134765625,-0.05039634555578232,1.1681262254714966,0.9963968396186829
1725891809157984000,17.24598388671875,0.12553271651268005,1.4130829572677612,1.2300525903701782
1725891809176833000,17.2648330078125,0.34147340059280396,1.5709915161132812,1.4230858087539673
1725891809195682300,17.283682373046876,0.5232056975364685,1.6592614650726318,1.5626684427261353
1725891809214531600,17.302531494140624,0.6969966888427734,1.6354377269744873,1.6946152448654175
1725891809233380600,17.321380615234375,0.7812960743904114,1.5679371356964111,2.091372013092041
1725891809252229600,17.340229736328126,0.8915571570396423,1.446069598197937,2.339383125305176
1725891809271079000,17.359078857421874,1.0134246349334717,1.1476621627807617,2.446589708328247
1725891809289928000,17.377927978515626,1.0677915811538696,0.7118101716041565,2.49606990814209
1725891809308777200,17.396777099609373,1.0604612827301025,0.597273051738739,2.4811036586761475
1725891809327626500,17.41562646484375,0.9135482907295227,0.4641045033931732,2.348546028137207
1725891809346475500,17.4344755859375,0.5778780579566956,0.26618432998657227,2.1436009407043457
1725891809365324500,17.453324462890624,0.3610210716724396,0.29672756791114807,1.9184972047805786
1725891809384173800,17.472173828125,0.34727662801742554,0.3782780170440674,1.5956552028656006
1725891809403022800,17.49102294921875,0.39889469742774963,0.42745262384414673,1.245935082435608
1725891809421872000,17.5098720703125,0.2614501118659973,0.3633118271827698,0.8989638686180115
1725891809440721200,17.52872119140625,0.08582650125026703,0.295811265707016,0.5522981286048889
1725891809459570400,17.5475703125,-0.006108647678047419,0.346513032913208,0.2716057598590851
1725891809478419500,17.56641943359375,-0.03237583488225937,0.19868376851081848,0.09292780607938766
1725891809497268700,17.585268798828125,-0.10018182545900345,0.1052214577794075,-0.1398116797208786
1725891809516117800,17.60411767578125,-0.15027274191379547,0.046883873641490936,-0.37835437059402466
1725891809534967000,17.622967041015624,-0.2214384824037552,0.013897174037992954,-0.6462185978889465
1725891809553816000,17.641816162109375,-0.2776380479335785,-0.023365577682852745,-0.8032108545303345
1725891809572665300,17.660665283203127,-0.27000224590301514,-0.14370593428611755,-0.8129846453666687
1725891809591514400,17.679514404296874,-0.25442516803741455,-0.1418733447790146,-0.8450550436973572
1725891809610363600,17.69836376953125,-0.24923282861709595,-0.07803797721862793,-0.8200095891952515
1725891809629212700,17.717212646484374,-0.20280711352825165,-0.08414662629365921,-0.8502474427223206
1725891809648061700,17.736061767578125,-0.14019346237182617,-0.2133445292711258,-1.0164026021957397
1725891809666911000,17.754910888671876,-0.06352993845939636,-0.3605629503726959,-1.2610539197921753
1725891809685760000,17.773760009765624,-0.08552107214927673,-0.5160280466079712,-1.3377175331115723
1725891809704609300,17.792609375,-0.19181154668331146,-0.7515164017677307,-1.3581814765930176
1725891809723458300,17.811458251953123,-0.21930044889450073,-0.9216422438621521,-1.4565306901931763
1725891809742307600,17.8303076171875,-0.16279546916484833,-1.1485785245895386,-1.5603777170181274
1725891809761156600,17.849156494140626,-0.19211697578430176,-1.3547453880310059,-1.6739985942840576
1725891809780006000,17.868005859375,-0.37843072414398193,-1.5205951929092407,-1.7760130167007446
1725891809798855000,17.88685498046875,-0.5103775262832642,-1.4961605072021484,-1.8471786975860596
1725891809817704200,17.9057041015625,-0.46975502371788025,-1.6140574216842651,-1.925369381904602
1725891809836553200,17.92455322265625,-0.3943132162094116,-1.5190680027008057,-1.8129702806472778
1725891809855402500,17.943402587890624,-0.4120282828807831,-1.4445425271987915,-1.6278783082962036
1725891809874251500,17.96225146484375,-0.43982264399528503,-1.3489421606063843,-1.4980695247650146
1725891809893100500,17.9811005859375,-0.4630354940891266,-1.218522548675537,-1.399720311164856
1725891809911949800,17.99994970703125,-0.48044514656066895,-0.7854194045066833,-1.1788926124572754
1725891809930799000,18.018799072265626,-0.4929678738117218,-0.5080868005752563,-1.0020473003387451
1725891809949648100,18.037648193359374,-0.4682278633117676,-0.0850629210472107,-0.799240231513977
1725891809968497200,18.0564970703125,-0.45417797565460205,-0.010537417605519295,-0.6208676695823669
1725891809987346400,18.075346435546876,-0.44868019223213196,0.19837833940982819,-0.2729802131652832
1725891810006195500,18.094195556640624,-0.406530499458313,0.44669488072395325,0.06085740402340889
1725891810025044500,18.11304443359375,-0.23945899307727814,0.6345357894897461,0.2926805913448334
1725891810043893800,18.131893798828123,-0.0412333719432354,0.7783944606781006,0.49945831298828125
1725891810062743000,18.150742919921875,0.11331541836261749,0.856279730796814,0.7489965558052063
1725891810081592000,18.169592041015626,0.17776164412498474,1.0450369119644165,1.0110576152801514
1725891810100441000,18.188441162109374,0.277332603931427,1.2676970958709717,1.264566421508789
1725891810119290400,18.207290283203125,0.45051276683807373,1.4039199352264404,1.4536291360855103
1725891810138139400,18.226139404296877,0.6630937457084656,1.5474731922149658,1.5648064613342285
1725891810156988700,18.24498876953125,0.870482325553894,1.6433789730072021,1.6075670719146729
1725891810175837700,18.263837646484376,0.9608902931213379,1.465311884880066,1.8067089319229126
1725891810194687000,18.28268701171875,0.9654718041419983,1.3742930889129639,2.1130576133728027
1725891810213536000,18.301535888671875,0.9993748068809509,1.131474256515503,2.261497735977173
1725891810232385000,18.320385009765626,0.9993748068809509,0.7136427760124207,2.286543130874634
1725891810251234300,18.339234375,0.9233221411705017,0.5795579552650452,2.3363287448883057
1725891810270083300,18.358083251953126,0.7134900689125061,0.3727802336215973,2.351600408554077
1725891810288932600,18.3769326171875,0.5027416944503784,0.3156643807888031,2.2407283782958984
1725891810307781600,18.39578173828125,0.347582072019577,0.28695371747016907,1.9774456024169922
1725891810326630700,18.414630615234376,0.2260199636220932,0.24785839021205902,1.5018874406814575
1725891810345480000,18.43347998046875,0.09834922850131989,0.18677189946174622,1.1118502616882324
1725891810364329000,18.452328857421875,0.05406153202056885,0.09636391699314117,0.7856484651565552
1725891810383178200,18.47117822265625,0.007024944759905338,0.14889828860759735,0.5309178233146667
1725891810402027300,18.49002734375,-0.06872228533029556,0.1052214577794075,0.32902705669403076
1725891810420876500,18.50887646484375,-0.20769402384757996,0.007177661173045635,0.09170607477426529
1725891810439725600,18.5277255859375,-0.3042106628417969,-0.08078686892986298,-0.21036656200885773
1725891810458574600,18.54657470703125,-0.35735589265823364,-0.1455385386943817,-0.5225184559822083
1725891810477423900,18.565423828125,-0.3643808364868164,-0.23075416684150696,-0.7045561671257019
1725891810496273000,18.58427294921875,-0.3494146466255188,-0.22189663350582123,-0.7512873411178589
1725891810515122200,18.6031220703125,-0.33658650517463684,-0.17974695563316345,-0.6905062794685364
1725891810533971200,18.62197119140625,-0.34574946761131287,-0.21639885008335114,-0.6239219903945923
1725891810552820200,18.6408203125,-0.34636032581329346,-0.19349141418933868,-0.7445678114891052
1725891810571669500,18.65966943359375,-0.28527384996414185,-0.1611155867576599,-0.9785290360450745
1725891810590518800,18.678518798828126,-0.24953825771808624,-0.18402300775051117,-1.1538472175598145
1725891810609367800,18.697367919921874,-0.1380554437637329,-0.40057456493377686,-1.2082141637802124
1725891810628216800,18.716216796875,-0.05436696484684944,-0.6125446557998657,-1.1743111610412598
1725891810647065900,18.73506591796875,-0.10109812021255493,-0.7072287201881409,-1.1901936531066895
1725891810665915100,18.7539150390625,-0.21410810947418213,-0.8046616315841675,-1.4925717115402222
1725891810684764400,18.772764404296876,-0.27855435013771057,-0.9118683934211731,-1.7259221076965332
1725891810703613400,18.791613525390623,-0.3182605504989624,-1.0377064943313599,-1.7198134660720825
1725891810722462500,18.81046240234375,-0.3802633285522461,-1.1852303743362427,-1.7613521814346313
1725891810741311700,18.829311767578126,-0.5290089249610901,-1.3761255741119385,-1.8716133832931519
1725891810760160800,18.848160888671874,-0.5516108870506287,-1.6479604244232178,-1.946138858795166
1725891810779009800,18.867009765625,-0.5451968312263489,-1.4436261653900146,-1.7164536714553833
1725891810797859000,18.885859130859377,-0.4465421438217163,-1.3758201599121094,-1.5777873992919922
1725891810816708000,18.9047080078125,-0.41416633129119873,-1.4039199352264404,-1.5793144702911377
1725891810835557400,18.923557373046876,-0.4156934916973114,-1.0352630615234375,-1.4388155937194824
1725891810854406400,18.942406494140624,-0.4263836145401001,-0.7270817756652832,-1.2922080755233765
1725891810873255400,18.96125537109375,-0.5119046568870544,-0.4390590488910675,-1.179198145866394
1725891810892104700,18.980104736328126,-0.5696313977241516,-0.015729768201708794,-0.9479857683181763
1725891810910953700,18.99895361328125,-0.4987711012363434,0.22434009611606598,-0.6471349000930786
1725891810929802800,19.017802734375,-0.3738492429256439,0.505032479763031,-0.2738964855670929
1725891810948652000,19.036652099609373,-0.2816086709499359,0.6846266984939575,0.02084576152265072
1725891810967501000,19.0555009765625,-0.1337793916463852,0.8516982197761536,0.3226129710674286
1725891810986350300,19.074350341796876,0.07635809481143951,0.9500474333763123,0.5409971475601196
1725891811005199400,19.093199462890624,0.16004657745361328,1.0502293109893799,0.792062520980835
1725891811024048400,19.11204833984375,0.19914191961288452,1.0554215908050537,1.1011601686477661
1725891811042897700,19.130897705078127,0.3347539007663727,1.2102758884429932,1.3513092994689941
1725891811061746700,19.14974658203125,0.5891790986061096,1.3266456127166748,1.4624866247177124
1725891811080596000,19.168595947265626,0.7904590368270874,1.3687952756881714,1.5877139568328857
1725891811099445000,19.187445068359374,0.9392045736312866,1.4445425271987915,1.7899101972579956
1725891811118294000,19.2062939453125,1.0338886976242065,1.1491893529891968,1.8152610063552856
1725891811137143300,19.225143310546876,1.0118975639343262,1.182176113128662,2.052276611328125
1725891811155992300,19.243992431640624,1.028085470199585,0.9311106204986572,2.13291072845459
1725891811174841600,19.262841552734375,0.9944878816604614,0.7151699662208557,2.2572216987609863
1725891811193690600,19.281690673828123,0.9483675956726074,0.6446150541305542,2.395277261734009
1725891811212539600,19.30053955078125,0.7825177907943726,0.22128576040267944,2.3216679096221924
1725891811231388700,19.319388671875,0.526565432548523,0.19379685819149017,2.1768929958343506
1725891811250238000,19.338238037109374,0.3179551064968109,0.3058905303478241,1.969809889793396
1725891811269087000,19.3570869140625,0.328645259141922,0.3266599476337433,1.5941280126571655
1725891811287936300,19.375936279296877,0.4523453712463379,0.12324196845293045,1.2257765531539917
1725891811306785300,19.394785400390624,0.40347617864608765,0.07589995115995407,0.829936146736145
1725891811325634300,19.41363427734375,0.15241076052188873,0.05024362727999687,0.5015963315963745
1725891811344483600,19.432483642578124,-0.09071341902017593,0.06673697382211685,0.22701261937618256
1725891811363332600,19.45133251953125,-0.18784092366695404,0.1314886510372162,0.018402300775051117
1725891811382182000,19.470181884765626,-0.19883649051189423,0.05849030241370201,-0.13584105670452118
1725891811401031000,19.489031005859374,-0.21807873249053955,0.208152174949646,-0.36796966195106506
1725891811419880000,19.5078798828125,-0.1802051067352295,0.01908952370285988,-0.5362629294395447
1725891811438729000,19.52672900390625,-0.18814635276794434,-0.0795651376247406,-0.7128028273582458
1725891811457578200,19.545578125,-0.22418737411499023,-0.0010690133785828948,-0.8563560843467712
1725891811476427300,19.56442724609375,-0.17653992772102356,-0.05299251899123192,-0.9876919984817505
1725891811495276500,19.583276611328124,-0.15149445831775665,-0.08231402933597565,-0.9858593940734863
1725891811514125600,19.60212548828125,-0.1585194170475006,0.011148282326757908,-1.0078505277633667
1725891811532974600,19.620974609375,-0.1747073233127594,-0.07803797721862793,-1.0982584953308105
1725891811551824000,19.639823974609374,-0.11148282140493393,-0.37033677101135254,-1.1889718770980835
1725891811570673000,19.6586728515625,-0.03940077871084213,-0.5193877816200256,-1.2757147550582886
1725891811589522000,19.67752197265625,0.02871064469218254,-0.7316632866859436,-1.4223222732543945
1725891811608371200,19.69637109375,-0.03329212963581085,-0.7292198538780212,-1.4867684841156006
1725891811627220200,19.71522021484375,-0.10079269111156464,-0.9369138479232788,-1.5793144702911377
1725891811646069500,19.734069580078124,-0.25411975383758545,-1.2221877574920654,-1.695989727973938
1725891811664918500,19.75291845703125,-0.4269944727420807,-1.4072797298431396,-1.761963129043579
1725891811683767600,19.771767578125,-0.5528326034545898,-1.5221222639083862,-1.7802890539169312
1725891811702616600,19.790616455078126,-0.481361448764801,-1.7175990343093872,-1.8505384922027588
1725891811721465900,19.8094658203125,-0.4251618981361389,-1.623220443725586,-1.7894519567489624
1725891811740315000,19.82831494140625,-0.3842339515686035,-1.4592032432556152,-1.5771764516830444
1725891811759164000,19.847163818359373,-0.3756818473339081,-1.5596904754638672,-1.6251293420791626
1725891811778013200,19.86601318359375,-0.4718930423259735,-1.50196373462677,-1.4913500547409058
1725891811796862200,19.8848623046875,-0.4929678738117218,-0.893542468547821,-1.1917208433151245
1725891811815711500,19.90371142578125,-0.4712821841239929,-0.39477136731147766,-1.0906226634979248
1725891811834560500,19.922560546875,-0.5180133581161499,-0.28298309445381165,-1.0350340604782104
1725891811853409500,19.941409423828127,-0.5558869242668152,0.025503603741526604,-0.7265473008155823
1725891811872258600,19.960258544921874,-0.5369501113891602,0.21578797698020935,-0.40034550428390503
1725891811891107800,19.97910791015625,-0.4838049113750458,0.40088000893592834,-0.05826122686266899
1725891811909956900,19.997956787109374,-0.39767298102378845,0.4747946560382843,0.12896881997585297
1725891811928806000,20.016805908203125,-0.31612253189086914,0.6265945434570312,0.4148535430431366
1725891811947655200,20.0356552734375,-0.0717766135931015,0.9268345832824707,0.7123447060585022
1725891811966504700,20.054504638671876,0.1386663019657135,1.1934770345687866,0.9649372696876526
1725891811985353500,20.073353515625,0.1795942485332489,1.169653296470642,1.2599849700927734
1725891812004202500,20.092202392578123,0.17653992772102356,1.2863285541534424,1.5776346921920776
1725891812023051500,20.111051513671875,0.3393353819847107,1.4271328449249268,1.6500221490859985
1725891812041900500,20.129900634765626,0.5494728684425354,1.623525857925415,1.682092547416687
1725891812060749800,20.148749755859374,0.7672461867332458,1.5621339082717896,1.8326706886291504
1725891812079598800,20.167598876953125,0.7971785664558411,1.2967132329940796,2.086484909057617
1725891812098448000,20.18644775390625,0.8112284541130066,1.2457059621810913,2.348851442337036
1725891812117297000,20.205296875,0.84177166223526,0.9106466770172119,2.2831835746765137
1725891812136146200,20.224146240234376,0.7898481488227844,0.7884737253189087,2.3549599647521973
1725891812154995200,20.2429951171875,0.739757239818573,0.7124210596084595,2.3296091556549072
1725891812173844500,20.261844482421875,0.5626064538955688,0.4689914286136627,2.2321763038635254
1725891812192693500,20.280693603515626,0.49144071340560913,0.31810784339904785,2.0928990840911865
1725891812211542500,20.29954248046875,0.5717694163322449,0.16600249707698822,1.7941862344741821
1725891812230391800,20.318391845703125,0.5259546041488647,0.3938550651073456,1.4001784324645996
1725891812249240800,20.33724072265625,0.33689191937446594,0.3572031855583191,1.0831396579742432
1725891812268089900,20.35608984375,0.2629773020744324,0.25274530053138733,0.7294489145278931
1725891812286939000,20.37493896484375,0.20189081132411957,0.3303251266479492,0.4924333691596985
1725891812305788200,20.3937880859375,0.10384701192378998,0.2897026240825653,0.35498878359794617
1725891812324637200,20.41263720703125,-0.06444623321294785,0.21975859999656677,0.1582903414964676
1725891812343486200,20.431486328125,-0.18325942754745483,0.18982623517513275,-0.10102175921201706
1725891812362335200,20.450335205078126,-0.2926042377948761,0.19043709337711334,-0.38293585181236267
1725891812381184500,20.4691845703125,-0.3536907136440277,0.01206457894295454,-0.5878809690475464
1725891812400033500,20.488033447265625,-0.35155269503593445,-0.03191768378019333,-0.7528144717216492
1725891812418882600,20.506882568359377,-0.30115634202957153,-0.1718057245016098,-0.8361974954605103
1725891812437731800,20.52573193359375,-0.35705047845840454,0.009315688163042068,-0.8988111615180969
1725891812456580900,20.544580810546876,-0.33047783374786377,0.016035201027989388,-0.8276454210281372
1725891812475430100,20.56343017578125,-0.2309068888425827,-0.19685117900371552,-0.9287435412406921
1725891812494279200,20.582279052734375,-0.18753549456596375,-0.12446369975805283,-1.113530158996582
1725891812513128200,20.601128173828126,-0.05436696484684944,-0.4500546157360077,-1.2622756958007812
1725891812531977200,20.619977294921874,-0.032681263983249664,-0.5590940117835999,-1.4895174503326416
1725891812550826500,20.638826416015625,-0.15607595443725586,-0.6052142977714539,-1.585728645324707
1725891812569675500,20.657675537109377,-0.2779434621334076,-0.8801034092903137,-1.5353323221206665
1725891812588524500,20.676524658203125,-0.2886336147785187,-1.1546871662139893,-1.500207543373108
1725891812607373600,20.69537353515625,-0.21807873249053955,-1.3501639366149902,-1.5936698913574219
1725891812626222800,20.714222900390624,-0.2712239623069763,-1.35657799243927,-1.6055817604064941
1725891812645072000,20.73307177734375,-0.3503309488296509,-1.333975911140442,-1.6730822324752808
1725891812663921000,20.7519208984375,-0.282524973154068,-1.5022692680358887,-1.7677663564682007
1725891812682770000,20.77077001953125,-0.24862197041511536,-1.715766429901123,-1.8105268478393555
1725891812701619200,20.789619140625,-0.2929096519947052,-1.6006184816360474,-1.6269619464874268
1725891812720468200,20.80846826171875,-0.30115634202957153,-1.328478217124939,-1.5157846212387085
1725891812739317200,20.827317138671877,-0.324063777923584,-1.2686134576797485,-1.4944043159484863
1725891812758166300,20.846166259765624,-0.34788748621940613,-1.0135773420333862,-1.3169480562210083
1725891812777015600,20.865015625,-0.4001164436340332,-0.4289797842502594,-1.0921498537063599
1725891812795864600,20.883864501953123,-0.4523453712463379,-0.36453354358673096,-0.9950223565101624
1725891812814713600,20.902713623046875,-0.5106829404830933,-0.07131846249103546,-0.7305179238319397
1725891812833563000,20.92156298828125,-0.4874700903892517,0.15989385545253754,-0.46143198013305664
1725891812852412000,20.940411865234374,-0.42882707715034485,0.32421648502349854,-0.20731224119663239
1725891812871261000,20.959260986328125,-0.21258094906806946,0.58749920129776,0.07399099320173264
1725891812890110000,20.97810986328125,-0.11636973917484283,0.6290380358695984,0.31528258323669434
1725891812908959200,20.996959228515625,-0.08399390429258347,0.6574432253837585,0.5642099976539612
1725891812927808300,21.015808349609376,-0.019242240116000175,0.8410080671310425,0.8045852780342102
1725891812946657300,21.0346572265625,0.06719512492418289,1.068860650062561,0.9954805374145508
1725891812965506300,21.05350634765625,0.1893680840730667,1.2295180559158325,1.2511274814605713
1725891812984355600,21.07235546875,0.44837474822998047,1.3327542543411255,1.4655410051345825
1725891813003204600,21.09120458984375,0.5821541547775269,1.3254238367080688,1.5070797204971313
1725891813022053600,21.1100537109375,0.6429351568222046,1.4595086574554443,1.6552144289016724
1725891813040902700,21.128902587890625,0.8005383014678955,1.4298816919326782,1.8207588195800781
1725891813059752000,21.147751953125,0.8817833065986633,1.1953096389770508,1.9001712799072266
1725891813078601000,21.16660107421875,0.9447023868560791,1.1363612413406372,2.0812926292419434
1725891813097450000,21.185449951171876,0.9828814268112183,0.826958179473877,2.0651047229766846
1725891813116299000,21.204299072265623,0.8579595685005188,0.6806560754776001,2.18025279045105
1725891813135148300,21.223148193359375,0.6441569328308105,0.5755873322486877,2.1790311336517334
1725891813153997300,21.241997314453126,0.4324922561645508,0.34406960010528564,2.060523271560669
1725891813172846300,21.260846435546874,0.2828303873538971,0.2738201320171356,1.8250348567962646
1725891813191695400,21.2796953125,0.18784092366695404,0.44180795550346375,1.6665154695510864
1725891813210544600,21.298544677734377,0.2556469142436981,0.2753472924232483,1.4255293607711792
1725891813229393700,21.3173935546875,0.14996729791164398,0.2860374450683594,1.1032981872558594
1725891813248242700,21.33624267578125,0.07880155742168427,0.22647811472415924,0.8265764117240906
1725891813267091700,21.355091796875,0.0015271619195118546,0.24052800238132477,0.4554760456085205
1725891813285941000,21.37394091796875,-0.11514800786972046,0.30711227655410767,0.2722166180610657
1725891813304790000,21.3927900390625,-0.15210533142089844,0.14217877388000488,0.1378263682126999
1725891813323639000,21.41163916015625,-0.17623448371887207,0.10827577859163284,-0.04146244749426842
1725891813342488000,21.430488037109374,-0.2156352698802948,0.18280129134655,-0.28641921281814575
1725891813361337000,21.449337158203125,-0.2419024556875229,0.1314886510372162,-0.4996110200881958
1725891813380186400,21.468186279296877,-0.2614501118659973,0.14004075527191162,-0.7094430923461914
1725891813399035400,21.487035400390624,-0.22846342623233795,0.0948367565870285,-0.8575778007507324
1725891813417884400,21.505884521484376,-0.14813470840454102,-0.04627300798892975,-0.9253838062286377
1725891813436733400,21.5247333984375,-0.18203771114349365,-0.0019853105768561363,-0.9467640519142151
1725891813455582700,21.543582763671875,-0.23518294095993042,0.05635227635502815,-0.9513455629348755
1725891813474431700,21.562431640625,-0.22693626582622528,-0.020311253145337105,-1.0240384340286255
1725891813493280800,21.58128076171875,-0.09834922850131989,-0.19349141418933868,-1.1773655414581299
1725891813512129800,21.6001298828125,-0.008246674202382565,-0.41126471757888794,-1.3258056640625
1725891813530979000,21.61897900390625,0.01954767294228077,-0.5710058808326721,-1.4324015378952026
1725891813549828000,21.637828125,0.0054977829568088055,-0.7689260244369507,-1.4516438245773315
1725891813568677000,21.656677001953124,0.013744457624852657,-0.9195042252540588,-1.4800490140914917
1725891813587526400,21.6755263671875,0.018631376326084137,-1.1406372785568237,-1.5863394737243652
1725891813606375400,21.69437548828125,-0.12247838824987411,-1.3324488401412964,-1.7598251104354858
1725891813625224400,21.713224365234375,-0.3607156574726105,-1.4824161529541016,-1.8364886045455933
1725891813644073500,21.732073486328126,-0.42271843552589417,-1.7148501873016357,-1.8896338939666748
1725891813662922500,21.750922607421874,-0.36835145950317383,-1.7686063051223755,-1.9452224969863892
1725891813681771500,21.769771484375,-0.3909534513950348,-1.5163191556930542,-1.7027091979980469
1725891813700620800,21.788620849609377,-0.40775224566459656,-1.3785691261291504,-1.5811470746994019
1725891813719469800,21.8074697265625,-0.4059196412563324,-1.2881611585617065,-1.5151736736297607
1725891813738318800,21.82631884765625,-0.3909534513950348,-1.1265873908996582,-1.4815762042999268
1725891813757167900,21.84516796875,-0.38728827238082886,-0.893542468547821,-1.279379963874817
1725891813776017000,21.864016845703127,-0.46395179629325867,-0.5758927464485168,-1.0820705890655518
1725891813794866200,21.8828662109375,-0.4712821841239929,-0.2606865465641022,-0.8233693838119507
1725891813813715200,21.901715087890626,-0.43493571877479553,0.11866047978401184,-0.6651554107666016
1725891813832564200,21.920564208984374,-0.41783151030540466,0.32268932461738586,-0.3343721032142639
1725891813851413200,21.939413330078125,-0.3442223072052002,0.4237874448299408,0.07765618711709976
1725891813870262500,21.958262451171876,-0.22174391150474548,0.6586649417877197,0.3128391206264496
1725891813889111600,21.977111572265624,-0.04764745384454727,0.8849903345108032,0.48327040672302246
1725891813907960600,21.995960693359375,0.0766635313630104,1.0236566066741943,0.7300597429275513
1725891813926809600,22.0148095703125,0.17073670029640198,1.1116211414337158,1.0095304250717163
1725891813945658600,22.03365869140625,0.21471896767616272,1.2038617134094238,1.2471568584442139
1725891813964507600,22.052507568359374,0.3555232882499695,1.3205369710922241,1.385823130607605
1725891813983356700,22.071356689453125,0.536644697189331,1.3446661233901978,1.5333470106124878
1725891814002206000,22.0902060546875,0.6914989352226257,1.3400845527648926,1.727907419204712
1725891814046958600,22.13495849609375,0.9266818761825562,0.845894992351532,1.840001106262207
1725891814065807400,22.153807373046874,0.9462295174598694,0.8330668210983276,1.9914954900741577
1725891814084656600,22.17265673828125,0.8442151546478271,0.7389936447143555,2.1600942611694336
1725891814103505700,22.191505615234377,0.7867938280105591,0.6546943187713623,2.2303435802459717
1725891814122354700,22.210354736328124,0.6939423680305481,0.41034841537475586,2.1509313583374023
1725891814141203700,22.22920361328125,0.5760455131530762,0.2857320010662079,2.0006585121154785
1725891814160052700,22.248052734375,0.4312705397605896,0.42562004923820496,1.7844123840332031
1725891814178902000,22.266902099609375,0.38179048895835876,0.5300779342651367,1.5199079513549805
1725891814197751000,22.2857509765625,0.3597993552684784,0.38530296087265015,1.191873550415039
1725891814216600000,22.30460009765625,0.3182605504989624,0.31932955980300903,0.8681151866912842
1725891814235449000,22.323448974609374,0.2559523284435272,0.3559814393520355,0.6036107540130615
1725891814254298000,22.342298095703125,0.1178968995809555,0.2741255760192871,0.4148535430431366
1725891814273147100,22.361147216796876,0.0513126403093338,0.24663665890693665,0.2511417865753174
1725891814291996400,22.379996337890624,0.014049889519810677,0.07559451460838318,0.09903645515441895
1725891814310845400,22.398845458984376,-0.09529490768909454,0.17883066833019257,-0.13675735890865326
1725891814329694500,22.417694580078123,-0.14049890637397766,0.12202023714780807,-0.3493382930755615
1725891814348543500,22.43654345703125,-0.17165300250053406,-0.03436114266514778,-0.530154287815094
1725891814367392500,22.455392578125,-0.2009745091199875,-0.05513054504990578,-0.6871465444564819
1725891814386241500,22.474241455078126,-0.09590577334165573,-0.1980729103088379,-0.7622829079627991
1725891814405090800,22.4930908203125,-0.06841685622930527,-0.1870773434638977,-0.7830522656440735
1725891814423939800,22.51193994140625,-0.06230820715427399,-0.212733656167984,-0.7518981695175171
1725891814442788900,22.530788818359376,-0.07757982611656189,-0.30375251173973083,-0.816038966178894
1725891814461638000,22.549637939453124,-0.13011419773101807,-0.3513999581336975,-0.9956332445144653
1725891814480487000,22.56848681640625,-0.1178968995809555,-0.3630063831806183,-1.1575124263763428
1725891814499336000,22.5873359375,-0.02871064469218254,-0.471129447221756,-1.2063815593719482
1725891814518185200,22.606185302734374,0.05436696484684944,-0.735023021697998,-1.2723549604415894
1725891814537034200,22.6250341796875,0.034208428114652634,-0.8352048993110657,-1.4036909341812134
1725891814555883300,22.64388330078125,-0.06475166976451874,-0.9030108451843262,-1.4256820678710938
1725891814574732300,22.662732177734377,-0.13439024984836578,-1.0740530490875244,-1.5160900354385376
1725891814593581300,22.681581298828124,-0.24984370172023773,-1.172402262687683,-1.623602271080017
1725891814612430300,22.700430419921876,-0.4056142270565033,-1.384372353553772,-1.694462537765503
1725891814631279600,22.719279541015624,-0.5186241865158081,-1.4772237539291382,-1.7653228044509888
1725891814650128600,22.738128662109375,-0.5253437161445618,-1.4564543962478638,-1.787924885749817
1725891814668977700,22.756977783203126,-0.4819723069667816,-1.2957968711853027,-1.6260457038879395
1725891814687826700,22.77582666015625,-0.4557051360607147,-1.224936604499817,-1.5881720781326294
1725891814706675700,22.79467578125,-0.4728093445301056,-1.2017236948013306,-1.5240312814712524
1725891814725524700,22.813524658203125,-0.4825831651687622,-1.08810293674469,-1.48065984249115
1725891814744373800,22.832373779296876,-0.5387827157974243,-0.6830995678901672,-1.3389391899108887
1725891814763222800,22.851222900390624,-0.5907062292098999,-0.5517635941505432,-1.1770601272583008
1725891814782072000,22.870072021484376,-0.6432406306266785,-0.2750418782234192,-0.9870811104774475
1725891814800921000,22.888921142578123,-0.6395754218101501,-0.052687086164951324,-0.7207440733909607
1725891814819770000,22.90777001953125,-0.5485565662384033,0.19654574990272522,-0.37988153100013733
1725891814838619100,22.926619140625,-0.3500255048274994,0.43722647428512573,-0.12637265026569366
1725891814857468200,22.94546826171875,-0.25900667905807495,0.5905535221099854,0.09537126123905182
1725891814876317200,22.964317138671873,-0.10018182545900345,0.7200568318367004,0.3733147382736206
1725891814895166200,22.983166259765625,0.03909534588456154,0.7976366877555847,0.5522981286048889
1725891814914015500,23.002015380859376,0.18570289015769958,0.9350812435150146,0.7972549200057983
1725891814932864500,23.020864501953124,0.3549124300479889,1.0199915170669556,0.9982293844223022
1725891814951713500,23.039713623046875,0.4679224193096161,1.1042908430099487,1.162551999092102
1725891814970562600,23.0585625,0.6017017960548401,1.1287254095077515,1.3635265827178955
1725891814989411600,23.07741162109375,0.7867938280105591,1.1928662061691284,1.4747039079666138
1725891815008260600,23.096260498046874,0.9419534802436829,1.190422773361206,1.5730531215667725
1725891815027109600,23.115109619140625,0.9908226728439331,1.1018472909927368,1.7392083406448364
1725891815045958700,23.133958740234377,0.9731075763702393,0.9204205274581909,1.8955897092819214
1725891815064808000,23.152807861328125,0.9896009564399719,0.9088140726089478,1.996382474899292
1725891815083657000,23.171656982421876,0.9266818761825562,0.7127264738082886,2.061134099960327
1725891815102506000,23.190506103515624,0.8863648176193237,0.5337430834770203,2.119166374206543
1725891815121355000,23.20935498046875,0.7971785664558411,0.48792824149131775,2.1674246788024902
1725891815140204000,23.2282041015625,0.565049946308136,0.38041603565216064,2.1478769779205322
1725891815159053000,23.247052978515626,0.43493571877479553,0.3040579557418823,2.021427869796753
1725891815177902000,23.265902099609374,0.4312705397605896,0.2692386507987976,1.7538691759109497
1725891815196751000,23.284751220703125,0.3787361681461334,0.09941824525594711,1.4777582883834839
1725891815215600000,23.30360009765625,0.18570289015769958,0.08842267841100693,1.2468513250350952
1725891815234449400,23.322449462890624,0.033597562462091446,0.17638720571994781,0.9230930209159851
1725891815253298400,23.34129833984375,-0.0616973415017128,0.22159120440483093,0.5480220913887024
1725891815272147500,23.3601474609375,-0.11239911615848541,0.1611155867576599,0.28290674090385437
1725891815290996500,23.37899658203125,-0.12217295914888382,0.09636391699314117,0.13080142438411713
1725891815309845500,23.397845458984374,-0.16676609218120575,0.07254019379615784,-0.026190826669335365
1725891815328694500,23.416694580078126,-0.19364413619041443,-0.006872228812426329,-0.19845469295978546
1725891815347543600,23.43554345703125,-0.2107483446598053,-0.06307178735733032,-0.3804923892021179
1725891815366392600,23.454392578125,-0.2620609998703003,-0.1815795600414276,-0.5704713463783264
1725891815385241900,23.473241943359376,-0.3237583339214325,-0.22067490220069885,-0.7311288118362427
1725891815404091000,23.4920908203125,-0.3035998046398163,-0.31413722038269043,-0.7928261160850525
1725891815422940000,23.51093994140625,-0.23945899307727814,-0.5071704983711243,-0.7665589451789856
1725891815441789000,23.529788818359375,-0.29077163338661194,-0.5083922147750854,-0.7726675868034363
1725891815460638000,23.548637939453126,-0.3854556679725647,-0.4815141558647156,-0.8728494048118591
