time,seconds_elapsed,z,y,x
1725629615675190500,0.0161904296875,3.0597388682752844,-0.281464825540781,-0.32316998744588343
1725629615685144300,0.026144287109375,1.9346014506459235,-0.6143167239695787,-0.08636286260602064
1725629615695097300,0.036097412109375,-0.16662790152728557,-0.9416635952413082,0.2359667558924295
1725629615705050400,0.04605029296875,-1.6686095040470361,-0.7441372821033001,0.034785431944788434
1725629615715004400,0.05600439453125,-1.713136628037691,0.14979717823565006,-0.6911224618829787
1725629615724957400,0.06595751953125,-0.9305682007312774,1.310965109667182,-1.1993008243404328
1725629615734910500,0.075910400390625,0.8967197071433067,2.1456641217052934,-1.7276009144589304
1725629615744864500,0.085864501953125,3.007499562472105,2.872652116087079,-1.925216074924171
1725629615754817500,0.095817626953125,3.82999551101923,2.8352520674973722,-1.749067773118615
1725629615764771600,0.105771484375,3.242594266504049,1.9786171179831027,-0.5072932867186144
1725629615774724600,0.115724609375,1.9965631090402602,1.5470938329219817,1.6571297863945365
1725629615784677600,0.125677734375,1.9768062691688537,2.168222574993968,2.9209783400997518
1725629615794631400,0.13563134765625,1.6879004799723625,2.2584955511152742,2.7167528215840457
1725629615804584400,0.14558447265625,-1.514207462364435,0.8997948768049479,2.9556401958972214
1725629615814537200,0.155537109375,-2.044981395250559,0.35752865904569625,1.7407929889872669
1725629615824491500,0.165491455078125,0.8927356059432029,3.167307262590527,-2.2593496837265787
1725629615834444300,0.1754443359375,-0.11602759510278701,4.453327900615334,-1.2440871837891638
1725629615844397300,0.185397216796875,-1.1326660595685243,4.804903204214573,1.3230486384317277
1725629615854351400,0.195351318359375,-1.6659662960618733,5.373070755949616,-0.5923181695859879
1725629615864304400,0.205304443359375,-1.324700789552927,5.808035121375322,-2.088242590958625
1725629615874258200,0.215258056640625,-0.04477086961865425,6.589160948657989,-1.7156845589548348
1725629615884211200,0.225211181640625,1.6760370236992834,6.682291067776084,-0.4510133637551218
1725629615894164200,0.235164306640625,2.9577602567911145,4.874582305118441,-1.4663687296077608
1725629615904118300,0.2451181640625,3.606462649965286,2.6220868712008,-3.8681647904157637
1725629615914071300,0.2550712890625,3.3320448203265665,2.595124629995227,-4.12119671767652
1725629615924024300,0.2650244140625,3.4738112523198126,4.652738712325692,-1.9627926491245626
1725629615933978400,0.274978271484375,3.301280848750472,5.416923926201463,5.838542487841845
1725629615943931400,0.284931396484375,2.289382856810093,6.676618282836675,5.675279678833484
1725629615953884400,0.294884521484375,1.3427718682944774,9.071595603540539,-3.466894604799151
1725629615963838500,0.30483837890625,2.1217957548618314,5.31507975475192,-5.975649111330509
1725629615973791500,0.31479150390625,2.369242575466633,4.07490784471035,-4.189168430140614
1725629615983745300,0.324745361328125,2.880024690681696,5.796611810085177,-2.0883353838086127
1725629615993698300,0.3346982421875,3.297328896254301,6.3623927589446305,-0.8823743709266185
1725629616003651300,0.3446513671875,3.5024230142980812,6.423873940345644,-0.36846155647039414
1725629616013605400,0.35460546875,2.781985172212124,6.532199290508031,0.47623774831742044
1725629616023558400,0.364558349609375,2.6076801601856947,7.380415371245145,1.5806211317315697
1725629616033511400,0.374511474609375,2.741702846184373,7.9340388493210074,1.7405647331893443
1725629616043465500,0.384465576171875,3.0802883198291062,8.35698135304153,1.5734125155270098
1725629616053418500,0.39441845703125,3.094960403782129,8.92625423566997,0.8396335458308458
1725629616063371500,0.40437158203125,2.5547253995895383,8.562304603666067,-0.26143501394689084
1725629616073325300,0.4143251953125,1.7807716558933258,7.822179479813575,-1.692103192359209
1725629616083278300,0.4242783203125,1.7387322570651769,7.022533660978079,-2.7272125485390424
1725629616093232400,0.434232421875,2.4955676927000283,6.341340618565678,-3.1655501897901295
1725629616103185400,0.444185302734375,3.029707594887912,6.1009372867316,-3.3335517177581786
1725629616113138400,0.454138427734375,1.7649977481782435,5.723452465850115,-4.2082045545220375
1725629616123092500,0.464092529296875,-0.08081979586035012,8.267001222386956,-2.90761938457191
1725629616133045500,0.47404541015625,-2.861288718290627,3.3000299719065427,-5.097928703689575
1725629616142998500,0.48399853515625,-6.168239721632004,5.2683448915839195,-7.196577391719818
1725629616152952300,0.493952392578125,-9.88660324215889,7.460317175477742,-8.6622449873209
1725629616162905300,0.5039052734375,-13.082296641278266,5.514755939400196,-8.881857460060715
1725629616172858400,0.5138583984375,-13.125268352520465,0.8825428593613207,-12.094912912869452
1725629616182812400,0.5238125,-11.453258684641122,-1.8648389092423021,-14.660204130136966
1725629616192765400,0.533765380859375,-10.60632738301754,0.8784297249540686,-13.545306951493025
1725629616202719500,0.543719482421875,-8.79874370804429,-0.1498696589499712,-11.735575743097066
1725629616212672500,0.553672607421875,-7.663919593659043,-2.948666265231371,-10.46689786953926
1725629616222625500,0.56362548828125,-5.7175902958184475,-1.9431413154542445,-7.498958748561144
1725629616232579600,0.57357958984375,-6.0707046455532305,1.5549047989338636,-7.234321139180659
1725629616242532600,0.58353271484375,-6.588465367609262,0.7957365364372729,-7.296274029746651
1725629616252485400,0.5934853515625,-6.823733674642443,-1.6385726777017116,-6.141832191699743
1725629616262439400,0.603439453125,-6.235806360426545,-0.7578010657966137,-10.495948607456684
1725629616272392400,0.613392333984375,-9.28978242739141,2.4133546889156103,-9.867364288681745
1725629616282345200,0.62334521484375,-11.027914964997768,2.282466793811321,-7.57472038424909
1725629616292299500,0.633299560546875,-12.58198214406371,1.2558657382577656,-9.632081368601321
1725629616302252300,0.643252197265625,-4.252599576565623,-1.0917740772098303,-13.47796886075735
1725629616312206600,0.65320654296875,-6.174807409584522,-2.8364754718124865,-9.222114081788062
1725629616322159400,0.663159423828125,-7.833662412336468,-2.9283377629518506,-7.33555214716792
1725629616332112400,0.6731123046875,-4.367661249245703,-1.9787474663645028,-8.562195298072695
1725629616342066200,0.683066162109375,-4.521499811826646,-1.730384115436673,-8.63484610826373
1725629616352019200,0.693019287109375,-3.9127755010366436,-2.196872915416956,-8.063210003635287
1725629616361972200,0.70297216796875,-3.2459207805782553,-2.4106518596976994,-7.249643211475014
1725629616371926300,0.71292626953125,-3.220340933641791,-1.4722083955466747,-5.579806211459636
1725629616381879300,0.72287939453125,-3.7185640115350482,-0.6345879431039094,-3.8615319282725453
1725629616391833300,0.732833251953125,-4.762782556843757,-0.8837076653569936,-3.4504815223976966
1725629616401786400,0.742786376953125,-4.719420384979248,-1.5617518883496522,-3.246272078233957
1725629616411739400,0.752739501953125,-4.024433210492134,-2.064679198411107,-2.51344997087121
1725629616421693400,0.762693359375,-1.6800573652565478,-2.7815193082660437,-2.280593839546293
1725629616431646700,0.772646728515625,0.31505905210673807,-4.5510500236988065,-2.6883719457522033
1725629616441599700,0.782599853515625,2.6802032523438335,-5.541830993330478,-2.419779022874683
1725629616451553800,0.7925537109375,0.662121846717596,-4.759456042769551,0.13503610082492232
1725629616461506800,0.8025068359375,-10.414702402877808,-2.202742099711299,1.9315581374272703
1725629616471459800,0.8124599609375,-10.189065263020991,-2.272511801508069,0.3999098570488393
1725629616481414000,0.822413818359375,2.9492922881752253,-5.297720623672008,-1.2910687151946127
1725629616491367000,0.832366943359375,8.18499046317637,-8.221388056725264,-2.6344898411780595
1725629616501320000,0.84231982421875,11.990189971113205,-10.60198321633339,-6.048151452961564
1725629616511274000,0.85227392578125,7.805168723779916,-10.0007591981709,-6.273166077005863
1725629616521227000,0.86222705078125,3.0133710848540067,-7.81075675304532,-6.735508278700709
1725629616531180800,0.872180908203125,4.671120756712556,-8.266185814350843,-7.476338335952162
1725629616541133800,0.8821337890625,4.271303107991814,-8.28060889197886,-7.9615002722203725
1725629616551086800,0.8920869140625,2.676578339844942,-6.28646804164946,-5.6188131107240915
1725629616561041000,0.902041015625,2.662866625356674,-4.0967555193811656,-1.2469494413524866
1725629616570994000,0.911993896484375,3.2190947329729793,-4.9473845064789055,-0.1229134821590036
1725629616580947000,0.921947021484375,2.096464329728484,-3.194578131353855,0.03451134141087532
1725629616590901000,0.93190087890625,3.1261048991084097,-2.3005308582901955,1.1524483992073684
1725629616600854000,0.94185400390625,5.6683875812321896,-2.589488085412979,1.286184596414864
1725629616610807000,0.95180712890625,1.9720155277609823,-0.9339087433308363,0.4654056809186935
1725629616620760800,0.9617607421875,-2.1077800889909266,2.011175571760535,0.6068463880889118
1725629616630713900,0.9717138671875,-2.9956255848050115,2.990492313569784,0.28961744459718464
1725629616640668000,0.98166796875,-5.453659373402595,5.295501194056868,-1.6420133196748792
1725629616650621000,0.991620849609375,-4.159567657124996,5.024336228734255,-3.5487808608472347
1725629616660574000,1.001573974609375,-0.14970014760196207,3.1706933978974816,-1.2144530930258333
1725629616670528000,1.011528076171875,3.1631884290948507,2.5302432847619056,-0.25715295271351934
1725629616680481000,1.02148095703125,-0.13397913911789655,2.3047698110342023,-1.4395979193210602
1725629616690434000,1.03143408203125,1.4290958145290613,0.6024748950064182,-0.9097069067493081
1725629616700387800,1.041387939453125,0.3649976797521114,0.22077859390974044,-1.3829396280318498
1725629616710340900,1.0513408203125,-2.071810949987173,1.5481711067646742,-0.8757454543061554
1725629616720294000,1.0612939453125,-0.8142892612159252,1.0057868155837058,-0.14110738356262445
1725629616730248000,1.071248046875,-1.351853000372648,0.7898352034389973,-0.699878015268594
1725629616740201000,1.081200927734375,-1.580782752034068,0.3418874377995729,-1.0491009105227886
1725629616750155000,1.091155029296875,-0.6699947720497846,0.7238830141037702,-0.5731704745888709
1725629616760108000,1.10110791015625,-0.14284955105483532,0.5435609337449073,-0.031183804423362015
1725629616770060800,1.111060791015625,1.265372986793518,-0.8530909932971,-0.32833763587474823
1725629616780015000,1.12101513671875,2.6785212906062603,-1.6593530154019593,0.8118596959814429
1725629616789968000,1.1309677734375,1.4852207295939326,-1.1367495294898748,1.2643559187054634
1725629616799921000,1.1409208984375,2.674614930817485,-2.6335534371107814,-0.11804273431748151
1725629616809875000,1.150875,-0.6749211225360632,-0.8305769636720418,0.37113515959382054
1725629616819827700,1.16082763671875,-0.8506792559802532,-0.8184943116903305,0.7536264104604721
1725629616829782000,1.170781982421875,-0.49437867742478847,0.0633995822429657,0.8611524269387125
1725629616839734800,1.18073486328125,0.47553018456995483,-0.49267538063824173,0.8582192960962652
1725629616849687800,1.190687744140625,1.5394045935936271,-1.860524407044053,-1.4200111753195523
1725629616859641900,1.200641845703125,-0.7160579465012997,-2.4084756847023963,-1.1520631262168288
1725629616869595000,1.210594970703125,-3.1152345455259085,0.833840349382162,1.496971080881357
1725629616879548000,1.2205478515625,0.2398813537865877,1.9585224244594572,0.37356267900168894
1725629616889501700,1.230501708984375,0.290249020498991,4.0358401551693674,1.4489572838187217
1725629616899454700,1.240454833984375,-0.7618651734303683,1.2698428256839513,-1.0191761662498116
1725629616909408800,1.25040869140625,-0.569651068291068,3.349444867938757,0.6813494020178914
1725629616919361800,1.26036181640625,0.34602519519142805,1.7950369126111267,-0.22524755601733923
1725629616929314800,1.270314697265625,0.3855991537541151,4.679406354498863,0.15060527974814175
1725629616939268900,1.280268798828125,0.021312252619862554,4.018164797747135,0.6125432845562696
1725629616949222000,1.290221923828125,-0.9071288729548453,2.414485154250264,0.1350461838275194
1725629616959175000,1.3001748046875,-0.8631389245808124,4.6724341773986815,0.023266893818974493
1725629616969129000,1.31012890625,-0.48572658441364763,3.482792431154847,0.39464638356268406
1725629616979082000,1.32008203125,-0.4087790268767625,0.6661141312241554,0.15454846441596745
1725629616989035800,1.330035888671875,-0.6768512868810445,0.9122516227960586,-0.244580617518723
1725629616998988800,1.33998876953125,-0.7866308544397353,-0.14557517662644384,-0.3875198926836252
1725629617008941800,1.34994189453125,-0.7001303825944661,-0.5174637849360704,-0.44464492470175027
1725629617018896000,1.359895751953125,-0.774773827907443,-0.9070306732773781,-0.29603578720688817
1725629617028849000,1.369848876953125,-0.9085410778403281,-1.5107728117406367,-0.5261065255969762
1725629617038802000,1.379802001953125,-0.5644388866007328,-1.5669827747404574,0.39086043528318404
1725629617048756000,1.389755859375,0.09810147778987884,-2.03059981867671,0.9283701061651111
1725629617058709000,1.399708984375,0.16162260405328124,-3.667372168958187,-0.6576657440915703
1725629617068662800,1.409662841796875,-0.4487403773218393,-6.034947103473543,0.4036053505659103
1725629617078615800,1.41961572265625,-0.35480770964920516,-5.783585155251622,-0.6083835345283151
1725629617088568800,1.42956884765625,-0.3318067732900381,-4.869575875133275,-0.22774784840047357
1725629617098523000,1.43952294921875,-0.8943044626951218,-3.0696739868342875,-0.06582564034610987
1725629617108476000,1.449475830078125,-0.2815782227873802,-1.8251099793136119,0.7782429653227328
1725629617118429000,1.459428955078125,-0.22905540560139342,-1.4630676422357558,-0.16500263841301202
1725629617128383000,1.469383056640625,-0.5981131926655769,0.32877252016067504,-0.687657562251389
1725629617138336000,1.4793359375,-1.3659364707827568,-2.024476951882243,-1.629584192343056
1725629617148289800,1.489289794921875,-3.0886767934679984,-5.258051461106539,-3.5776194173187017
1725629617158242800,1.499242919921875,-0.7686310873687267,-0.4247416620969772,-0.4493845204442739
1725629617168195800,1.50919580078125,-0.8243243330180644,-0.875111101925373,0.5977350070029497
1725629617178150000,1.51914990234375,-2.2543536290049553,-0.5228267732739448,0.9970482133328914
1725629617188103000,1.52910302734375,-2.2307915516316887,0.5883826567679643,1.6752052490502596
1725629617198056000,1.539055908203125,-1.618430053383112,1.0004419474244117,0.9838953017711639
1725629617208010000,1.549010009765625,-1.5340473043441771,0.8839555026382208,0.08523498195409775
1725629617217963000,1.558962890625,-1.3852934976816176,0.9766723647803067,0.04834989714920521
1725629617227917000,1.5689169921875,-1.0250029727071523,1.9921289259850978,-0.2636766553938389
1725629617237870000,1.5788701171875,-0.8478735509097576,1.4030173704206943,-0.1430325064063072
1725629617247823000,1.588822998046875,-0.8094488354474305,0.9938771820813417,0.09621201078146696
1725629617257777000,1.59877685546875,-0.7522013460934162,1.1948147649675607,0.1266945350676775
1725629617267730000,1.60872998046875,-0.9898995106220245,1.47857676153481,0.5170008435994387
1725629617277682700,1.6186826171875,-0.8066541632276027,2.6024732391923666,0.9693813309893011
1725629617287637000,1.628636962890625,-0.6164993287056684,2.8595336913168428,0.1747439879655838
1725629617297589800,1.63858984375,-0.9087765670966357,4.186965951660275,-0.062301265612244604
1725629617307544000,1.6485439453125,0.2947605065740645,4.322197428926826,-0.016491992856562138
1725629617317496800,1.658496826171875,0.5637630331657827,4.271968878424167,0.2653855051383376
1725629617327449900,1.668449951171875,0.6114793085865676,4.177846825659275,0.05828823057860136
1725629617337403600,1.678403564453125,0.26329247838184233,3.7231063311398027,-0.11795680959969758
1725629617347356700,1.688356689453125,-0.09284311887025833,2.866003179591894,-0.4769666471138596
1725629617357311000,1.69831103515625,-0.7166366962373256,2.1689725165784357,-0.9285244199439883
1725629617367263700,1.708263671875,-0.9190659789860248,1.8718097711682318,-1.046326038981974
1725629617377216800,1.718216796875,-0.41211598927974696,2.05732532851696,-0.6615203736931086
1725629617387170800,1.7281708984375,-0.6646900897704064,3.735449679884314,0.697557024975121
1725629617397123800,1.738123779296875,-1.123908460356295,4.12764983933866,0.9031865650698542
1725629617407076900,1.748076904296875,-0.14061653130576013,2.6835955251306296,0.38240181901752945
1725629617417031000,1.758031005859375,0.640078503344208,0.5804430959403515,1.0669470944672823
1725629617426984000,1.76798388671875,1.000447938773781,1.1314940931797026,1.5122417152494192
1725629617436937700,1.777937744140625,0.9206605547010898,-0.3100081984579563,1.7592407920867204
1725629617446890800,1.787890869140625,0.7352326756358146,-2.0622645384848117,2.298195108819008
1725629617456843800,1.79784375,1.2803615893498062,-1.590712025374174,2.403725859826803
1725629617466797800,1.8077978515625,0.7568909652143716,-1.382312436044216,1.733487926670909
1725629617476750800,1.817750732421875,0.404917017686367,-0.8785808238625525,1.3183809388816357
1725629617486703900,1.827703857421875,0.9455354682385921,-0.7500245865762233,1.0389262841194868
1725629617496658000,1.837657958984375,1.1139286258727312,-0.7271113285005092,0.8241934001147747
1725629617506611000,1.84761083984375,0.9764104989737271,-0.8218301781147718,1.1537608700454234
1725629617516564700,1.857564697265625,1.1818921550303696,-0.9289321239620446,0.9061258333921431
1725629617526517800,1.867517822265625,0.8595134275600314,-0.8802280065476894,1.1165437768071889
1725629617536470800,1.877470703125,0.8278270804420113,-0.8220067037254571,1.1158914503782986
1725629617546424800,1.8874248046875,0.9875006327867507,-0.4933423201143741,0.6400070455431938
1725629617556377900,1.8973779296875,0.9327660030364989,-0.264170576390624,0.25679800179600715
1725629617566331000,1.907330810546875,0.910326207691431,-0.3390829017728567,-0.44363983931243417
1725629617576285000,1.917284912109375,1.0073889900833368,0.09356383436024189,-1.021068555867672
1725629617586238000,1.927238037109375,0.7032759871438146,0.23910043254196642,-1.2737252200752496
1725629617596192000,1.93719189453125,0.5003174198240041,0.1511976926833391,-1.2293050635904073
1725629617606145000,1.94714501953125,0.42185792335420846,-0.05332417843043804,-0.9692910223573445
1725629617616098000,1.95709814453125,0.5731085152685642,-0.1582692385047674,-0.9185703044235706
1725629617626051800,1.9670517578125,0.7320128368064761,-0.15881635099351404,-0.5225906264305115
1725629617636004900,1.9770048828125,0.7813698651716112,0.04568973802924156,-0.0009790741652250289
1725629617645959000,1.986958984375,0.7174030044347047,-0.3532452826380729,-0.03413198670446872
1725629617655912000,1.996911865234375,0.6447504406780004,-0.9033984542548656,0.2893424270480871
1725629617665865000,2.006864990234375,0.7263797993555665,-0.7130810495823622,0.765245536583662
1725629617675819000,2.016819091796875,0.4479033419758081,-0.5726964273363352,0.8438152154296636
1725629617685772000,2.02677197265625,0.12988807041198014,-0.6178904908031225,0.7611988915413618
1725629617695725000,2.03672509765625,-0.15356325277090072,-0.4029091849952936,0.5709831936776638
1725629617705678800,2.046678955078125,-0.09711042092591524,-0.2046989812463522,0.18186755623519418
1725629617715631900,2.0566318359375,0.041586394363641734,0.09555530043840407,0.0925520269691944
1725629617725586000,2.0665859375,-0.2272936748921871,0.2925935377985239,-0.16197686085104943
1725629617735539000,2.0765390625,-0.45652036367356774,0.5494581750899553,-0.49385085415840146
1725629617745492000,2.086491943359375,-0.8277502158135175,1.1059551627755164,-0.6001227789223194
1725629617755446000,2.096446044921875,-0.38378830493986604,0.8552893801242113,-0.5007441208034753
1725629617765399000,2.10639892578125,-0.5289131074503064,1.138282145884633,-0.2732090383708477
1725629617775352000,2.11635205078125,-0.28159955783635376,1.0737643732666968,-0.2535100661665201
1725629617785305900,2.126305908203125,-0.09800473941713571,0.9416016359210014,-0.1608838049173355
1725629617795259000,2.1362587890625,-0.042969080893695354,1.0528285527437924,-0.023317747223377226
1725629617805213000,2.146212890625,0.09322072001099586,0.2854793218791485,-0.5464759444087743
1725629617815166000,2.156166015625,0.05682926394194364,-0.13026011859476566,0.1161018293827772
1725629617825118700,2.16611865234375,0.24818331818580627,0.04727554591596126,0.22685411443114278
1725629617835073000,2.176072998046875,0.08429682432115078,0.14430384151637554,0.22984978911578655
1725629617845025800,2.18602587890625,0.24023148239850997,0.15221008459627627,0.2509568745523691
1725629617854978800,2.195978759765625,0.2997230974175036,0.07241817047894,0.024786066210269925
1725629617864932900,2.205932861328125,-0.3550618305407464,-0.09064531656503677,0.07555296137332916
1725629617874886000,2.215885986328125,-0.27179858705103394,-0.2966138793557882,0.14373334815204142
1725629617884840000,2.22583984375,-0.29554829595088955,-0.5291869559556246,0.22912147484123704
1725629617894792700,2.235792724609375,-0.40112639323174953,-0.7934323511481285,0.06533055030554533
1725629617904745700,2.245745849609375,-0.8073720291733741,-0.5956722292542457,0.08035685452371835
1725629617914699800,2.25569970703125,-0.556942977887392,-0.31295418878197667,0.33906711968183517
1725629617924652800,2.26565283203125,-0.15284604441225527,-0.22443302476406096,0.249946236205101
1725629617934605800,2.275605712890625,-0.758390702252835,-0.15375322238504885,-0.00710720165669918
1725629617944559900,2.285559814453125,-0.7369827341735362,0.2675917830109596,-0.15869944661557672
1725629617954513000,2.295512939453125,-0.3683012513421476,0.6156675540566444,-0.26278759759962556
1725629617964466700,2.305466796875,-0.6160884098172188,0.7696575078070164,-0.054256490844488144
1725629617974419700,2.315419677734375,-0.2358078207373619,0.36852994553148744,-0.5213634227231144
1725629617984372700,2.325372802734375,-0.4022562740445137,-0.10663257476985454,-0.7700231262490153
1725629617994326800,2.335326904296875,-0.6919957375861704,-0.4480974032431841,-0.5448205784171819
1725629618004279800,2.34527978515625,-0.2362649168550968,-0.38863808305859565,-0.4192673223391175
1725629618014232800,2.35523291015625,-0.8129208954721688,-0.060272390133142464,-0.2899026912793517
1725629618024187000,2.365186767578125,-0.6696480044387281,0.08546586810052394,-0.7774646744266152
1725629618034140000,2.375139892578125,-0.8465991470597684,0.09058920246362685,-0.678813746060431
1725629618044094000,2.385093994140625,-1.0094786558389663,0.0010334347009658812,-0.6292331380724907
1725629618054047000,2.395046875,-0.5316020542733371,-0.25569617803394795,-1.2257932560771703
1725629618064000000,2.405,-1.1046399154584854,-0.6435942563802004,-1.2040209847301244
1725629618073953800,2.414953857421875,-0.9549117838710546,-0.993240637743473,-1.0945657537549733
1725629618083906800,2.42490673828125,-0.9070027623571455,-1.0987585292696953,-1.3998644593477247
1725629618093859800,2.43485986328125,-1.0140979862026869,-0.8430091597437858,-0.8610130184680223
1725629618103814000,2.44481396484375,-0.8876800761193037,-0.5568482853412627,-0.7979550892695784
1725629618113767000,2.454766845703125,-0.5013227244090288,-0.24379297427237032,-0.6995417690515517
1725629618123721000,2.464720947265625,-0.44112573759965595,-0.13930208770632743,-0.7727893760919571
1725629618133674000,2.474674072265625,-0.2933796466749161,-0.04239887979030609,-0.9005494945645331
1725629618143627000,2.484626953125,-0.20505846220850943,0.08349310672283172,-0.8880901182249188
1725629618153580800,2.494580810546875,-0.4506617007732391,-0.11747604034543037,-0.9947051573380827
1725629618163533800,2.504533935546875,-0.47447219994962214,0.26205168454051014,-0.2604559397816658
1725629618173486800,2.51448681640625,-0.828278550536558,0.0704834030240774,-0.22733634499013422
1725629618183441000,2.52444091796875,-0.26156295117549594,0.2576964119404554,0.3795370772361755
1725629618193394000,2.534393798828125,-0.38749716939516365,0.21306524305343627,0.6832891379088163
1725629618203348000,2.544347900390625,-0.2984375876516104,0.12345336118936538,0.6136036072641611
1725629618213301000,2.554301025390625,0.022553265656903385,0.4868704937517643,0.7374430451616645
1725629618223254000,2.56425390625,-0.2967372134745121,0.202580673918128,0.13293869015425444
1725629618233208000,2.5742080078125,-0.5540145962852985,0.4507143077433109,0.7159671264126897
1725629618243161000,2.5841611328125,-0.7560726345688105,0.0023246435552835465,0.6232502642706036
1725629618253114000,2.594114013671875,-0.6449543657522648,-0.45413785245120525,0.5636959592789411
1725629618263068000,2.60406787109375,-0.0963385597705841,-0.22288754888772963,0.8152671663373708
1725629618273021000,2.61402099609375,-0.21585918462090192,0.19523615637421607,0.9954872476264833
1725629618282975000,2.62397509765625,0.27197861979305743,0.204018597766757,1.0098939586415887
1725629618292928000,2.633927978515625,0.32996969405598936,-0.10564707086384295,0.7497346637189388
1725629618302881000,2.643881103515625,0.16819390873499213,-0.06154197167754173,0.3400476551517844
1725629618312835000,2.6538349609375,-0.7896107470333575,-0.41346331223547456,0.3187608292341232
1725629618322788000,2.6637880859375,-0.6123311031103134,-0.7804302462339401,0.3397551019459963
1725629618332740900,2.673740966796875,0.29066921867243944,-0.46545536527931686,1.106860587182641
1725629618342695000,2.68369482421875,-0.3776052323907614,-1.1236737748175858,0.33830139600634573
1725629618352647700,2.693647705078125,0.39469372983574863,-0.9906944603919983,0.27938655796200035
1725629618362600700,2.7036005859375,0.7833848582558334,-0.07791092267632484,1.0332415164813398
1725629618372554800,2.7135546875,0.5670633898854255,-0.28950667769908905,0.24043694184273479
1725629618382507800,2.7235078125,0.38374578097239137,0.07509002003669739,-0.6866144829392433
1725629618392461800,2.7334619140625,0.49893444103300566,0.1399964997112751,-0.16844985625743866
1725629618402414800,2.743414794921875,0.06408128089681267,0.6188251413047313,0.6754945385098456
1725629618412368000,2.753367919921875,0.19657865702435373,0.4312877227395773,1.1964230769470334
1725629618422322000,2.763322021484375,-0.22915172384902835,-0.1041243913412094,0.5286389666840434
1725629618432274200,2.773274169921875,-0.14808803623020647,0.45159693579673765,0.7646218517273664
1725629618442227200,2.783227294921875,0.5154783102072775,0.40079380027651784,0.7251733461752533
1725629618452181000,2.793180908203125,0.21335048973560333,0.540027498921752,0.5500979342982173
1725629618462134000,2.803134033203125,-0.1798375117123127,0.6178624337524176,0.24324440047889948
1725629618472088000,2.813088134765625,-0.6486435025937854,0.5854577092319727,0.004295651367306709
1725629618482041000,2.823041015625,-0.8016634422682225,0.39329789156317707,0.04085632652342319
1725629618491994000,2.832994140625,-0.895753930851072,0.3216454447597265,0.21422288865596054
1725629618501948200,2.8429482421875,-0.8464959789462387,0.47799511337876316,0.5121253465175628
1725629618511901200,2.852901123046875,-0.5470078593283891,0.26271570140719414,0.673378861530125
1725629618521854200,2.862854248046875,-0.40670901566967366,0.2586754861056805,0.45360476848781106
1725629618531808300,2.872808349609375,-0.35789456974864003,0.3241851923704147,0.21165099234133958
1725629618541761300,2.88276123046875,-0.8394311551265418,0.33251112216711043,0.4578445980146527
1725629618551714300,2.89271435546875,-0.6257138779051602,0.20492285313010214,-0.23984920508265495
1725629618561668000,2.902668212890625,-0.7179353577457368,-0.10882686994373798,-0.454321100063622
1725629618571621000,2.91262109375,-1.3147376139432192,0.12763736887574195,-0.1836991555765271
1725629618581575200,2.9225751953125,-1.0087235996879638,0.5789981578290462,-0.3198591458648443
1725629618591528200,2.932528076171875,-0.8582990833342075,0.5807195747941732,0.121740127530694
1725629618601481200,2.942481201171875,-0.7759288431614637,0.5616133077859878,0.7467804900884628
1725629618611435300,2.952435302734375,-0.1193361351288855,0.7696633530259132,0.6516565668046475
1725629618621388300,2.96238818359375,-0.2317518233448267,0.9339747943043708,0.3784478206947446
1725629618631341300,2.97234130859375,-1.1163584833681583,0.5476958415925502,0.1809136165112257
1725629618641295000,2.982295166015625,-0.8537452194221318,0.22983517606854437,-0.2812029597342014
1725629618651248000,2.992248046875,-1.6385598182201384,-0.08644085061252117,0.02567570852637291
1725629618661202200,3.0022021484375,-1.3937019911952315,0.09059446316063403,0.1696808593571186
1725629618671155200,3.0121552734375,-1.3049628005124627,0.49654725363552565,0.5566077545836567
1725629618681108200,3.022108154296875,-1.0029304032392798,0.6857225025355815,0.6877431947082281
1725629618691062300,3.032062255859375,-0.3263331641845405,0.7898334498733282,0.6416095123037695
1725629618701015300,3.042015380859375,-0.8249977022349834,0.7487257789373397,0.7989762490108608
1725629618710968300,3.05196826171875,-0.8239799034945666,0.3659878598332405,0.7616893054068088
1725629618720922000,3.061922119140625,-0.9966068993061781,-0.30045243460536003,0.8501932260289787
1725629618730875100,3.071875244140625,-1.2871658625371754,-0.9568126490563154,1.477079216453433
1725629618740829200,3.0818291015625,-0.736310972391814,-0.83697747836411,1.731682338553667
1725629618750782200,3.0917822265625,-0.39747649242207406,-0.3841869488686323,1.7583450122907758
1725629618760735000,3.10173486328125,-0.23323533990085124,0.012151625564694403,1.7753861634626984
1725629618770689300,3.111689208984375,0.12714797792360186,-0.07637655271589755,1.5824626679450273
1725629618780642000,3.12164208984375,0.3463859182626009,0.2437766076594591,1.1636053877115249
1725629618790595000,3.131594970703125,-0.09518807456120848,0.324731135815382,0.9147162593439221
1725629618800549000,3.141549072265625,-0.08199366194531321,0.21975451155900955,0.4678410913720727
1725629618810502100,3.151502197265625,-0.41020051104724403,0.36897944286465645,0.4810507015570998
1725629618820456000,3.1614560546875,-0.6553102670066058,0.5309323383182287,0.4646384959384799
1725629618830409000,3.171408935546875,-0.37631051640510554,0.5629845961391925,0.10772475392073393
1725629618840362000,3.181362060546875,-0.39701603530347346,0.774359986409545,-0.08815700688064097
1725629618850316000,3.19131591796875,-0.08622384686097502,0.9469003268510102,-0.02807809349298477
1725629618860269000,3.20126904296875,-0.3236246358782053,0.8526829970180988,-0.023323007920384407
1725629618870222000,3.21122216796875,-0.1388698337689042,0.9907178412675857,0.010869184538722038
1725629618880176000,3.221176025390625,-0.4613847548395395,0.933892376717925,0.012978139516711234
1725629618890129200,3.231129150390625,-0.1766080282717943,0.65517655762434,0.19668343257308005
1725629618900083000,3.2410830078125,0.046124622315168375,0.6746598412513732,0.1152478429019451
1725629618910036000,3.251035888671875,0.15452596032321453,0.45990532993674277,0.20159809262156486
1725629618919989000,3.260989013671875,0.17281272764205932,0.28835107792317866,0.2110591639280319
1725629618929943000,3.270943115234375,0.35462153942734,0.035004093363881106,0.18662673346102238
1725629618939896000,3.28089599609375,0.4881231241613626,0.06424012472033501,0.20093056862354278
1725629618949849000,3.29084912109375,0.6451832791373133,0.22771511517465112,0.37839492146372794
1725629618959803100,3.30080322265625,1.1056629018306732,0.3280319309264421,0.4194996697902679
1725629618969756200,3.310756103515625,1.2016785132572054,0.49190848791897296,0.2742763753414154
1725629618979710200,3.320710205078125,1.0525807154625653,0.6164508133888245,0.09492343227565288
1725629618989663200,3.330663330078125,0.843665285564959,0.4893810152679681,-0.2491699911355972
1725629618999616300,3.3406162109375,0.46766076636910436,0.31949498872756954,-0.2105278335303068
1725629619009570000,3.350570068359375,0.28934827226698395,0.3069979107260704,-0.09634966568648815
1725629619019523000,3.360523193359375,0.27348434818089007,-0.1852262190133333,-0.025481062737107277
1725629619029476000,3.37047607421875,0.2788157723367214,0.03355097194612026,0.46104807023108
1725629619039430100,3.38043017578125,0.6252019828602672,0.029105682975053785,0.26539398070573805
1725629619049383200,3.390383056640625,0.8623065654098987,-0.4760293662637472,0.4939882168024778
1725629619059337200,3.400337158203125,1.0812842473775148,0.14247662608921527,0.725483435037732
1725629619069290200,3.410290283203125,1.0975327868670224,-0.21916940514743327,0.4480155701786279
1725629619079243300,3.4202431640625,0.5617606073021888,-0.14184592697024345,0.8093126418471336
1725629619089197000,3.430197021484375,0.8595765559241175,-0.5127344183266163,0.8270300848454236
1725629619099150000,3.440150146484375,0.7670286206081509,-0.5501023182123899,0.8129986368834972
1725629619109104000,3.450104248046875,0.862345143854618,-0.3646773617565632,0.5008645323127507
1725629619119057200,3.46005712890625,0.9118550246939062,-0.32787118740677834,0.45559623456597326
1725629619129010200,3.47001025390625,0.7544274977102875,0.3159294052004814,0.010644143611192702
1725629619138964200,3.479964111328125,0.6165536892414093,-0.09272504544854164,-0.22467034065127373
1725629619148917200,3.489917236328125,0.9089157563716173,0.10207914924919605,0.12059271106123924
1725629619158870300,3.499870361328125,0.8063283653393387,0.19174539164900778,0.2535527362644672
1725629619168824300,3.50982421875,0.7348053901344538,-0.3363192822784185,0.30350597695708276
1725629619178777300,3.51977734375,0.5674558963343501,-0.5536468589514494,0.5431295565903187
1725629619188731100,3.529731201171875,0.45886371192932124,-0.1597065778315067,0.3982470384031534
1725629619198684200,3.53968408203125,0.6106143623203039,0.20861352434158323,-0.14729133289456367
1725629619208637200,3.54963720703125,0.5329606292754412,0.3979191216230392,-0.23643676629066465
1725629619218591200,3.55959130859375,0.47494770850688217,0.662549132218957,-0.157826170912385
1725629619228544300,3.569544189453125,0.3360828431740403,0.5572855077147484,-0.09833061037063598
1725629619238497300,3.579497314453125,0.22808716335743665,0.20113281319737433,0.03366027753949165
1725629619248451300,3.589451416015625,0.18669336895644664,0.2542068162590265,0.5849626191914081
1725629619258404400,3.599404296875,0.10853577804267406,-0.3934060281127691,1.076548451027274
1725629619268358100,3.609358154296875,-0.08584580732882022,-0.30417583904266354,0.6663467709362506
1725629619278311200,3.619311279296875,0.499217349627614,-0.29557050778269767,1.0245867931216954
1725629619288264000,3.629263916015625,0.6201376852080226,0.33231939898729324,0.6936731692790985
1725629619298218200,3.63921826171875,0.2982315436854958,0.6007908874422312,0.33844518839120863
1725629619308171000,3.6491708984375,0.34102409896850583,0.39529052668511866,-0.13012158690690995
1725629619318124000,3.6591240234375,0.2467380878135562,-0.03755085523724556,-0.055143795073032374
1725629619328078000,3.669078125,0.30989187860190864,0.10214403117895125,0.10854366908818483
1725629619338031000,3.679031005859375,0.005730068084597587,0.10532967547774315,0.09379442824572325
1725629619347985200,3.688985107421875,0.14209288746863602,-0.16568740580677985,0.0731350865766406
1725629619357938200,3.698938232421875,-0.07894260381162166,-0.48146249722838397,0.29049510421454905
1725629619367891200,3.70889111328125,0.020903087297081947,-0.2847521766483784,0.5526794752240181
1725629619377845000,3.718844970703125,-0.3132181004151702,-0.11969020926356315,0.4880304774418473
1725629619387798000,3.728798095703125,-0.12709873195439578,-0.46885085293650625,0.27093641726374623
1725629619397752000,3.738751953125,0.26271599366813897,-0.7389718621641397,0.3946779477447271
1725629619407705000,3.748705078125,0.01655015278458595,-0.3016343378663063,0.27177900556772944
1725629619417658000,3.758658203125,-0.37623803569078446,-0.24258126039505004,-0.10864537589699029
1725629619427612700,3.76861279296875,-0.4354270145013928,-0.32341070086657997,-0.27204700885415073
1725629619437565700,3.778565673828125,-0.5019581727683544,0.06143149704039096,-0.3229354845702648
1725629619447518700,3.788518798828125,-0.7602196712456644,0.6166998197138309,-0.35382454383075235
1725629619457472800,3.79847265625,-0.43587680409550666,0.7808423341661691,-0.9170759742125868
1725629619467425800,3.80842578125,-0.455677921500057,0.8638789292931556,-1.1616969237416983
1725629619477378800,3.81837890625,-0.7450988206118345,0.9127928900659084,-1.1467878161624074
1725629619487332900,3.828332763671875,-0.5607400320827961,0.7950023769438266,-0.9556284077078103
1725629619497286000,3.838285888671875,-0.4039116400361061,0.4514455446273088,-0.9862032864525914
1725629619507240000,3.848239990234375,-0.20929799947440622,0.21804303146600723,-0.9149614662766457
1725629619517193000,3.85819287109375,-0.012763035461306572,0.1391594643652439,-0.7856035572186112
1725629619527146000,3.86814599609375,0.16758783260062335,0.2959960397183895,-0.8232014664679765
1725629619537099800,3.878099853515625,0.253425456622988,0.44311435413360595,-1.0373805159822105
1725629619547052800,3.888052734375,0.2379911561258137,0.4428127408385277,-1.3111176698803901
1725629619557006800,3.8980068359375,-0.3142464205496013,0.2809159594863653,-1.352302789966762
1725629619566959900,3.9079599609375,-0.2996908025830984,0.20120704747736454,-1.1983081600412726
1725629619576913000,3.917912841796875,-0.021142741271853446,0.15814999603927135,-1.2525164278298615
1725629619586867000,3.927866943359375,0.03752250592559576,0.1801063917815685,-1.4239672194689512
1725629619596820000,3.937820068359375,-0.47808688331544397,0.2503729371845722,-0.8859776561155914
1725629619606772700,3.947772705078125,-0.24326135161370038,-0.19532851083278654,-0.891881327201426
1725629619616726800,3.957726806640625,0.29912703122049566,-0.5451724605947733,-1.000689200183749
1725629619626679600,3.967679443359375,0.27122064103260635,-0.28862463416755196,-0.060737377296388145
1725629619636633900,3.9776337890625,0.90874756019786,0.05265080921351909,0.17908055586516855
1725629619646586600,3.987586669921875,0.5392106295809149,-0.1356347973704338,-0.3618389234602451
1725629619656539600,3.99753955078125,0.5210089101970196,-0.1884814214169979,-0.23075784387141465
1725629619666493700,4.00749365234375,0.47140813620388505,-0.7253373045653104,-0.6920595966026186
1725629619676446700,4.01744677734375,0.34057752424478527,-0.48750996069908137,-0.39681729786098
1725629619686399700,4.027399658203125,0.7050590711683035,-0.2674129193127155,-0.2222305462837219
1725629619696353800,4.037353759765625,0.24621581750512123,-0.6186041920304298,-0.9018129386290907
1725629619706306800,4.047306884765625,0.13170622574985028,-0.5432125586986541,-0.9513178510323166
1725629619716260600,4.057260498046875,0.5336304913610219,-0.33113223502933975,-0.4912526543587446
1725629619726213600,4.067213623046875,0.1203197393387556,-0.1339572195470333,-0.3682967212975025
1725629619736166700,4.077166748046875,0.2666851895600557,0.1003425347149372,-0.6479074434041977
1725629619746120700,4.08712060546875,0.278387610052526,-0.06808920136392116,-0.7162076571702957
1725629619756073700,4.09707373046875,0.23794483276605605,0.006975684231519699,-0.473127799603343
1725629619766026800,4.10702685546875,0.28919425074905153,0.1023164651364088,-0.2644081845387816
1725629619775980800,4.116980712890625,0.37579087644517417,0.546219339299202,-0.12991905007213353
1725629619785933800,4.126933837890625,-0.41190833787843584,0.3462409568339586,0.06964110698103905
1725629619795887600,4.1368876953125,-0.33432591650411486,-0.15844342602789402,-0.3071148151040077
1725629619805840600,4.146840576171875,0.10820786126255988,-0.15442834516763687,0.4519242680549621
1725629619815793700,4.156793701171875,0.623753245356679,-0.08472410982251166,0.9239508284181356
1725629619825747700,4.166747802734375,0.8355661502614616,0.1875660601377487,0.9337874550387263
1725629619835700700,4.17670068359375,0.9382356666192412,-0.09059680124819278,1.010804936006665
1725629619845653800,4.18665380859375,0.9096624830856919,-0.1880582275688648,1.1406348464906215
1725629619855607800,4.19660791015625,0.4871124858140945,0.23653730405569076,0.9591419687867164
1725629619865560800,4.206560791015625,0.18906828139424323,0.2375678161472082,0.7241770286142826
1725629619875514600,4.2165146484375,0.37794162473827597,0.031084289571642873,0.5701277458921075
1725629619885467600,4.226467529296875,0.07543985638767481,0.09449497773051262,0.5772580361634493
1725629619895420700,4.236420654296875,0.46393823871463535,0.22846447223722932,0.5372501431629061
1725629619905374700,4.246374755859375,0.6105521107390522,0.5196458051502705,0.48680268921256065
1725629619915327700,4.25632763671875,0.6647896046221256,0.7421037304490804,0.04846358665674925
1725629619925280800,4.26628076171875,0.3978695833928883,0.5907949786067008,-0.0665691521897912
1725629619935234800,4.27623486328125,0.1276706866234541,0.4373766872644424,0.25199878482073546
1725629619945187800,4.286187744140625,-0.24122093182727694,0.5061895267277956,0.38825551348179577
1725629619955140900,4.296140869140625,-0.3341628348968923,0.30151100374758244,0.47507805688828225
1725629619965095000,4.306094970703125,-0.1879129738792777,0.40901510065495966,0.35793285593241453
1725629619975048000,4.3160478515625,-0.12169102769196033,0.5699971052497625,0.255815420499444
1725629619985001700,4.326001708984375,0.14089754020422696,0.5093862769424915,0.2787789474576711
1725629619994954800,4.335954833984375,0.16773352468162775,0.5294605121999979,0.07186082885712385
1725629620004907800,4.34590771484375,-0.07603373062759637,0.35928865445554253,-0.02591740832775831
1725629620014861800,4.35586181640625,-0.08739055255278945,0.2144716027200222,0.0004717091649770736
1725629620024814800,4.36581494140625,-0.525148201958835,0.13258651571571825,0.11659925751090049
1725629620034768000,4.375767822265625,-0.20756372302770612,0.0683007982879877,0.029483576376736164
1725629620044722000,4.385721923828125,-0.1625248501226306,0.1745651242673397,-0.04499474150240421
1725629620054675000,4.395675048828125,-0.5271409832112491,0.18050562023222447,0.06469926666468381
1725629620064628700,4.405628662109375,-0.2861901004970073,0.2994230915576219,-0.13790420360714195
1725629620074581800,4.415581787109375,-0.498839602356404,0.17646248232126235,-0.23288258094042538
1725629620084534800,4.42553466796875,-0.6565431698024272,0.06511340042352676,-0.3971992829158902
1725629620094488800,4.43548876953125,-0.6124487381406128,-0.013117840248346328,-0.2101268515139818
1725629620104441900,4.44544189453125,-0.5198476113326848,-0.06793781019449234,-0.17791794182658194
1725629620114394600,4.45539453125,-0.2331809793651104,-0.18168693897128105,-0.6718699182718992
1725629620124349000,4.465348876953125,-0.339121480217576,-0.5832400331825017,-0.5757894249156117
1725629620134301700,4.4753017578125,-0.6634475423634052,-0.6200263337880373,-0.5325272062942386
1725629620144256000,4.485256103515625,-0.5872539449989795,-0.6835702929377555,-0.48183308410644526
1725629620154208800,4.495208740234375,-0.5664389743767678,-0.3830009539544582,-0.3370931892603636
1725629620164161800,4.505161865234375,-0.8891039714425801,0.017644962283968925,0.09372516240179538
1725629620174115600,4.515115478515625,-0.4185410538911819,0.14979717823565006,0.3229132727384567
1725629620184068600,4.525068603515625,0.1446979554004967,0.0277414088845253,0.155332600530982
1725629620194021600,4.535021728515625,0.11712298912405968,0.20600947932302952,0.04565115958452225
1725629620203975700,4.5449755859375,-0.36371319289952514,-0.04123275862038135,0.02806377270668745
1725629620213928700,4.5549287109375,-0.5959273730590939,0.028158172991871833,0.13928396752774713
1725629620223881700,4.5648818359375,-0.23642039967775344,0.092569562625885,0.2625730780661106
1725629620233835800,4.574835693359375,-0.42451983603984117,0.34456045640110966,0.29591245308816433
1725629620243788800,4.584788818359375,-0.6428963372439146,0.647731502315402,0.2817462728306651
1725629620253742600,4.59474267578125,-0.3304275938913226,0.5694283654510974,-0.023446342039108274
1725629620263695600,4.604695556640625,-0.3566644434317946,0.3068950348734856,-0.31367431975007054
1725629620273648600,4.614648681640625,-0.698445644377917,0.24154899473786354,-0.15863924086093903
1725629620283602700,4.624602783203125,-0.4519268984034657,0.25692659661173817,-0.2735620895922184
1725629620293555700,4.6345556640625,-0.2586076815664768,0.22963994575738905,-0.1424742880016565
1725629620303508700,4.6445087890625,-0.17062573899179695,0.49166941846609113,0.0760784465521574
1725629620313462800,4.654462890625,-0.10022855294644832,0.7150263384312391,0.2309311546117067
1725629620323415800,4.664415771484375,0.09823796365112065,0.6971949136644602,0.25325229201316835
1725629620333368800,4.674368896484375,0.1918333621934056,0.6213122819453477,0.3336988706469536
1725629620343323000,4.684322998046875,0.33271307447999715,0.3790583538085222,0.3413999465435743
1725629620353275600,4.694275634765625,0.22471154944449662,0.3490986843526363,0.3053624184787273
1725629620363229700,4.704229736328125,0.3860124107301235,0.4496960706114769,0.6002636486977339
1725629620373182700,4.7141826171875,0.8145429437160492,0.7597089452445507,0.8530617672026157
1725629620383135700,4.7241357421875,0.3376198434829712,0.981319313803315,0.869201001098752
1725629620393089800,4.73408984375,0.12369593777358531,0.39942894166409965,0.35497429838776584
1725629620403042800,4.744042724609375,0.0546983893930912,-0.15088789608180522,0.7079284891247749
1725629620412995800,4.753995849609375,0.7232184127151966,-0.02411445055902004,1.091973983696103
1725629620422950000,4.763949951171875,1.1906696279868483,0.13029343634247778,1.1662930193603038
1725629620432902400,4.77390234375,1.1729220821112394,-0.06500818648338318,1.3614783223301172
1725629620442856400,4.7838564453125,1.3557982308670877,-0.3144657623887062,1.6499048035770654
1725629620452809200,4.793809326171875,1.081082587325573,-0.2962883006632328,1.8920207845479249
1725629620462762200,4.80376220703125,0.7718246227130293,-0.2593184601843357,1.8458850563168525
1725629620472716300,4.81371630859375,0.5598965669959783,-0.3927151232391596,1.528631709036231
1725629620482669300,4.82366943359375,0.5380088525757193,-0.005636544582247734,1.5096154583990573
1725629620492622300,4.833622314453125,0.6188514447897673,0.3576794656932354,1.219841069674492
1725629620502576400,4.843576416015625,0.38194939907491204,0.6938321592330933,0.7803747166544198
1725629620512529400,4.853529296875,0.3564075460612774,0.8327741814553737,0.43733167907893655
1725629620522482400,4.863482421875,0.22886486973166464,0.8804735057413577,0.06264905613660812
1725629620532436500,4.8734365234375,-0.12495353661924599,1.0828425827354191,-0.10607844801843165
1725629620542389500,4.883389404296875,-0.10770575695931911,1.0432459008842707,-0.22720073591172693
1725629620552343300,4.89334326171875,0.008483458445966242,1.1689660379618405,-0.24373043043017387
1725629620562296300,4.90329638671875,0.39420097788274283,1.3660036908000708,-0.13698621197938918
1725629620572249300,4.913249267578125,0.5560241094768047,1.0853951898276806,-0.2642652689367533
1725629620582203400,4.923203369140625,0.4356476715147495,0.7011398518979549,0.06746200937628746
1725629620592156400,4.933156494140625,0.6329056891053915,0.5034609785467385,0.7180453939914703
1725629620602109400,4.943109375,0.5953560029119253,0.4987321964591741,0.8386118015676737
1725629620612063500,4.9530634765625,0.3736737381607294,0.09947919588387012,0.7330284435898066
1725629620622016500,4.9630166015625,0.35837796935141086,-0.1694108102440834,0.7521335415542125
1725629620631969500,4.972969482421875,0.4384408093646168,-0.0006546645164489745,0.7989730341404676
1725629620641923300,4.98292333984375,0.36638387341350315,0.1599555841565132,0.9029711687535047
1725629620651876400,4.99287646484375,0.1536684667110443,-0.056251464053988454,0.903157046714425
1725629620661830400,5.002830322265625,-0.17151333548128603,-0.1352256320476532,1.3229670976281165
1725629620671783400,5.012783447265625,-0.55593029371351,-0.01751227581501007,1.453701263475418
1725629620681736400,5.022736328125,-0.11843611754924058,0.01402618726491928,1.747967702922225
1725629620691690500,5.0326904296875,0.08091302710175513,-0.05483809012472629,1.8252338979542255
1725629620701643500,5.0426435546875,-0.04329027567207813,0.18868366599082945,1.85096221345067
1725629620711596500,5.052596435546875,-0.054010407128930085,0.4980225868850946,1.5132500155091284
1725629620721550600,5.062550537109375,0.05639584096074104,0.3071884648621082,1.1100959158420562
1725629620731503400,5.07250341796875,0.2729267142981291,0.03985562504827976,0.6985130105257034
1725629620741456400,5.082456298828125,-0.038844986701011656,0.17812836970686913,0.18951602516174315
1725629620751410400,5.092410400390625,-0.16479016470611094,0.3309977949947119,-0.5608955149054526
1725629620761363500,5.102363525390625,-0.407563440541923,-0.06510521711707115,-0.8536942198872566
1725629620771317500,5.1123173828125,-0.2504100543245673,-0.1939981390118599,-1.227119828505814
1725629620781270500,5.1222705078125,-0.2308689030304551,0.18699848938286304,-1.188913431969285
1725629620791223600,5.1322236328125,-0.1572963018193841,0.6407680930435657,-1.2025710781827568
1725629620802420500,5.14342041015625,-0.04851151745170355,0.5796171665102243,-1.450924199977517
1725629620812374300,5.153374267578125,-0.5826739237323403,0.1528536431968212,-0.947210415713489
1725629620822327300,5.163327392578125,-0.7250152330040931,-0.08056348301172256,-0.4545382499456405
1725629620832280300,5.1732802734375,-0.497790531694889,-0.442763640999794,-0.29510172122716904
1725629620842234400,5.183234375,-0.34709172844439745,-1.0630226144999264,-0.39804362478554245
1725629620852187400,5.1931875,-0.1752273875683546,-1.18901572329998,-0.4679115262597799
1725629620862140400,5.203140380859375,-0.36973172253668307,-0.8842337350577115,-0.37574323791116476
1725629620872094500,5.213094482421875,-0.12014321372807026,-0.7870248221933841,-0.5816720532134175
1725629620882047500,5.223047607421875,-0.23361411008536814,-0.5181009137958288,-0.7117141451433301
1725629620892000500,5.23300048828125,-0.4527531200945377,0.04251344608068466,-0.5299821979865431
1725629620901954300,5.242954345703125,-0.27544191198945045,0.37865211109519004,-0.5365884643837809
1725629620911907300,5.2529072265625,-0.407949517250061,0.48348435844480986,-0.505349568772316
1725629620921860400,5.2628603515625,-0.517313562810421,0.38902036037445065,-0.5544418087214231
1725629620931814400,5.272814453125,-0.49262744984328743,0.23066811976134777,-0.5983589841201901
1725629620941767400,5.282767333984375,-0.09222060305774211,-0.015779752933979034,-0.9231851047426461
1725629620951721500,5.292721435546875,0.04269727821499109,-0.08808335712254046,-0.9672466570481657
1725629620961674500,5.302674560546875,-0.0792716896355152,0.01127951890528202,-0.8720181043460965
1725629620971627500,5.31262744140625,-0.08328267884254455,0.21325404362380504,-0.8683218801766633
1725629620981581600,5.32258154296875,-0.19096680849194525,0.5900035359680652,-0.6706053051635622
1725629620991534600,5.33253466796875,-0.44807051523625846,0.3103992436021566,-0.9933440981179475
1725629621001487600,5.342487548828125,-0.7225923897713422,0.06107435416579246,-1.0621794416740535
1725629621011441400,5.35244140625,-0.2479196988135576,-0.5390267974466085,-1.234143443532288
1725629621021394400,5.36239453125,0.4152788372248411,-0.45273266182839866,-0.8989230624064802
1725629621031347500,5.372347412109375,0.6164338622540235,-0.07262684479355812,-0.7452014042034745
1725629621041301500,5.382301513671875,0.2338981877237558,0.16609306399822235,-0.5608022836640477
1725629621051254500,5.392254638671875,0.1761785508133471,0.27577976564168927,-0.17264467759877442
1725629621061208600,5.40220849609375,-0.07525529360100626,-0.39254444284737106,-0.3928428412720561
1725629621071161600,5.41216162109375,-0.014149959775060415,-0.7931050188899039,-0.21457009465843438
1725629621081114600,5.422114501953125,-0.021188041718304157,-0.6742553521037101,0.23893179797679184
1725629621091068400,5.432068359375,0.11367430997490882,-0.4636445164650678,0.5735924993932247
1725629621101021400,5.442021484375,0.2526040572375059,0.27809622589051725,0.643401071895659
1725629621110974500,5.451974365234375,0.37799715431779624,0.3786474349200725,0.5662316152364015
1725629621120928500,5.461928466796875,0.7798353490807115,0.30966625315248963,0.271281869700551
1725629621130881500,5.471881591796875,0.5327040241658687,0.6868757642239331,0.21122224553525445
1725629621140834300,5.481834228515625,0.09703501760214567,0.9431605558007955,0.30991818208694455
1725629621150788600,5.49178857421875,-0.09548281972408294,0.6276514218389988,0.03972323084026575
1725629621160741400,5.501741455078125,-0.051124914820492265,0.4380646695286035,0.07046878997683524
1725629621170695400,5.5116953125,-0.03637508945614099,0.47839317278563975,0.5177744583204388
1725629621180648400,5.5216484375,0.5470157503738999,0.45980479217171666,0.39556729779988525
1725629621190601500,5.5316015625,0.5097536489501595,0.19435294379889964,0.29780484270602464
1725629621200555300,5.54155517578125,0.5062522167004645,0.0675081866055727,0.4246007923215627
1725629621210508300,5.55150830078125,0.6722112790554762,0.1094137299209833,0.5443567602977156
1725629621220461300,5.56146142578125,0.6314373701184988,0.11277297722101211,0.893266936340928
1725629621230415400,5.571415283203125,0.7586739031083881,0.258514158064127,0.9058665979340672
1725629621240368400,5.581368408203125,0.9722627316445112,0.2613198631346226,0.8302046232283115
1725629621250321400,5.5913212890625,0.48599926387518644,0.47645782080888743,0.33337124612778424
1725629621260275500,5.601275390625,0.25317893451601264,0.6009013620793819,0.10345336021184921
1725629621270228500,5.611228515625,-0.13808964317664504,0.4969336226046085,0.12633973028063775
1725629621280181500,5.621181396484375,-0.05856558621525764,0.36848785995543,0.11890052019059658
1725629621290135300,5.63113525390625,-0.009266863908618687,0.6751052469313145,0.009044307199120522
1725629621300088300,5.64108837890625,0.028018326129764317,0.8971884936988354,-0.29453064334094525
1725629621310042400,5.65104248046875,0.0027503216214478012,0.6072095223128795,-0.557519316470623
1725629621319995400,5.660995361328125,0.027148995949327945,0.4621989938318729,-0.42465778320580716
1725629621329948400,5.670948486328125,-0.11837561953365802,-0.05474924279749393,-0.8673869374141097
1725629621339902500,5.68090234375,-0.5512962041720748,-0.20100188029408453,-0.8509121879532933
1725629621349855500,5.69085546875,-0.8289829724788665,-0.24038871878683565,-0.2939367691010237
1725629621359808500,5.70080859375,-0.48579088182151314,-0.4877542908489704,-0.07292027478218079
1725629621369762300,5.71076220703125,-0.4443529560178518,-0.5128595060110092,0.2474456515610218
1725629621379715300,5.72071533203125,-0.4854524436473846,-0.4985112471848726,0.4617202704042196
1725629621389668400,5.73066845703125,-0.23293007334396243,-0.5344558362692594,0.517046728567779
1725629621399622400,5.740622314453125,-0.32807489328533407,-0.4846744450122118,0.6096262280657887
1725629621409575400,5.750575439453125,-0.6909457901418209,-0.5483563513278961,0.9659852588102221
1725629621419529500,5.760529541015625,-0.8477470019206405,-0.6065601184934377,0.9555024432405829
1725629621429482500,5.770482421875,-0.8852543102771043,-0.6833242092221975,1.1983514146611094
1725629621439436000,5.78043603515625,-0.6475415327012538,-0.4104343198031187,1.2782529266327618
1725629621449389800,5.790389892578125,-0.6397106929451227,0.020135610055923462,1.012336383357644
1725629621459342800,5.8003427734375,-0.48249154801517724,0.2048117939710617,1.0834034314885734
1725629621469295900,5.8102958984375,-0.19194003743827343,0.4257125529557466,1.071846556946635
1725629621479250000,5.82025,-0.5155675959259272,0.909063640409708,1.1182920817792414
1725629621489203000,5.830202880859375,-0.4157807953976094,0.6860837370634079,1.0681143846809864
1725629621499157000,5.840156982421875,-0.3364674585774541,0.6068950495362282,0.5795259810954332
1725629621509110000,5.850110107421875,-0.6575682750664651,0.30249884574115277,0.4726096209481358
1725629621519063000,5.86006298828125,-0.4160375466376543,0.7868231621414422,0.20404607029557226
1725629621529017000,5.87001708984375,-0.8266483920514583,0.7811778497308492,0.13720862255841493
1725629621538970000,5.87997021484375,-0.46970834654867644,0.7052882037490605,0.013224223232269286
1725629621548923000,5.8899228515625,-0.2540055945985019,0.8719120136231183,-0.007319967624545097
1725629621558877000,5.899876953125,-0.537744648681581,1.027899863192439,-0.016750936053693294
1725629621568829700,5.90982958984375,-0.20891279954910277,1.0856506258934735,-0.06426818177103996
1725629621578782700,5.91978271484375,-0.18514087881743907,1.3507254576474428,-0.37414340149909253
1725629621588737000,5.929737060546875,-0.71787339842543,1.099344804725051,-0.29599428615272044
1725629621598689800,5.939689697265625,-0.42611441175490616,0.6321545784771442,0.026028759747743605
1725629621608644000,5.94964404296875,-0.22471154944449662,0.34675708966255187,-0.2717719913050532
1725629621618596900,5.959596923828125,-0.1213290625117719,-0.11028759014606475,-0.42695758458077904
1725629621628550000,5.9695498046875,-0.18350158717781304,-0.20844635108113288,0.01801291881352663
1725629621638503700,5.979503662109375,-0.0038709962144494055,0.3188444158643484,0.5798986138001084
1725629621648456700,5.989456787109375,0.26327684242129323,0.8720616512268781,0.4928817168653011
1725629621658409700,5.99940966796875,0.4062774923846125,0.8839069873213767,0.3951449807345867
1725629621668363800,6.00936376953125,0.29312253010869027,0.885400440749526,0.3044131549298763
1725629621678316800,6.01931689453125,0.17808423830419778,0.5301882419526577,0.17738485786318778
1725629621688269800,6.029269775390625,0.4617237775355577,0.17802666289806365,-0.003606500059366226
1725629621698223900,6.039223876953125,0.4050242774531245,0.11140753408670424,0.05494447310864925
1725629621708177000,6.049177001953125,0.5009451963335275,0.12968494905531405,-0.1134527761787176
1725629621718130000,6.0591298828125,0.48510231503546236,0.16453765124976635,0.06188683959245681
1725629621728084000,6.069083984375,0.61905135127604,0.2359294012904167,0.13604630078077315
1725629621738037000,6.079037109375,0.6356634633809328,0.020223872861266135,0.004093406793475151
1725629621747990800,6.08899072265625,0.5281953145697713,-0.14920271947383879,0.11543021373152733
1725629621757943800,6.09894384765625,0.808381206215918,-0.32891865063309667,0.12047814477086066
1725629621767896800,6.108896728515625,0.7340300218477844,-0.5382505523771047,0.2134334918439388
1725629621777851000,6.118850830078125,0.8802923039555549,-0.5075368496835232,0.416332730191946
1725629621787804000,6.128803955078125,1.236196868930757,-0.11510580408275127,0.4729138645917177
1725629621797757000,6.1387568359375,0.8456479838147759,0.03966156378090381,0.29083295786678787
1725629621807711000,6.1487109375,0.4356140615060925,-0.5689134016662836,0.18939269104301928
1725629621817664000,6.1586640625,0.36463264583200217,-0.9350994144201278,0.49466567767262454
1725629621827617000,6.168616943359375,0.35149756218791006,-0.7373024676471949,0.8488438572466372
1725629621837570800,6.17857080078125,0.6827110457599163,-0.5025748433619738,0.8872118740856647
1725629621847523800,6.18852392578125,0.7702320928245783,-0.026376550272107124,0.8501859195053577
1725629621857478000,6.198477783203125,1.1108356282934546,0.31322131528556346,0.5785726258933543
1725629621867431000,6.208430908203125,0.8289642677783966,0.6662304510802031,0.26979543053507804
1725629621877384000,6.218384033203125,0.7096835160985588,0.8698445596992969,0.2159697323232889
1725629621887338000,6.228337890625,0.5359674098759889,0.4587088136285543,-0.06398702674210072
1725629621897291000,6.238291015625,0.2974336713060736,0.6595820991069078,-0.36029520114958286
1725629621907244000,6.248244140625,0.6683019966572523,0.13959376412928104,-0.5825836151003837
1725629621917197800,6.25819775390625,0.6064163261085749,0.081476506203413,-0.17589198895692823
1725629621927150800,6.26815087890625,0.8254141740813851,0.36959728250205515,0.009725275200605392
1725629621937104000,6.278103759765625,0.597663403071463,0.4871744451344013,-0.310107567179203
1725629621947058000,6.288057861328125,0.7708607461169361,0.4990425775825977,-0.3572562718451023
1725629621957011000,6.298010986328125,0.7084180262073874,0.5908686283648014,-0.20285773729383944
1725629621966964000,6.3079638671875,0.6250540988221764,0.10759937397539615,-0.44013270797431464
1725629621976918000,6.31791796875,0.5153796721383929,0.12166706229448318,0.17658114026486874
1725629621986871000,6.32787109375,0.5978092412829399,0.19211714757084844,0.5626847364097833
1725629621996825000,6.3378251953125,0.2035851747855544,-0.31806641722917556,0.8913754235059023
1725629622006778000,6.347778076171875,0.2645192436978221,-0.8118453751951455,1.3820225131869315
1725629622016731000,6.35773095703125,0.40850247495770453,-0.8927887974351644,1.7000228794425725
1725629622026685000,6.367684814453125,0.46308220640718933,-0.6319651933848858,1.6516519395053386
1725629622036637700,6.3776376953125,0.34799656832963227,-0.9611001171171665,0.8859873007267713
1725629622046590700,6.3875908203125,0.5566220753699541,-0.9271095847100019,0.7483323957055806
1725629622056544800,6.397544677734375,0.4704518583923578,-0.14328385081887243,0.5276502479076385
1725629622066497800,6.407497802734375,0.10757774666547774,0.03447451653182507,0.13998656283915042
1725629622076450800,6.417450927734375,0.13901450293660164,-0.39573417879939077,-0.3993307419866323
1725629622086404900,6.42740478515625,-0.37606647851616143,-0.23913725742101669,-0.5235889898180961
1725629622096358000,6.43735791015625,-0.23249416614472865,-0.003740355572104454,-0.7595084542363881
1725629622106311000,6.447310791015625,0.14484861591756343,0.15908815367221832,-0.9724293203830718
1725629622116264700,6.4572646484375,0.2879834136545658,0.21986849332749842,-1.3693646916657685
1725629622126217700,6.4672177734375,0.09342997884750366,0.17238894927203655,-1.4320914892137049
1725629622136171800,6.477171875,0.3393877299383282,-0.05715455037355423,-1.0867749537482858
1725629622146124800,6.487124755859375,0.560887623859942,-0.29795009639561176,-0.650297553411126
1725629622156077800,6.497077880859375,0.2980494651168585,-0.14729951620101928,-0.3626674832388758
1725629622166032000,6.507031982421875,-0.13693506631404162,0.1938315502732992,-0.4988602067530155
1725629622175985000,6.51698486328125,-0.1938949708983302,0.24094693719148635,-0.8736609031170606
1725629622185938000,6.52693798828125,0.04951134214401245,-0.12363339393138885,-0.7485124284476041
1725629622195892000,6.53689208984375,-0.019624737924337388,-0.23908055879771709,-0.7207368250325322
1725629622205845000,6.546844970703125,0.07872633071243762,-0.6189174957633018,-0.9689698275789618
1725629622215798000,6.556798095703125,0.3446525185987353,-0.9070470398902892,-0.7011980118259787
1725629622225751800,6.566751708984375,0.32849925617724657,-0.5033803145259619,-0.34220278735905885
1725629622235704800,6.576704833984375,-0.2586275553107262,-0.06148527305424213,-0.26196108364760873
1725629622245659000,6.586658935546875,-0.09737579386383295,-0.10987667125761508,-0.4247621203631162
1725629622255612000,6.59661181640625,-0.1931685563199222,-0.12431670002043246,-0.34837446173131464
1725629622265565000,6.60656494140625,-0.5147492652803659,-0.27170272546112534,-0.6210679517954587
1725629622275519000,6.61651904296875,-0.4125286617338657,-0.434878440707922,-0.8623334534168243
1725629622285472000,6.626471923828125,-0.496802105179429,-0.04142506632208824,-0.5627312059000135
1725629622295425000,6.636425048828125,-0.07988295340165495,0.32517537245154376,-0.6995028983458876
1725629622305378800,6.64637890625,0.03269245542064309,0.3701742056071758,-0.7721177604407071
1725629622315331800,6.656331787109375,-0.11908464458584785,0.5701368059813976,-0.7026254142805933
1725629622325284900,6.666284912109375,0.18008374155834317,0.501026444876194,-0.7743658316284417
1725629622335239000,6.676239013671875,0.0268752935744822,0.12419570398926734,-1.0338257461100817
1725629622345192000,6.68619189453125,0.03470686398297548,-0.11904080544412135,-0.877330531540513
1725629622355145000,6.69614501953125,0.21214023716300726,0.13714520193338392,-0.5912745788171887
1725629622365099000,6.70609912109375,0.3714724287241697,0.2680488791286945,-0.6439011303722858
1725629622375052000,6.716052001953125,0.39377442303374405,0.6082452951014041,-0.4512397929221391
1725629622385005000,6.726005126953125,-0.07693067946732043,0.6565963612943887,-0.6452241956695914
1725629622394958800,6.735958740234375,-0.11263736814260482,0.14310440259873866,-1.1159119086444378
1725629622404911900,6.745911865234375,-0.03258738761097193,-0.23920447743833065,-0.8931225594341754
1725629622414866000,6.755865966796875,-0.3600894494444132,-0.4637544065803289,-0.3342845615804195
1725629622424819000,6.76581884765625,-0.21828473126739262,-0.7738608047157526,-0.1914490390509367
1725629622434771000,6.77577099609375,0.2378156534284353,-0.6541817013680935,-0.13453881882727145
1725629622444725000,6.78572509765625,0.44881636516749857,-0.09923018955886363,0.35526042185276746
1725629622454678000,6.795677978515625,0.2904813679501414,-0.03531213639974594,0.5807812418535352
1725629622464631000,6.805631103515625,0.22881021693497894,-0.4968038587450981,0.17729980992823838
1725629622474585000,6.815585205078125,0.4517205621764064,-0.49760582277774806,0.24983634608983993
1725629622484538000,6.8255380859375,0.6040960664674639,-0.29290976414084435,0.3013657500579953
1725629622494491100,6.8354912109375,0.3777075237214565,-0.024845687443017957,0.3902855580046773
1725629622504445200,6.845445068359375,0.6724141081511974,-0.054578562405705446,0.4852072367146611
1725629622514398200,6.855398193359375,0.4857324296325445,-0.07414543266296386,0.30887422599196435
1725629622524351200,6.865351318359375,0.30742826496735215,-0.08124620457887649,0.1661994469821453
1725629622534305000,6.875304931640625,0.32114567854404447,-0.2863034977436065,-0.07090688913315535
1725629622544258000,6.885258056640625,0.45829847926199435,-0.2832423566073179,-0.289118847425282
1725629622554212000,6.895212158203125,0.23141689230203627,-0.07574000837802887,-0.5628647691518068
1725629622564165000,6.9051650390625,0.14188392089307308,0.09797580558359623,-0.5784352632492781
1725629622574118100,6.9151181640625,0.4406345200166106,0.16391747352480887,-0.4152949115768075
1725629622584072200,6.925072265625,0.33549452189207074,0.278471488943696,-0.18789456143975256
1725629622594025200,6.935025146484375,0.5181864001221954,0.28234160837531086,-0.043452772757411
1725629622603978200,6.944978271484375,0.5440520782627165,0.3610714462190866,-0.09103080875128507
1725629622613932000,6.95493212890625,0.45255964334905147,0.5791647465676069,-0.21559593057483434
1725629622623885000,6.964885009765625,0.6402963838785887,0.34118893414139745,-0.11972878770828246
1725629622633838000,6.974838134765625,0.8042685102000832,0.35155835246443745,0.1080830658391118
1725629622643792100,6.984792236328125,0.6183196760006249,0.7349965287923812,-0.01841594665646553
1725629622653745200,6.9947451171875,0.16225918492376804,0.64503101118505,0.15875468393415212
1725629622663698200,7.0046982421875,0.053797348900139326,0.5472387454748153,0.3550941253751516
1725629622673652200,7.01465234375,-0.06460895803272723,0.6665051763683557,0.4479842982575297
1725629622683605200,7.024605224609375,0.4380835203595459,0.4538642962068319,0.2452779521331191
1725629622693558300,7.034558349609375,0.5716461876310408,0.35757658984065055,-0.048863691890239716
1725629622703512000,7.044511962890625,0.3313165055550635,0.10208557898998259,-0.5670861862391233
1725629622713465000,7.054465087890625,-0.0259713304720819,-0.3985819694459438,-0.17359481793045997
1725629622723419100,7.064419189453125,0.05924728486910462,-0.458992891266942,0.6677025694593787
1725629622733372200,7.0743720703125,0.272228356770426,-0.31368367210030557,0.7107157817557453
1725629622743325200,7.0843251953125,-0.02099588014706969,-0.037600539597868916,0.6445905739411711
1725629622753279200,7.094279296875,0.06365268022119999,0.07982581638693809,0.2414785598501563
1725629622763232300,7.104232177734375,0.10305267045646906,-0.20927637216448783,0.1575306950971484
1725629622773185300,7.114185302734375,0.25618849159553647,-0.20294132392406464,0.1647182685136795
1725629622783139300,7.124139404296875,0.19911650493890046,-0.07301730541586876,-0.6428118738308548
1725629622793092400,7.13409228515625,-0.10073299533724785,-0.3543278171777725,-0.7973693983361124
1725629622803045000,7.144045166015625,-0.019407734172791243,-0.23858956041038035,-0.6700768973752856
1725629622812999200,7.153999267578125,0.05478431411087513,0.2646270879864693,-0.6110135907709598
1725629622822952000,7.163951904296875,-0.06156710611879825,0.7632336122393608,-0.8129825625315308
1725629622832905000,7.173905029296875,-0.11013955997750162,0.5875462059438228,-0.7179270283088087
1725629622842859000,7.18385888671875,0.1961626235693693,0.2799491602808237,-0.8572492820203303
1725629622852812000,7.19381201171875,-0.2665086639493704,0.43880642780661583,-1.3845315733984112
1725629622862765000,7.20376513671875,-0.978803531590104,-0.24240648835003376,-1.1116177185818552
1725629622872719000,7.213718994140625,-1.0971826582551,-0.43667643004059786,-0.9064365067765117
1725629622882672000,7.223672119140625,-1.1941408112287522,-0.8434832069963216,-0.2830903809159994
1725629622892625200,7.233625244140625,-1.1905343111693858,-0.4417307908207178,0.17532412594109772
1725629622902579000,7.243578857421875,-0.6602523995839059,0.030448914277553557,0.4488718947470188
1725629622912532000,7.253531982421875,-0.1448882172755897,0.42642917679250236,0.43609366171658037
1725629622922486000,7.263486083984375,0.2614733001306653,0.5846025537073611,0.2592640996485948
1725629622932439000,7.27343896484375,-0.23588234727829693,0.43536534744203087,0.029778467670083044
1725629622942392000,7.28339208984375,-0.3858274095520377,0.12480477579832076,-0.0056003042250871654
1725629622952346000,7.29334619140625,-0.522759260995686,-0.23351357232034206,0.1422998082175851
1725629622962299100,7.303299072265625,-0.6858113498628139,0.09732815532982349,0.5492322573795915
1725629622972252200,7.313252197265625,-0.3398449721865356,0.49715457187891005,0.6222410872280597
1725629622982206200,7.323206298828125,0.02134279388859868,0.6969412311643362,0.5494491150006652
1725629622992159200,7.3331591796875,0.09247428555786609,0.6346604238182306,0.35202684675902124
1725629623002112300,7.3431123046875,0.2072428205102682,0.4387643422305584,0.18808482331484555
1725629623012066000,7.353066162109375,0.0355839390784502,0.4850678282439708,0.03885726166069507
1725629623022019000,7.36301904296875,-0.3038238107345998,0.4248638271719217,-0.01737754351943731
1725629623031972000,7.37297216796875,-0.4304980336666107,0.4589233331620693,-0.0012809797212481498
1725629623041926100,7.382926025390625,-0.7371198045566678,0.6698913116753101,0.2994412117362022
1725629623051879200,7.392879150390625,-0.342551162405312,0.812543878853321,0.4257832801043987
1725629623061832200,7.402832275390625,0.06630903994888067,1.0421621973007917,0.4030734356462955
1725629623071786200,7.4127861328125,0.324962314222753,1.0146306317746638,0.18180910404622555
1725629623081739300,7.4227392578125,0.4979401692986488,1.114855677589774,0.6547451804697513
1725629623091693000,7.432693115234375,0.5061585470676422,0.9368751919209957,0.7387228558391332
1725629623101646000,7.44264599609375,0.5002063606649637,0.5410632717102766,1.0882657768279314
1725629623111599000,7.45259912109375,0.622723610047996,0.1762421175688505,1.435694482141733
1725629623121553200,7.46255322265625,0.9044918024495243,-0.06092179395258426,1.2748831579387188
1725629623131506200,7.472506103515625,0.8542848792567849,-0.21495266423523424,1.2387813324660062
1725629623141459200,7.482459228515625,0.8905527089461683,-0.13166472469568252,1.3705337354451417
1725629623151413200,7.492413330078125,0.9183543235853314,0.11435118632316589,1.3086334518492222
1725629623161366300,7.5023662109375,0.7506327816024422,0.3697831604629755,0.9662930095851421
1725629623171319300,7.5123193359375,0.665068713824451,0.0070101710230112075,0.6803706201136112
1725629623181273300,7.5222734375,0.8455272800445556,0.360846989813447,1.1766940018653869
1725629623191226400,7.532226318359375,0.9927826648429036,0.2552794139266014,0.5248509725779295
1725629623201179100,7.54217919921875,0.7288619715601206,0.39442718785405156,0.2824240259617567
1725629623211133200,7.55213330078125,1.0582748354509472,-0.013828034344315529,-0.07216156536936759
1725629623221086000,7.5620859375,0.7530126624763012,0.1626917311221361,0.11781155591011047
1725629623231039000,7.5720390625,0.5086959565907716,0.24241116452515124,-0.057817398196458814
1725629623240993300,7.5819931640625,0.3507119647681713,0.2203051311790943,0.059413727477192875
1725629623250946000,7.591946044921875,0.5120417598873377,0.10981295837163925,0.173566760879755
1725629623260899000,7.601899169921875,0.5228957468569279,0.05018588040471077,0.17843465917706489
1725629623270853000,7.61185302734375,0.8904758443176746,-0.20292203470170497,-0.36838206149339675
1725629623280806100,7.62180615234375,0.8779398956105112,-0.30914369058310986,-0.32314474340677257
1725629623290759200,7.63175927734375,0.8420578503683209,-0.3373176456660032,-0.1905810240447521
1725629623300713000,7.641712890625,0.7387956288143992,-0.5629056856840848,-0.0641577071338892
1725629623310666000,7.651666015625,0.9346277052551507,-0.8591752816468476,0.21616320906877518
1725629623320620000,7.6616201171875,0.9509431725010276,-0.8666267666965722,0.811063284906745
1725629623330573000,7.671572998046875,0.46785541215837,-0.8883961154341697,0.6156564481407404
1725629623340526000,7.681526123046875,0.29961773734688757,-1.2863795344650744,0.31494623938202854
1725629623350480100,7.691480224609375,0.5916685465708375,-0.9831295780956745,0.7520148836106062
1725629623360433200,7.70143310546875,0.5286120786771178,-0.6329933673888445,0.5503630149751901
1725629623370386200,7.71138623046875,0.2577446349963546,-1.0507055692404508,0.244888368293643
1725629623380340200,7.72134033203125,0.7204749592259526,-1.3914052585601806,0.4781336450666189
1725629623390293200,7.731293212890625,0.8942980329543352,-0.9281225611448287,0.4240788142740726
1725629623400246000,7.74124609375,0.46954964885562656,-0.5009165547609329,-0.11133446885049342
1725629623410200000,7.751199951171875,0.2950345012098551,-0.2882674912929535,-0.420627797037363
1725629623420153000,7.761153076171875,0.49304830560386176,0.3392033132821321,-0.5374748918294906
1725629623430106000,7.771106201171875,0.26174773315787314,0.595768675366044,-0.5525216543138027
1725629623440060400,7.781060302734375,-0.15224457138776779,0.28851708213984967,-0.8876280536711215
1725629623450013200,7.79101318359375,-0.20509470256567,-0.23559680833518504,-1.1157868209600448
1725629623459966200,7.80096630859375,-0.4947667999595403,-0.1857405982762575,-0.8971002308934927
1725629623469920300,7.810920166015625,-0.5789844215646386,-0.28568565810620783,-0.9772194772690534
1725629623479873300,7.820873291015625,-0.5532277567565441,-0.4010626803457737,-0.9387304643988609
1725629623489826300,7.830826416015625,-0.5097776143476367,-0.2786380776822567,-0.7274854225099087
1725629623499780000,7.840780029296875,-0.20543664787113666,-0.16500000806450843,-0.748107939299941
1725629623509733000,7.850733154296875,-0.1318199152573943,-0.2812912225395441,-0.7773392944812774
1725629623519686100,7.86068603515625,0.11729922247380017,-0.4342272833228111,-0.5441951399952173
1725629623529640200,7.87064013671875,0.0979749288007617,-0.25290099435746666,-0.3259586317837238
1725629623539593200,7.88059326171875,0.032736440692842005,-0.2522965987235308,-0.3753106917127967
1725629623549547300,7.89054736328125,0.051631987559795374,-0.4656634550720453,-0.41187399721741674
1725629623559500300,7.900500244140625,0.2018184573739767,-0.3922159415453672,-0.3889315130472183
1725629623569453300,7.910453369140625,-0.19211305591762065,-0.0777519327223301,-0.5190595296949148
1725629623579407000,7.920406982421875,-0.058006783288717265,-0.22847324006557462,-0.8565694830626249
1725629623589360000,7.930360107421875,-0.05386982961446046,-0.34192601624429225,-0.970513549889624
1725629623599313200,7.940313232421875,-0.15589710254594683,-0.1495773980051279,-0.7876724724471569
1725629623609267200,7.95026708984375,0.037306671217828984,-0.009893617504835129,-0.8694792335182427
1725629623619220200,7.96022021484375,-0.19017638876661658,-0.08121580944061278,-0.8180509518370032
1725629623629173200,7.97017333984375,-0.17544132257997988,-0.19119769463837147,-0.5611451057523489
1725629623639127300,7.980127197265625,0.14794132123589515,-0.20675591377615926,-0.24311551340222357
1725629623649080300,7.990080322265625,0.0373857278034091,-0.1042600004196167,-0.1587985230758786
1725629623659033300,8.000033447265626,0.10173194324672222,-0.16809271338284015,-0.49582040066570043
1725629623668987400,8.0099873046875,0.0616936551079154,-0.2820218749016523,-0.6565832095518708
1725629623678940400,8.0199404296875,-1.083961942154169,-0.07481821735799313,0.28727701895087954
1725629623688893400,8.0298935546875,-0.7053253208890556,-0.33926293451488015,0.22028584195673465
1725629623698847200,8.03984716796875,-0.2026584153294563,-0.3778431327998638,-0.2172267466470599
1725629623708800300,8.04980029296875,-0.34280206842646,-0.13950900845527647,-0.2777773691996932
1725629623718753300,8.059753173828126,-0.270683319285512,0.5356991143286228,0.06702829413414
1725629623728707300,8.069707275390625,-0.3271177386909723,0.9294681305348873,-0.354444429294765
1725629623738660400,8.079660400390624,0.12578224252834916,1.0303343968629837,-0.5947057223096489
1725629623748613400,8.08961328125,-0.08308832531422376,1.294614278846979,-0.3911620485782623
1725629623758567400,8.0995673828125,0.4967337161183357,1.4694424379646778,-0.3404235027268529
1725629623768520400,8.1095205078125,0.4685176754593849,1.1317255638480186,-0.5857900099262595
1725629623778473500,8.119473388671874,0.08436813599169254,0.981463106188178,-0.4673053770601749
1725629623788427300,8.12942724609375,0.44105742160379885,0.6181453423470258,-0.520582793739438
1725629623798380300,8.13938037109375,0.21426526649296282,0.3325806802719831,-0.38347353990226984
1725629623808333000,8.1493330078125,-0.4054417722128331,0.29764439144730565,0.008463876962661742
1725629623818287400,8.159287353515625,-0.27565920800194144,-0.01774491552710533,0.26253771449178454
1725629623828240100,8.169240234375,-0.10365662769898772,-0.0018996961414813995,0.4275491207331419
1725629623838193200,8.179193115234375,0.05919336272478103,0.09043722677230834,0.5141664969563484
1725629623848147200,8.189147216796876,-0.041064270185679194,-0.2615267838835716,0.29736469772309065
1725629623858100200,8.199100341796875,0.05602583860456943,-0.7403519183456897,-0.08933832561969757
1725629623868054300,8.20905419921875,0.23779344159662721,-0.9377747711092234,-0.2513417822167277
1725629623878007300,8.21900732421875,-0.07481047244295477,-0.9249252264082432,0.09348989234119653
1725629623887960300,8.228960205078126,0.3375695746004581,-0.4575543828964233,0.18228110547214746
1725629623897914000,8.2389140625,0.4186535743549466,0.10835866791009903,0.2799325014069676
1725629623907867100,8.2488671875,0.5839607486724853,0.054529462566971776,0.362124462403357
1725629623917820200,8.258820068359375,0.8094774770200253,-0.011435586249828338,0.355624871250987
1725629623927774200,8.268774169921874,0.8929246987745165,0.3537795356452465,0.34559301431924105
1725629623937727200,8.278727294921875,1.1522966427117585,0.3169312757194042,0.26284955691993234
1725629623947680300,8.28868017578125,0.6645946665719151,0.14022037159502507,0.10171119271963834
1725629623957634300,8.29863427734375,0.4295524233795702,-0.2335638412028551,0.13770166677236556
1725629623967587300,8.30858740234375,0.3990158308185637,-0.07420973007082939,0.34850539463460445
1725629623977540400,8.318540283203125,0.3438274659514427,0.45697745979130266,0.6153460670173168
1725629623987494100,8.328494140625,0.7783598697006702,0.5685784706234932,0.5915902206376195
1725629623997447200,8.338447265625,0.6944938380122184,0.503687773039937,0.49756636755019423
1725629624007400200,8.348400146484375,0.5513888508915901,0.4083557599633932,0.05967559328377246
1725629624017354200,8.358354248046876,0.47825361818447704,0.4539823696285486,-0.7854916212767362
1725629624027307300,8.368307373046875,-0.07079597610458731,0.19509937825202942,-1.0714204404890537
1725629624037260300,8.37826025390625,-0.3314052067518234,0.05363923572897911,-0.6770104960307478
1725629624047214300,8.38821435546875,-0.40881460964679717,-0.0318108502805233,-0.20847586943656204
1725629624057167400,8.39816748046875,-0.25093349367678164,0.18536650426685808,-0.14507920980304478
1725629624067120400,8.408120361328125,-0.20198300028592348,0.3759288236111402,-0.25989041485339404
1725629624077074200,8.41807421875,-0.10455255362540483,0.18500585426092148,-0.39153760389238595
1725629624087027200,8.428027099609375,0.07239493573382497,-0.15479893204569817,-0.325833251838386
1725629624096980200,8.437980224609374,-0.11316957532316446,-0.12708324212431907,-0.11833850239366292
1725629624106934300,8.447934326171875,-0.43614772999137635,-0.05927402674555778,-0.05083996039927006
1725629624116887300,8.45788720703125,-0.3573091710761189,-0.037028877189755435,0.04362988288998604
1725629624126840300,8.46784033203125,-0.42260757267773147,0.3341337549328804,0.26923838117420673
1725629624136794400,8.47779443359375,-0.013484335473179817,0.5813911904454231,0.2086369052171707
1725629624146747400,8.487747314453125,0.014629998376965521,0.6832260095447301,-0.02915653637945652
1725629624156700400,8.497700439453125,-0.19174509938806295,0.4621358654677868,-0.1784463496148586
1725629624166654500,8.507654541015626,-0.5858274193271994,0.1492722775787115,-0.19009440957158802
1725629624176607500,8.517607421875,-0.8164584219485521,-0.07223521512746811,0.08957388794124126
1725629624186560300,8.527560302734376,-0.7732862196981907,-0.09864508314728736,0.46539515952467914
1725629624196514300,8.537514404296875,-0.5463412121132016,-0.06356266385018826,0.8606289875864982
1725629624206467000,8.547467041015626,-0.1416121182143688,0.028882980135083197,0.7607192913308739
1725629624216420000,8.557420166015625,-0.053179801523685455,0.200350138387084,0.7177627776578068
1725629624226374100,8.5673740234375,0.28119711451530455,0.17910159865319727,0.11972177344560622
1725629624236327200,8.5773271484375,-0.20200360468253492,-0.0007978723794221877,0.10758476092815399
1725629624246281500,8.587281494140624,-0.3791618141829967,0.40867140178382394,0.1284890172690153
1725629624256234200,8.597234130859375,-0.6771648098096251,0.37993630568683145,0.17086685427129267
1725629624266187300,8.607187255859374,-0.12443418892025947,0.286561856418848,0.24381927775740622
1725629624276141000,8.61714111328125,-0.13171324001252652,0.7369429866850375,-0.07444792274087667
1725629624286094000,8.627093994140624,-0.631553543844074,0.46042380085289475,-0.13749153115302323
1725629624296047000,8.637047119140625,-0.48588615888953207,0.057577744221687314,-0.2827811688363552
1725629624306001200,8.647001220703125,-0.4963298114925623,0.17435002021193502,-0.027406770102679726
1725629624315954200,8.6569541015625,-0.7722995467483997,0.4106944320440292,-0.005527823510766029
1725629624325907200,8.6669072265625,-0.6252157191246748,0.36086920164525504,-0.00743570295870304
1725629624335861200,8.676861328125,-0.1972732151597738,0.5981365735411643,-0.0959942763775587
1725629624345814300,8.686814208984375,-0.2710103592827916,0.6665951927393674,-0.19827333211302756
1725629624355767300,8.696767333984376,0.18419862953126429,0.6739508161991834,-0.18585984074175357
1725629624365721300,8.706721435546875,0.2716571327537298,0.8423854748874903,-0.1727045910924673
1725629624375674400,8.71667431640625,0.20012392841577528,0.6879027691841125,-0.4613444228291511
1725629624385627400,8.72662744140625,-0.056258478316664695,0.6240659645676613,0.014600772282481193
1725629624395581200,8.736581298828124,0.1014800143122673,0.30825171017944814,0.14742285031974314
1725629624405534200,8.7465341796875,0.13867080406546592,-0.13998188666403294,0.38381051677167416
1725629624415487200,8.7564873046875,0.11158932039439677,-0.10311667560338973,0.7787228577941656
1725629624425441300,8.766441162109375,0.2050529092505574,0.04430500567257404,0.7331161218732595
1725629624435394000,8.77639404296875,0.48061990892440076,-0.025414427241683003,0.7173276011109352
1725629624445347000,8.78634716796875,0.7853641955047845,0.022999767315387724,0.7282669282764196
1725629624455301000,8.796301025390624,0.5530632138445973,0.21000001026391982,0.7474655497431755
1725629624465254100,8.806254150390625,0.33552082537710665,0.39485856500864025,0.74037003852427
1725629624475207200,8.816207275390624,0.2893412580043077,0.39260698668956756,0.6235299579948187
1725629624485161000,8.826160888671875,0.4599973921343684,0.14788579165637492,0.8248299444526433
1725629624495114000,8.836114013671875,0.667286097612977,0.14580138659775257,0.6452537140250205
1725629624505067000,8.84606689453125,0.5688444280833006,0.11963292611837387,0.2764443670302629
1725629624515021000,8.85602099609375,0.6929211818680167,0.22569793013334272,0.5065519302994013
1725629624524974000,8.86597412109375,0.6511103310987353,0.32655835124254223,0.9128297149449587
1725629624534927000,8.875927001953125,0.4053340740546584,0.28901334122419353,0.9354840298235416
1725629624544881200,8.885881103515626,0.33624446347653864,0.12328326531946658,0.8905243596345186
1725629624554834200,8.895834228515625,0.7259954762130976,0.09221592688262462,0.7257219199687243
1725629624564787200,8.905787109375,0.9795601951763033,0.389178181284666,0.7080360411524772
1725629624574741200,8.9157412109375,0.8471785543829202,0.47553953692018985,0.4428074801415205
1725629624584694300,8.9256943359375,0.49439972021281714,-0.013936755415797232,0.3619447219222784
1725629624594647300,8.935647216796875,0.418404860290885,-0.037701661884784694,0.7024474273651838
1725629624604601000,8.94560107421875,0.6665300185486674,-0.1862812810242176,0.628098581084609
1725629624614554000,8.95555419921875,0.7364870596110821,-0.2068687265008688,0.6089513975441455
1725629624624507100,8.965507080078124,0.8185030795186757,-0.1209253040164709,0.866629104784131
1725629624634461200,8.975461181640625,1.07836514506042,0.021298808616399763,0.40218788498342034
1725629624644414200,8.985414306640624,1.0794339433357119,-0.17995149348080158,0.03355272551178932
1725629624654367200,8.9953671875,0.5201777200698853,-0.07137187629640102,0.09975333665013313
1725629624664321300,9.0053212890625,0.4759463641554117,0.022851298755407333,-0.06878828954398632
1725629624674274300,9.0152744140625,0.403826007579267,0.12262567819356918,-0.47536593391895293
1725629624684227300,9.025227294921875,0.07569646149724721,0.596406388747692,-0.665251376914978
1725629624694181000,9.03518115234375,0.07852028674632311,1.14114104244709,-0.8765630542993545
1725629624704134100,9.045134033203125,-0.17054273688346147,0.9157657683968543,-1.1338292581290006
1725629624714087200,9.055087158203126,-0.26013445274233815,0.3365256185054779,-0.8381330781400204
1725629624724041200,9.065041259765625,-0.0984036756068468,0.18735563225746155,-0.1899111619591713
1725629624733994200,9.074994140625,-0.13385083656311034,-0.12418342902958393,0.21598551441431044
1725629624743948300,9.0849482421875,-0.20200521211773156,-0.8180752094954252,0.3822860836833715
1725629624753901300,9.0949013671875,0.3063587360396981,-1.0866413904964922,0.805861624610424
1725629624763854000,9.10485400390625,0.569740792401135,-0.7267489249289035,1.0441963334769009
1725629624773808000,9.11480810546875,0.7634776501283049,-0.6440156966626643,0.9154565563172101
1725629624783761200,9.12476123046875,1.0759808802723885,-0.757009623157978,0.7123427984356879
1725629624793714000,9.1347138671875,0.8090443462997674,-0.5201414797127246,0.7970499571233988
1725629624803668200,9.144668212890625,0.5584706258460879,-0.3246785288453102,0.6429027669847012
1725629624813621000,9.15462109375,0.44152942302972076,-0.38647944371998305,0.7078174299657345
1725629624823574000,9.164573974609375,0.36834786696285005,-0.1325280635267496,0.6335474941402673
1725629624833528000,9.174528076171875,0.10548924995362759,-0.14245032260417936,0.19501403805613515
1725629624843481000,9.184481201171875,0.13787936142683027,-0.2829945193260908,-0.11384265227913856
1725629624853434000,9.19443408203125,-0.2610305247992277,-0.29433424398601055,-0.39838790817856784
1725629624863388200,9.20438818359375,-0.5753355436682701,-0.17294716767668722,-0.4208867402344942
1725629624873341200,9.214341064453125,-0.5865829138696194,0.14567103821635247,-0.514614825245738
1725629624883294200,9.224294189453126,-0.8255956681281328,0.16741817512214183,-0.5242465769439936
1725629624893248000,9.234248046875,-0.36168782455176113,0.12558452799916267,-0.49612113717794415
1725629624903201000,9.244200927734376,-0.11043021348714828,0.6244447347521782,-0.49791737294495103
1725629624913154000,9.254154052734375,-0.0888923354178667,0.6865799961477518,-0.870914819279313
1725629624923108000,9.264108154296874,0.10515753378123044,0.02201134079992771,-0.9751303960353136
1725629624933061000,9.27406103515625,-0.08964549187272787,-0.03925415202379227,-0.6737658150210977
1725629624943014100,9.28401416015625,0.03776829738020897,-0.007171499064564705,-0.562157497665286
1725629624952968200,9.29396826171875,0.23704583809971808,0.15305530324876307,-0.22114041295945644
1725629624962921200,9.303921142578124,0.17427198653966186,0.7013380048185587,-0.15583441257327793
1725629624972874200,9.313874267578125,-0.16650310610383748,0.5933113453418016,-0.22959289174526928
1725629624982828000,9.323828125,-0.11000380476862191,0.2118658041357994,-0.3537681374683976
1725629624992781000,9.333781005859375,-0.2129877939030528,0.060849897760152816,-0.5446797086417675
1725629625002734000,9.343734130859374,-0.2758043155610561,0.2889589806884527,-0.6079366675436496
1725629625012688100,9.353688232421876,-0.3653805415898561,0.23230478105247018,-0.6626306730225682
1725629625022641200,9.36364111328125,-0.26244448325037956,0.33709260473847386,-0.34546821889579293
1725629625032594200,9.37359423828125,-0.19006810608655214,0.7533604530006647,-0.33714491944760083
1725629625042548200,9.38354833984375,-0.37714346009790894,0.6698509796649217,-0.9091896048769355
1725629625052501200,9.393501220703126,-0.20338439151644705,0.13079144899249076,-0.9929793564587831
1725629625062454300,9.403454345703125,0.08499006728231906,-0.15968670408725738,-0.8785770244702696
1725629625072408300,9.413408203125,-0.04616261623799801,-0.1774368803113699,-1.09029202195853
1725629625082361300,9.423361328125,-0.3163932233199477,0.20095511854290962,-0.7683008325010537
1725629625092314400,9.433314453125,-0.4579125486843288,0.34238369688391684,-0.5232157725915313
1725629625102268200,9.44326806640625,-0.5204715884499251,0.03920855931639671,-0.6648907269090414
1725629625112221200,9.45322119140625,-0.44710137794315813,-0.16781740357279776,-0.663117872017622
1725629625122174000,9.463174072265625,-0.008144143489003181,-0.3552478546321392,-0.19232436058074234
1725629625132128300,9.473128173828124,0.9773664845243096,0.3747100954711437,-0.10249912822693585
1725629625142081300,9.483081298828125,0.4470575388014316,0.5654740748673677,-0.1497644450098276
1725629625152034000,9.493033935546874,0.8630009774148464,-0.07660743886232375,-0.19460458047240972
1725629625161988400,9.50298828125,0.966707143343985,0.04082710042893886,-0.15078531249016522
1725629625171941000,9.512941162109374,0.33343554353564975,-0.3986567882478237,-0.44044776527285573
1725629625181895200,9.522895263671876,0.34574031383544207,-0.5182429526150226,-0.2642608850225806
1725629625191848000,9.532847900390625,0.2087698839470744,-0.49087914487123485,-0.27127047152370215
1725629625201801000,9.542801025390625,0.2571539756268263,-0.4538397462874651,-0.24807635067999362
1725629625211755000,9.552755126953125,0.5672143426634371,-0.15130173757970333,-0.47328941990584134
1725629625221708000,9.5627080078125,0.5159541110254824,0.08839198468029498,-0.2541235218897462
1725629625231661000,9.5726611328125,0.7993880446821451,-0.05072773219645023,-0.012090250766277313
1725629625241615000,9.582614990234376,0.37253275143206116,0.03858019828498363,0.039081133544445035
1725629625251568000,9.592568115234375,0.22989085177853702,0.18267068931162356,0.24710136816799638
1725629625261521200,9.602521240234376,0.15584581075012682,0.09918576589524745,0.9763596455693244
1725629625271475200,9.61247509765625,-0.09246785581707954,-0.1443009189069271,0.7578866982534528
1725629625281428200,9.62242822265625,0.19840689536482095,0.367587111723423,0.6932435456901789
1725629625291381200,9.63238134765625,0.22925708391964433,0.5532248341470957,0.7911664520427584
1725629625301335000,9.6423349609375,0.10864566815793514,0.7715764931708574,0.8286220302119851
1725629625311288000,9.6522880859375,0.20722820746302603,0.7202274142056703,0.8503799807727337
1725629625321241000,9.662240966796874,0.03580167348235845,0.6239075591355562,0.8864344599723816
1725629625331195100,9.672195068359375,0.025131080255657433,0.33725393278002735,1.0234887687519192
1725629625341148200,9.682148193359374,0.2510845925852656,0.33537177229523657,1.0826719023436306
1725629625351101200,9.69210107421875,0.6373511242069304,0.47852352116703983,1.0962032918289304
1725629625361055200,9.70205517578125,0.6794016289509832,0.7312853993147611,0.994109821793437
1725629625371008300,9.71200830078125,0.46215530082061884,0.7403560099989175,0.8984384937599301
1725629625380961300,9.721961181640625,0.42049627961218355,0.6046820496618748,0.7203598084136843
1725629625390915000,9.7319150390625,0.12188976513445376,0.5145896908044815,0.7544085007488727
1725629625400868000,9.7418681640625,0.1538040757894516,0.5073620776385068,0.5692915873289108
1725629625410821000,9.751821044921876,-0.007465513575077056,0.4366150552421808,0.24131752406954765
1725629625420775200,9.761775146484375,-0.22917612763792275,0.16635960597991942,-0.07513356691747904
1725629625430728200,9.771728271484376,-0.5105307708024979,0.0002601122409105301,0.03636719841063022
1725629625440681000,9.781680908203125,-0.44591333720237014,0.07179857727587223,-0.15661474929600952
1725629625450635000,9.791635009765624,-0.5647679724246263,-0.004874328038096428,0.05913140340447425
1725629625460588000,9.801588134765625,-0.17301117282360792,-0.11248246984183788,0.30249504634886976
1725629625470541000,9.811541015625,-0.16710589430257677,0.019934534525871277,0.26622107917964455
1725629625480495000,9.8214951171875,-0.4104512709379196,-0.11544190416932106,-0.09936492185443639
1725629625490448000,9.83144775390625,-0.0695334088228643,-0.5669926627367735,-0.3105041652813554
1725629625500401000,9.84140087890625,-0.25447905732914805,-0.6093079558968544,-0.12217851894795893
1725629625510355000,9.85135498046875,-0.501554268142581,-0.29200667782127854,-0.09982786319106816
1725629625520308000,9.861307861328125,-0.32316388649865985,-0.19327800804376602,-0.01073269867748022
1725629625530261000,9.871260986328124,-0.16274024643898008,-0.03628068917095661,0.2539662855014205
1725629625540215000,9.881215087890626,-0.2058440596282482,0.27335867597460745,0.3484019342601299
1725629625550168000,9.89116796875,-0.11109466874524951,0.3990747213989496,0.13659808944463728
1725629625560121000,9.90112109375,0.06185556767135858,-0.07280804657936096,-0.3277756180778146
1725629625570075100,9.9110751953125,-0.018863690423965452,-0.21460428918898106,-0.48720717836022376
1725629625580028200,9.921028076171876,-0.5854518640130758,-0.22703414717316625,-0.5886717028424143
1725629625589982000,9.93098193359375,-0.5192617742687463,-0.04066401882171631,-0.7040095621153711
1725629625599935000,9.94093505859375,-0.4814155893467366,0.11337328120172023,-0.6273460091516375
1725629625609888000,9.950887939453125,-0.9309794118806719,0.5509732558280229,-0.8385089257150888
1725629625619842000,9.960842041015624,-0.8752654157042503,0.3004179478138685,-0.6788467715471983
1725629625629795000,9.970795166015625,-0.4451072815164923,0.16261866588592527,-0.5572197490021586
1725629625639748000,9.980748046875,0.008770458693802356,0.6273036313146353,-0.8426116848587989
1725629625649702100,9.9907021484375,-0.11545125651955604,0.2952110268205404,-0.9271142608851194
1725629625659655200,10.0006552734375,0.24415625462681054,0.07781915273964404,-0.5586249396249652
1725629625669608200,10.010608154296875,0.3839426187187433,0.21963059291839598,-0.37643385052382944
1725629625679562000,10.02056201171875,-0.2589493346109986,0.09399696508049965,-0.3976178005889058
1725629625689515000,10.030514892578125,-0.2448310851484537,-0.5771382091760635,-0.5681102685898543
1725629625699468000,10.040468017578124,0.1868862611800432,-0.7884884650051593,-0.3496533956259489
1725629625709422000,10.050422119140626,0.608799421852827,-0.029283377629518506,-0.23682138169407843
1725629625719375000,10.060375,0.4906804074287414,0.7686983073860406,-0.5192150125175714
1725629625729328000,10.070328125,0.288659997741878,0.8747726637512445,-0.6075473759651183
1725629625739282200,10.0802822265625,0.41796939148306844,0.8704495398551225,-0.5838479359477758
1725629625749235200,10.090235107421876,-0.08733166197240352,0.6507207472592592,-0.579295094949007
1725629625759188200,10.100188232421875,-0.11247750140577555,0.5295639725744724,-0.33460955575108525
1725629625769142300,10.110142333984374,0.41861148877888915,0.5047995336741209,-0.18130816878676415
1725629625779095300,10.12009521484375,0.5835346322149038,0.4452630566000938,-0.19018238011598587
1725629625789048000,10.130048095703126,0.7165311900362372,0.44003684638440604,-0.02016658971607685
1725629625799002000,10.140002197265625,0.9181412653565406,0.31229251000285146,0.2651286077678203
1725629625808955000,10.149954833984374,1.1336571164324878,0.19263912561833857,0.50435354347229
1725629625818908000,10.159907958984375,1.1106734234690665,0.1262713412195444,0.7125204930901528
1725629625828862000,10.169862060546874,1.0804746845602988,-0.12836451410651206,0.8425625850200653
1725629625838815000,10.17981494140625,1.06944095710963,-0.19461948578059673,0.8908136979699134
1725629625848768000,10.18976806640625,1.040399571542442,-0.2496890465736389,0.6094102472275496
1725629625858722000,10.19972216796875,0.9720385674998163,-0.2689350143134594,0.8398673545867205
1725629625868675000,10.209675048828124,0.844312351296842,-0.04515080884695053,0.9360206209182739
1725629625878628000,10.219628173828125,0.7471618906214833,-0.10100421349406241,0.7015472636550665
1725629625888582000,10.229581787109375,0.6597671002849936,-0.0820382317394018,0.6004542028337717
1725629625898535000,10.239534912109375,0.8360469195157288,0.4404138630032539,0.73097034201622
1725629625908488000,10.249488037109375,0.9201064279496669,0.21028116529285906,0.49100598612129687
1725629625918442000,10.25944189453125,0.6875131853446363,0.06594926672577858,0.4415168558090925
1725629625928395000,10.26939501953125,0.32794191455543037,-0.20674831499159335,0.5387748685121536
1725629625938348000,10.27934814453125,0.1972732151597738,-0.4791992284715175,0.30404841327071186
1725629625948302000,10.289302001953125,0.3903454714983701,-0.2550999657064676,0.3311526932954788
1725629625958255000,10.299255126953126,0.527438650983572,0.29305998626649377,0.5200660763889551
1725629625968209200,10.309209228515625,0.5448059653699397,0.5069482361406088,0.34412557211518285
1725629625978162200,10.319162109375,1.102056401771307,0.4082371020197868,0.07212298692464827
1725629625988115200,10.329115234375,0.8881248972773551,0.3404004141122103,0.05300736756622791
1725629625998069000,10.339069091796874,0.5372580342084169,0.10358487763702869,0.4063087643057108
1725629626008022000,10.34902197265625,0.585826542544365,0.1274614277869463,0.3033393882185221
1725629626017975000,10.35897509765625,0.5080570741653442,0.013684826481342316,0.2898614824861288
1725629626027929000,10.36892919921875,0.49076487084180115,-0.08500760293900966,0.5720189664661884
1725629626037882000,10.378882080078125,0.7702244940400124,-0.12922317676246164,0.5602957954466342
1725629626047835100,10.388835205078125,0.3196712220773101,-0.4669575865358114,0.2720937706053257
1725629626057789200,10.3987890625,0.16286737994998693,-0.7224912674844265,0.05599719703197479
1725629626067742200,10.4087421875,0.26280630230009555,-0.3319634251564741,0.12968845618665217
1725629626077695200,10.4186953125,0.15316986953914163,-0.0754337189078331,0.01870177786052227
1725629626087649000,10.42864892578125,0.15805208862274883,-0.2394289338439703,-0.17520634478032587
1725629626097602000,10.43860205078125,0.5064928935885429,-0.34694472118914127,-0.024833412483334538
1725629626107555000,10.44855517578125,0.5486410134881734,-0.3061766574710607,-0.285034500721097
1725629626117509000,10.458509033203125,0.611636106583476,-0.6700894645959139,-0.3870078515082597
1725629626127462100,10.468462158203126,0.3724710843726992,-0.7693290065050125,-0.2669733588516712
1725629626137415200,10.478415283203125,0.1738730503499508,-0.9029133010864258,-0.26511048758924005
1725629626147369200,10.488369140625,0.34818916829228397,-0.9269646232813596,0.03348433645069599
1725629626157322200,10.498322265625,0.5796995840966701,-0.7567612013548612,0.029220833787322043
1725629626167275000,10.50827490234375,0.6276105053067207,-0.3221533942818641,0.10562544355392456
1725629626177229000,10.51822900390625,0.1011836617141962,0.07052373503446578,-0.47592590588927264
1725629626187181800,10.528181884765624,-0.1694093489393592,-0.1849742900788784,-0.7418857037842274
1725629626197134800,10.538134765625,0.024597850161790846,-0.19213117609620092,-0.8861644108593464
1725629626207089000,10.5480888671875,-0.44763767677694555,0.05122691389024257,-0.9100853846728801
1725629626217042000,10.5580419921875,-0.00996931308954954,-0.3293061886459589,-1.1747849533736705
1725629626226995000,10.567994873046874,0.07763064443022012,-0.5557844555020331,-1.0781921265810728
1725629626236949000,10.577948974609376,-0.012179098093509673,-0.06761047793626784,-0.8843944785773754
1725629626246902000,10.587902099609375,-0.28244623779356476,0.346409883660078,-0.8617728969246149
1725629626256855000,10.59785498046875,-0.37337855460643765,0.1715367163568735,-0.9167313985586166
1725629626266809000,10.60780908203125,-0.37796325204819436,-0.30536183395683764,-0.7430012638106942
1725629626276762000,10.61776220703125,-0.44769437540024515,-0.3730190736442804,-0.6963426807492971
1725629626286715100,10.627715087890625,-0.6504696951076387,-0.333849092772603,-0.4733122162595391
1725629626296669000,10.6376689453125,-0.10658961241096257,-0.18380232369005678,-0.3314490458935499
1725629626306622000,10.6476220703125,0.24880890273824333,0.3922691330373287,-0.7410901694923638
1725629626316575000,10.657574951171876,-0.5630547387659549,0.592342792570591,-0.6383633699893951
1725629626326529000,10.667529052734375,-0.3279413300335407,0.14105214624404908,-0.7302651163563132
1725629626336482000,10.67748193359375,-0.25686507568284866,-0.06270809284746647,-0.734819710920751
1725629626346435000,10.68743505859375,-0.3466751104675233,-0.0647369683265686,-0.5472434216499328
1725629626356389000,10.69738916015625,-0.2732591611228883,-0.05081716404557228,-0.22329408386200666
1725629626366342100,10.707342041015625,0.07497150822356342,0.06419394749104976,0.13221855918616054
1725629626376295200,10.717295166015624,0.1905243254214525,0.1794049655139446,0.22106179476529358
1725629626386249000,10.7272490234375,-0.025039602579921483,0.3167109109669924,0.35053894628882404
1725629626396202000,10.737201904296874,0.26006489463746546,0.14476912094056604,0.015502689558267592
1725629626406155000,10.747155029296875,0.08696341318190097,0.3738642922967672,-0.11674509572237729
1725629626416109000,10.757109130859375,-0.02263780213519931,0.3626362113177776,-0.2318526533707976
1725629626426062000,10.76706201171875,0.08906476937532425,0.39797815833389755,-0.18924188439548015
1725629626436015000,10.77701513671875,-0.11854498475119471,0.6281523570984602,-0.18876345322877167
1725629626445969400,10.786969482421876,0.09460326041057705,0.7468032864421605,-0.2908747511819005
1725629626455922400,10.79692236328125,-0.10722235735654831,0.45030397337675093,-0.649223494438827
1725629626465875500,10.80687548828125,-0.1976296273820102,0.31751462856531143,-0.4710653141155839
1725629626475829200,10.816829345703125,0.2511078273303807,-0.13420213421881197,-0.396690456610918
1725629626485782300,10.8267822265625,0.25220249069929124,0.05626549257934093,0.26463117963969707
1725629626495735300,10.8367353515625,0.21546178280115127,0.2862883001744747,0.47727995084673164
1725629626505689300,10.846689453125,0.44546486278250813,0.181470665872097,0.5039531459778547
1725629626515642400,10.856642333984375,0.15210048674196003,-0.011543722799420356,0.5867769751369952
1725629626525595400,10.866595458984374,0.563597467340529,-0.5342050763785838,0.6759682935014367
1725629626535549400,10.876549560546875,0.5174991485103965,-0.22003332850039004,0.6957280559822917
1725629626545502500,10.88650244140625,0.638894261995703,-0.08685410758852959,0.2649061971887946
1725629626555455500,10.89645556640625,0.4749808801241219,-0.009834580793976783,0.23924188683927058
1725629626565409500,10.906409423828125,0.5313076013714074,0.1945329765409231,0.3525301201060414
1725629626575362600,10.916362548828126,0.6325178588315844,0.3592816401928663,0.35529607768803834
1725629626585315600,10.926315673828125,0.6714638216890394,0.03579553600251675,0.1324982529103756
1725629626595269400,10.936269287109376,0.17777970239967106,-0.15157880095541476,0.1087777701050043
1725629626605222400,10.946222412109375,-0.07865911069512367,-0.22824936818182467,0.4130553159564733
1725629626615175400,10.956175537109376,0.3078625647313893,-0.3168833449244499,0.48242754286825656
1725629626625129500,10.96612939453125,0.7012848133265972,-0.19287585698366164,0.2783057769879699
1725629626635082500,10.97608251953125,0.6929613677479326,-0.01786474251449108,0.12989157754331826
1725629626645035500,10.986035400390625,0.30843554231375453,0.32296471066474913,0.20256810669749975
1725629626654989600,10.995989501953124,0.017214315781742335,0.057118894538283345,0.46486908982396125
1725629626664942600,11.005942626953125,-0.2588005737900734,0.0361462491363287,1.0305714204892515
1725629626674895600,11.0158955078125,0.6120161919422448,0.026069676280021666,1.3025173070564866
1725629626684849400,11.025849365234375,0.9779907539024949,0.4042401413381099,0.7035583112165331
1725629626694802400,11.035802490234374,1.0644342348635196,0.5353893177270889,0.0850058493733406
1725629626704755500,11.04575537109375,0.7560049761600792,0.5041980606496334,0.06405950745642185
1725629626714709500,11.05570947265625,0.354987157869339,0.6150812786012888,-0.12417846059352158
1725629626724662500,11.06566259765625,0.06313377091363072,0.2051514011889696,-0.8026654589176178
1725629626734616600,11.075616455078125,-0.5247212087184191,-0.11598609404861926,-0.726759154061973
1725629626744569600,11.085569580078126,-0.6743921302258968,0.28727497312426564,-1.0915309161037205
1725629626754522400,11.0955224609375,-0.9259276814490556,0.22122692219913004,-1.5995608100011944
1725629626764475400,11.105475341796875,-1.0428799901813268,-0.2282522907912731,-1.1183742071047424
1725629626774429400,11.115429443359375,-0.6201835701763629,-0.22297522717118262,-0.6976806513547897
1725629626784382500,11.125382568359376,-0.10775251871049403,-0.1449246037632227,-0.45316666933149097
1725629626794336300,11.135336181640625,-0.02218961997628212,-0.0767360336780548,-0.5163055548116564
1725629626804289300,11.145289306640626,0.24560148499906062,-0.10667992104291915,-0.4241811056047678
1725629626814242300,11.1552421875,0.2293444699421525,0.26268296818137166,-0.4010574196487665
1725629626824196400,11.1651962890625,-0.2237614091128111,0.28148586832880973,0.10867810912281274
1725629626834149400,11.1751494140625,0.21393384258151052,0.43630935029387474,0.16379297036230564
1725629626844102400,11.185102294921874,-0.44501551157981156,0.3486147002279758,0.3113882546395063
1725629626854056400,11.195056396484375,-0.6945829776003957,-0.42366263468861576,0.2698766790777445
1725629626864009500,11.205009521484374,-0.3189902540758252,-0.6810381441116332,0.3159299897223711
1725629626873962500,11.21496240234375,-0.11000395089909433,-0.3911041809111833,0.29014205299317836
1725629626883916300,11.224916259765624,-0.2593831959836185,-0.18247545900046824,0.2555529701709747
1725629626893869300,11.234869384765625,-0.2864285854279995,0.03248948019444942,0.5309758851990103
1725629626903822300,11.244822265625,-0.029950901627540587,-0.01015022261440754,0.5366431171804666
1725629626913776400,11.2547763671875,-0.32391280516982074,-0.0013935001850128173,0.25185586921870706
1725629626923729400,11.2647294921875,-0.44914296677336096,-0.19392098212242126,-0.08958791646659374
1725629626933682400,11.274682373046875,-0.4625799559734761,-0.6812286982476711,-0.34234862557053564
1725629626943636500,11.284636474609375,-0.895890124451369,-0.43798342098593707,-0.3118623018920421
1725629626953589500,11.294589599609376,-0.946219212719053,-0.13069500288069247,-0.5098857508972287
1725629626963542500,11.30454248046875,-0.6259148073047399,0.055666357642412186,-0.4768664016097784
1725629626973496300,11.314496337890626,-0.4643023958519101,0.4454594559550285,-0.49050534312278027
1725629626983449300,11.324449462890625,-0.23758710536956787,0.5627765063464641,-0.7459647897914051
1725629626993402400,11.33440234375,-0.5779644308671354,0.19940145936012266,-0.903985021971166
1725629627003356400,11.3443564453125,-0.581160012038052,0.09456336679160594,-0.7836106298357248
1725629627013309400,11.354309326171874,-0.25346038180589675,0.3465437391728163,-0.7566597868070006
1725629627023262500,11.364262451171875,-0.4503881445288658,0.4887818803310394,-0.8195815224051475
1725629627033216500,11.374216552734374,-0.3016881138801574,0.4397738115340471,-0.9031845192432403
1725629627043169500,11.38416943359375,-0.11087298881858587,0.1162193182826042,-0.9720482121109962
1725629627053122600,11.39412255859375,0.18473989680111408,0.045618426358699796,-0.5927607257217169
1725629627063076600,11.40407666015625,0.13557166900634765,0.3846621651649475,-0.2717056480705738
1725629627073029600,11.414029541015625,0.19552783279716968,0.43090369185805316,-0.1606225236326456
1725629627082982700,11.423982666015625,0.4002285676091909,0.3698901279687881,-0.05688917743563652
1725629627092936400,11.4339365234375,0.19068214633166788,0.2836690575867891,0.14310790973007678
1725629627102889500,11.443889404296876,0.16072276913672684,0.05859598135352134,0.20920973666906356
1725629627112842200,11.45384228515625,0.0663908730134368,-0.12273498378694057,0.4099503356784582
1725629627122796500,11.463796630859376,0.10135697245448827,-0.18350714013576505,0.6893383549451828
1725629627132749300,11.473749267578125,0.33105507813990115,-0.15182313110530377,0.9927969856292008
1725629627142702300,11.483702392578126,0.29180326420366764,-0.13799042058587074,1.0141589226096868
1725629627152656400,11.493656494140625,0.4566486662283539,-0.33148996242582796,1.0659878940463066
1725629627162609400,11.503609375,0.46651364216059443,-0.7644681224703789,0.8063228123813867
1725629627172562400,11.5135625,0.2186760686725378,-1.2847948956221342,0.9046990154594182
1725629627182516200,11.52351611328125,0.5179284798383712,-0.7506757439613342,1.1076496917337177
1725629627192469200,11.53346923828125,0.8659946062728762,-0.33693361478447914,0.757293116274476
1725629627202422300,11.54342236328125,0.8867512708365917,0.15716916830837727,0.20256722991466522
1725629627212376300,11.553376220703125,0.785934104347229,0.581436198630929,-0.03546937278807163
1725629627222329300,11.563329345703124,0.8573746619656681,1.1858066981256008,-0.11543898155987262
1725629627232282400,11.573282470703125,0.5092077055051922,0.845979699987173,0.0172626849681139
1725629627242236400,11.583236328125,0.4361582513853907,0.8571259479016065,0.10513444516658782
1725629627252189400,11.593189453125,0.6175009069636463,0.650128042063117,0.04144084841310978
1725629627262142500,11.603142578125,0.6208496328696608,0.5425549715727568,-0.06210603530108928
1725629627272096500,11.613096435546876,0.6480892297118902,0.3617734570086002,0.008953706306219101
1725629627282049500,11.623049560546875,0.6326145972043276,0.2477905194759369,-0.07634089688062667
1725629627292002600,11.63300244140625,0.6047276423692702,0.08241407931447028,0.040621933245658874
1725629627301956400,11.642956298828125,0.5927928744256497,0.12761983321905135,0.2976701104104519
1725629627311909400,11.652909423828126,0.3713496791273355,0.02079261265993118,0.414611313226819
1725629627321862400,11.6628623046875,0.5098170695751905,-0.11860767472386359,-0.18185060510039328
1725629627331816400,11.67281640625,0.48223318933993575,0.07846504942774772,-0.22797522741556167
1725629627341769500,11.68276953125,0.6236249428018927,0.2882961328655481,-0.16962240716814994
1725629627351722500,11.692722412109376,0.6796180481806398,-0.1574859791725874,-0.149110949537158
1725629627361676500,11.702676513671875,0.7461144273951649,-0.7696101615339517,0.42821664473116394
1725629627371629600,11.712629638671874,0.6234440332770347,-0.7474187879920006,0.9582628478646278
1725629627381582600,11.72258251953125,0.14022446324825286,-0.7164601706266402,0.7625918072044849
1725629627391536400,11.732536376953124,0.5662620103746653,-0.4350748400628566,0.5323971501737833
1725629627401489400,11.742489501953125,0.6376210271894931,0.03612403730452061,0.6706126116871833
1725629627411442400,11.7524423828125,0.5118748788878321,-0.35118425845503803,0.7170517067790031
1725629627421396500,11.762396484375,0.5542822342455387,-0.9210025000065565,0.7029308269679546
1725629627431349500,11.772349609375,-0.15501199027448892,-0.7813695729106664,0.5718167218923569
1725629627441302500,11.782302490234375,0.3231745540231466,-0.6508604479908943,0.22800503803193567
1725629627451256600,11.792256591796875,0.3769575821369886,-0.19047464106082915,0.1419043791592121
1725629627461209600,11.802209716796876,-0.042078854055702684,0.039946225941181183,0.03815758895874023
1725629627471162400,11.812162353515625,-0.10656827736198901,0.040301030728220937,0.02290975094437599
1725629627481116400,11.822116455078126,-0.0033697686940431593,0.06730652655363083,0.08166063059866428
1725629627491069400,11.8320693359375,0.18110943134427068,0.023536358410120008,-0.01706044039428234
1725629627501022500,11.8420224609375,-0.14079261852502822,0.024165303963422775,-0.2739642406523228
1725629627510976500,11.8519765625,0.3088146047592163,0.0626893881469965,-0.3023351796120405
1725629627520929300,11.86192919921875,0.35173926198929545,0.6685591862887144,-0.3017576719850302
1725629627530882300,11.87188232421875,-0.33661446583271026,1.0041747042119502,-0.5522901836454868
1725629627540836400,11.88183642578125,-0.5045590029165149,0.8069383139312267,-0.7323907302081585
1725629627550789400,11.891789306640625,-0.3992550464019179,0.7715770776927471,-0.6218015267670154
1725629627560742400,11.901742431640624,-0.22929478558152913,0.6521873126804828,-0.818090407064557
1725629627570696400,11.911696533203125,-0.6360743822693824,0.5282137270092964,-1.1006424433201552
1725629627580649500,11.9216494140625,-0.843995248171687,0.33936288775801654,-1.0372186034187674
1725629627590602500,11.9316025390625,-0.6276943841978907,0.19396832839548586,-0.5155357394829392
1725629627600556300,11.941556396484375,-0.1428001589551568,0.22899814072251318,-0.04162877220064402
1725629627610509300,11.95150927734375,-0.04283990155607462,0.4227081104427576,0.026952888855338097
1725629627620462300,11.96146240234375,0.07057838783115149,0.14182722226977348,0.0024348259314894674
1725629627630416400,11.97141650390625,0.32438071494251486,-0.10566168391108512,-0.05442863254100084
1725629627640369400,11.981369384765625,0.17807050203979014,-0.12043021397590636,-0.3029156098484993
1725629627650322400,11.991322509765626,0.14557108497321605,-0.37798400257527826,-0.5367497924253344
1725629627660276500,12.0012763671875,-0.09557955809682607,-0.3750274908572435,-0.2109039733663201
1725629627670229500,12.0112294921875,-0.11014379776120185,-0.15294599765539169,-0.15147154118865727
1725629627680182500,12.0211826171875,-0.20279037114605306,-0.123931500095129,-0.268844413420558
1725629627690136300,12.03113623046875,-0.022900252463668582,-0.36674247759282586,-0.4740533900156617
1725629627700089300,12.04108935546875,0.02059095260798931,-0.19785656800568102,-0.29081659125387666
1725629627710042400,12.05104248046875,-0.08339198443591594,0.18656068248748778,-0.40234512137174605
1725629627719996400,12.060996337890625,-0.5375250145815312,0.20576105751991272,-0.562386922506988
1725629627729949400,12.070949462890624,-0.5948449846498668,-0.5433031595915556,-0.5910416468441486
1725629627739902500,12.08090234375,0.0654559302508831,-0.6926239524871111,-0.4086971207469702
1725629627749856500,12.0908564453125,-0.3897887143984437,-0.25904256585240365,-0.609064210268855
1725629627759809500,12.1008095703125,-0.3291037979416549,-0.22731705576777456,-1.0695444174841047
1725629627769762600,12.110762451171874,0.059853872460126877,0.05072948576211929,-0.9763318807795643
1725629627779716600,12.120716552734375,-0.030426556315273044,0.20158055696487426,-1.460562673677504
1725629627789669600,12.130669677734375,-0.18037877898216245,0.40738954527974125,-0.8921545911848544
1725629627799622700,12.14062255859375,-0.3360632616907358,0.023892916762828825,-0.7985670836880803
1725629627809576400,12.150576416015625,-0.3710059802561998,0.14596855985820292,-0.12346446710526943
1725629627819529500,12.160529541015626,-0.05816255837231874,-0.311017667761445,-0.42244712141901253
1725629627829482200,12.170482177734375,-0.0023683365665376184,-0.059389762079715726,-0.07543897960484028
1725629627839436500,12.1804365234375,0.2744154915511608,-0.5847387473076582,-0.25291560740470886
1725629627849389600,12.1903896484375,0.45790173502936954,-0.27070903824865816,0.07427578104436397
1725629627859342300,12.20034228515625,0.15180705675333736,0.14377543372809887,0.5406318945556878
1725629627869295400,12.21029541015625,0.5111600086167455,-0.356563028883934,-0.5153934084028006
1725629627879249400,12.22024951171875,-0.25759938130676746,-0.15642974811792373,-0.45246378175914287
1725629627889202400,12.230202392578125,0.2937054445631802,-0.29126258145570755,-0.29484540837854145
1725629627899155500,12.240155517578126,0.3523340130120516,-0.21149872438907621,-0.10435966140180826
1725629627909109200,12.250109130859375,0.30509821458458897,-0.16617898871600628,-0.4474456613361835
1725629627919062300,12.260062255859374,0.6451946773141622,-0.364271119043231,-0.8397904899582266
1725629627929015300,12.270015380859375,0.47213250495567916,-0.299991831356287,-0.6141635792344808
1725629627938969300,12.27996923828125,0.35699922834411263,-0.29000235226154325,-0.6114744862809777
1725629627948922400,12.28992236328125,0.18404504640474914,-0.3583434825599193,-0.5149333896756172
1725629627958875400,12.29987548828125,-0.05553834734857082,-0.13186872283518314,-0.31944764245450497
1725629627968829400,12.309829345703125,0.1471855344325304,-0.19631226117312908,-0.0842713976189494
1725629627978782500,12.319782470703124,0.029625907456874847,-0.27468437162041665,0.27274434346854687
1725629627988736500,12.329736572265626,0.03678703125789761,-0.4160732024729252,0.23654753318876026
1725629627998689500,12.339689453125,-0.21944939113259315,-0.35003918007314205,0.029362872606515884
1725629628008642600,12.349642578125,0.017699322819709776,-0.2605810274660587,0.07396393861621618
1725629628018595600,12.359595703125,0.5612243084684014,0.023178046491742134,0.3742529993534088
1725629628028549400,12.36954931640625,0.3605899463124573,0.5502110392838716,0.6279726166173816
1725629628038502400,12.37950244140625,0.16385200707316397,0.14888181695640088,0.27352789506167174
