time,seconds_elapsed,z,y,x
1725631147202793500,0.02679345703125,0.5302461096197366,-0.07710603603422642,-0.7765468289293348
1725631147212746500,0.03674658203125,0.16058452970981596,0.47044952030479903,-0.9065209701895713
1725631147222699500,0.046699462890625,-0.9619956046521663,0.26127368590533734,-0.27254714039601385
1725631147232652500,0.056652587890625,-1.5434972697347402,0.1138449903666973,0.4203219459585845
1725631147242605600,0.06660546875,-1.4584931739270686,0.7271048987597226,1.0341269210137427
1725631147252559400,0.076559326171875,-1.388970724889636,1.8348831853091716,2.1366941949166356
1725631147262512400,0.086512451171875,-1.1280284628957509,0.8147136241078377,1.5070863783128559
1725631147272465400,0.09646533203125,-1.1106249081522226,-0.24874504372179507,0.4184058832041919
1725631147282418700,0.106418701171875,-0.7048457206785679,-0.3737123166054487,-0.4179575549148023
1725631147292371700,0.116371826171875,-0.5609925455391407,-1.0657716209471224,-1.1829729360044001
1725631147302324700,0.12632470703125,0.4717407291591167,-0.7895785983294248,-2.098861161737144
1725631147312277800,0.13627783203125,1.477722190532088,-0.6036299102604389,-2.3299419539526105
1725631147322230800,0.146230712890625,1.5293588542670011,-1.264914137110114,-2.4141636672109366
1725631147332183800,0.156183837890625,1.3732792347609997,-1.053732223585248,-2.275606406522542
1725631147342136800,0.16613671875,0.9945224942475557,-1.0842851827591657,-1.7494689012654125
1725631147352089900,0.17608984375,0.841263192859292,-0.7638730791866779,-1.393079329252243
1725631147362043000,0.18604296875,0.7315612936466932,0.13084054883122442,-0.54244172045663
1725631147371996000,0.195995849609375,1.003304351118207,0.46698622810840607,0.8047254601873457
1725631147381948700,0.20594873046875,1.448784849861264,0.8647755858719348,1.813324848973751
1725631147391901700,0.215901611328125,1.507077464354038,0.8851379904210567,1.385724728705734
1725631147401854700,0.225854736328125,0.5937848080724477,1.2887018399327992,-0.1103662083402276
1725631147411807700,0.235807861328125,-0.15058628278672695,1.1608745014429092,-1.201270809239149
1725631147421760800,0.2457607421875,-0.8258522732377052,1.1185381654947995,-1.9364714823015032
1725631147431713800,0.2557138671875,-1.838927492263913,1.9055062890648842,-2.1527038110837338
1725631147441666800,0.265666748046875,-2.616797532621026,4.648219773596525,-0.6236879250355064
1725631147451619800,0.275619873046875,-3.7517771298289295,3.9331753149867055,-1.2278304609932005
1725631147461572900,0.28557275390625,-3.822629950687289,2.415868717563152,-2.6338082886546847
1725631147471526000,0.29552587890625,-3.750474815058708,3.6545395753920076,-2.3656208778381345
1725631147481479000,0.30547900390625,-3.222424754178524,4.837184010094404,-1.3991238701134918
1725631147491433000,0.315432861328125,-3.215466021081805,4.732288049858808,-1.0342901487514375
1725631147501386000,0.325385986328125,-2.894633061748743,4.276737408000231,-1.9015277408227322
1725631147511338800,0.3353388671875,-2.0854975300341843,3.332767289382219,-2.8981504222199317
1725631147521291800,0.345291748046875,0.24139643452465534,2.378836917763948,-3.435430375999212
1725631147531244800,0.355244873046875,-1.4628823487967253,5.575834969741106,-1.6864581722095608
1725631147541197800,0.36519775390625,-3.3027345546901223,6.416845649144053,-1.2390128031343222
1725631147551150800,0.37515087890625,-2.968214430788159,6.433457761248945,-2.525766139347851
1725631147561104000,0.385103759765625,-1.5178794288754462,6.629578883764148,-1.373783677151799
1725631147571057000,0.395056884765625,0.6996095735907554,7.126274021437764,0.23675708428621292
1725631147581010000,0.405010009765625,2.9943560032606125,7.539576005631685,2.6673320803329346
1725631147590963000,0.414962890625,4.4657051516294475,7.970159964016079,5.145997445809841
1725631147600916000,0.424916015625,5.0460278360605235,9.021503831160068,6.9744543974637985
1725631147610869000,0.434868896484375,5.915630403697491,8.986426088038087,7.17596481180191
1725631147620821800,0.44482177734375,6.585203735464811,8.330580252850055,7.087049680030345
1725631147630774800,0.45477490234375,6.633129854243993,8.37193576106727,7.421018599790334
1725631147640727800,0.464727783203125,6.52024698690772,9.36755306481421,7.5424682199418545
1725631147650680800,0.474680908203125,6.745966544350981,10.099315433990954,7.090178625705838
1725631147660633900,0.4846337890625,7.568009488433599,10.366229171609877,6.008851123708486
1725631147670587000,0.4945869140625,8.280470944812894,10.777360826027392,4.777621229535341
1725631147680540000,0.504539794921875,8.983923165306448,10.739950256043672,3.447227781298756
1725631147690493000,0.514492919921875,10.152115296286343,10.435559312945603,1.4494728321254253
1725631147700446000,0.524446044921875,9.377359004035592,10.668396593439578,-1.5282447555452585
1725631147710399700,0.534399658203125,6.413240902650356,10.929593706977366,-4.68066132299602
1725631147720352800,0.544352783203125,3.2212901971906422,10.784390286272764,-6.126753280511498
1725631147730305800,0.554305908203125,3.981864234831929,11.015770938217639,-5.02837293690443
1725631147740258800,0.5642587890625,6.0303778958618635,8.156393898767233,-8.35837777583599
1725631147750211800,0.5742119140625,4.71579751830697,5.46004819765687,-12.007388943195343
1725631147760164900,0.584164794921875,3.9482168167740106,6.852025118625163,-13.082796992015838
1725631147770117600,0.59411767578125,2.3639257643580436,5.391422989720106,-14.143462229734657
1725631147780070700,0.604070556640625,-0.052823535431921476,5.80018791500628,-14.429037413203716
1725631147790023700,0.614023681640625,-3.4043200752034783,0.8279869471788406,-22.291265994811056
1725631147799976700,0.623976806640625,-4.071436661468446,-0.0751893887579441,-33.723681797909734
1725631147809929700,0.6339296875,-4.099457471816241,-2.8644974512040613,-28.899809689331054
1725631147819882800,0.6438828125,-3.3776927650406954,-0.8665575008526444,-20.467468851661682
1725631147829835800,0.653835693359375,-7.906005179491639,-7.681708932849764,-13.729981966364383
1725631147839788800,0.663788818359375,-8.93958893353939,0.9632231006205081,-8.910780772206186
1725631147849741800,0.673741943359375,-11.040009891939162,0.9724678988277912,-12.696018857610225
1725631147859694600,0.683694580078125,-11.453749683028459,-2.6074153717696666,-13.107474337154626
1725631147869647600,0.693647705078125,-12.9486983181715,5.433306905725598,-2.3319097468942402
1725631147879600600,0.7036005859375,-12.571005992019176,3.6447441575646398,4.399771666994691
1725631147889553700,0.7135537109375,-12.620136225891113,0.947158101004362,-3.917625279155373
1725631147899506700,0.723506591796875,-18.485058186614513,-9.775245976954698,-28.441217195558547
1725631147909459700,0.733459716796875,-9.433961765745282,2.9942028585255143,-0.4460413474962115
1725631147919412700,0.743412841796875,-3.8161107780516144,9.353946564266085,13.629710743319988
1725631147929366800,0.75336669921875,-0.6766507228076457,0.3654641282200813,-2.414741467098892
1725631147939319800,0.76331982421875,-4.415234316803515,-3.737432378134131,-9.564301379317044
1725631147949272800,0.77327294921875,-2.7790070331841705,-2.7742531166553497,-5.6624891708433625
1725631147959225900,0.783225830078125,-2.0483599317729473,0.039705402922630306,-1.626705129775405
1725631147969179000,0.793178955078125,0.7423018833696842,-0.39792145971059795,-2.0828078525587914
1725631147979132000,0.8031318359375,0.889072407260537,-4.285670071518421,-11.187400593554973
1725631147989084700,0.813084716796875,-1.5377300845101476,-2.890343255600333,-6.844020675867796
1725631147999037700,0.82303759765625,0.032277298748493194,3.794817230132222,9.266478124171496
1725631148008990700,0.83299072265625,-6.28189941855967,-0.7034335157930851,3.004021364967525
1725631148018943700,0.84294384765625,-5.499952922543883,-2.543127316254377,1.5462060903020203
1725631148028896800,0.852896728515625,6.805959533020854,-6.4452978366464375,1.4245745377123356
1725631148038849800,0.862849853515625,-15.416937858963012,1.355571728634834,7.590835652747749
1725631148048802800,0.872802734375,-18.082692022454737,1.6239619685471056,5.561282712775468
1725631148058755800,0.882755859375,-2.5972639801114794,-2.7939000664114952,2.5971692875653503
1725631148068708900,0.892708984375,11.776716731780766,-11.83378243482709,-5.891058272498846
1725631148078662000,0.902661865234375,35.74063303046226,-27.890906203031538,-20.97786635147333
1725631148088614700,0.91261474609375,1.8696341806948185,-15.208203923112153,-13.221453767555952
1725631148098567700,0.922567626953125,-4.577307331505417,-8.201011039128899,-11.785188792049883
1725631148108520700,0.932520751953125,-0.2658776725694537,-7.898978641855717,-7.953218766087293
1725631148118473700,0.9424736328125,0.7477914206966757,-8.263286585777998,-9.94171313496232
1725631148128426800,0.9524267578125,0.8378457856312393,-8.375981821587681,-9.042494012218713
1725631148138379800,0.9623798828125,2.6578710090264677,-6.6455708181440825,-4.620167983588576
1725631148148333800,0.972333740234375,3.753922617425024,-1.8868810835719108,1.3707938476860522
1725631148158286800,0.982286865234375,7.734005521798133,-3.2801340158253907,3.1937077782601118
1725631148168239900,0.992239990234375,7.677665794938802,-4.606998120892047,1.871694474225491
1725631148178193000,1.00219287109375,7.722948705732822,-6.009055706369876,1.4444889062330126
1725631148188146000,1.01214599609375,-3.9316742627739902,0.1138274547100067,-1.189923047403246
1725631148198099000,1.022098876953125,-11.29315229383707,6.134383044737577,-0.48697921482324596
1725631148208052000,1.032052001953125,-7.630603599512576,7.221251229727268,-1.1694608357414602
1725631148218004700,1.042004638671875,-4.0203851041451095,5.970763092854619,-3.3728915022388097
1725631148227957800,1.051957763671875,-0.8998705723896622,6.716922820696234,-2.1825622121222317
1725631148237910800,1.061910888671875,1.8339131712332366,7.0820052561223505,-1.2605375294610857
1725631148247863800,1.07186376953125,2.435919571945071,6.079940675932169,-1.3620542225219308
1725631148257816800,1.08181689453125,3.768912389025092,3.2821441866040226,0.4510875249698758
1725631148267769900,1.091769775390625,1.132383150973916,2.442407764920592,-0.03356909212470054
1725631148277723000,1.101722900390625,-0.5650909207686782,1.180143850058317,-0.5661266935572028
1725631148287675600,1.111675537109375,-1.3228116148054598,0.31254736154675483,-0.766383016180992
1725631148297628700,1.121628662109375,-2.583126441426575,0.03407821069061756,-0.47372108932137486
1725631148307581700,1.131581787109375,-1.6419973914533852,-1.8686779028832912,-1.5380644310310483
1725631148317534700,1.14153466796875,-2.7438950955316423,-0.8085410729527474,-0.9424559146627783
1725631148327487700,1.15148779296875,-1.9288821962162852,-1.2562410013109444,-1.2663462157398462
1725631148337440800,1.161440673828125,-1.1665808963909745,-0.604884878757596,-1.499316621094197
1725631148347393800,1.171393798828125,-0.6135363872468471,0.2604185303807258,-0.7393729903109372
1725631148357346800,1.181346923828125,0.3230558960795402,1.6831787121474742,-0.029502281077206132
1725631148367299800,1.1912998046875,1.1012766495704651,2.7383354155778883,0.36593861386403437
1725631148377254000,1.20125390625,2.3848574932277202,1.7044219911843537,-0.11342822625935077
1725631148387207000,1.21120703125,2.268193938308954,1.4329653494387864,0.14044658156633377
1725631148397159700,1.22115966796875,1.4322916879609227,0.983878350636363,0.23513839704319833
1725631148407112700,1.23111279296875,0.7800714959241449,-0.7712702037006616,0.027670243344455957
1725631148417065700,1.241065673828125,-0.019374562555551526,-1.938069419017434,-0.04819090719521046
1725631148427018800,1.251018798828125,0.25268735160678624,-2.7180805630564686,-0.07745908725559711
1725631148436971800,1.2609716796875,0.22265549369752405,-3.2192005314350127,0.3346437502816319
1725631148446924800,1.2709248046875,0.7327116327255964,-3.8188895951151847,0.6072913553774356
1725631148456877800,1.2808779296875,1.052578815766424,-3.999012353509664,0.11283084488809109
1725631148466830800,1.290830810546875,0.18287761006057263,-3.310282485851645,0.41877603169083594
1725631148476783900,1.300783935546875,0.49813773769736286,-2.733729967609048,-0.31685879500508307
1725631148486737000,1.31073681640625,0.20418694007098673,-3.902942673808336,-0.22030834604948757
1725631148496690000,1.32068994140625,0.29750520217232407,-3.1921377524644137,-0.6101718792498111
1725631148506642700,1.330642578125,-0.5483609544377773,-1.8440438123643397,0.07787585136294364
1725631148516595700,1.340595703125,-0.19076744999494402,0.34435236660838126,-0.4891629886031151
1725631148526548700,1.350548828125,-1.251129941907525,-0.451157959857583,-0.9807119955599307
1725631148536501800,1.360501708984375,-1.871960577815771,1.2480150247573851,-0.4185118277966976
1725631148546454800,1.370454833984375,-1.0039467406749725,1.081953524941206,-0.09774930335134267
1725631148556407800,1.38040771484375,-0.6124632050573825,-0.21115619456171988,-0.9600742812007665
1725631148566360800,1.39036083984375,-1.1045359436273574,-0.5721797099858522,-1.4538707748234272
1725631148576313900,1.40031396484375,-1.5213403829842804,3.5496541365504264,0.4398053757160902
1725631148586267600,1.410267578125,1.2459253590017556,-1.0047317535728215,2.9908421499207614
1725631148596220700,1.420220703125,-0.4522667978823185,2.6540888601392507,-0.4757143089652061
1725631148606173700,1.430173583984375,-0.8999462679743766,7.039120638641714,-1.25967185254246
1725631148616126700,1.440126708984375,-0.6212474000155925,2.923479217004776,-1.4403957917004824
1725631148626079700,1.450079833984375,-0.013945541510451584,4.121411821731924,-0.45380847436636684
1725631148636032500,1.460032470703125,0.7234627428650856,5.1648307410955425,-0.5210200161129236
1725631148645985500,1.469985595703125,0.042546252371743316,4.608104036307335,-0.8378107143178581
1725631148655938600,1.4799384765625,-0.6393149716258049,2.3797423421710726,-0.5190621600434184
1725631148665891600,1.4898916015625,-0.3857680805802345,1.378338271716237,0.028450726197659967
1725631148675844600,1.4998447265625,-0.4198983137190342,0.8769500077903271,-0.14604279413819313
1725631148685797600,1.509797607421875,-0.8052993145525456,0.05078267725408077,-0.46506168978661294
1725631148695750700,1.519750732421875,-1.0710428393483162,-0.7053998474299907,-0.9123276106417179
1725631148705703700,1.52970361328125,-1.2100596803724766,-0.2756388958662748,-0.5876508353620767
1725631148715656700,1.53965673828125,-1.1325123303115368,0.013828618866205214,-0.4409206434816122
1725631148725609700,1.549609619140625,-0.7789969985604286,1.1564040780305862,-0.5798474681347608
1725631148735562800,1.559562744140625,-0.5196013814866542,-1.1677554931282996,-0.623784809538722
1725631148745515500,1.569515625,-0.9084639209508896,-1.5069126291811465,-0.663720221824944
1725631148755468500,1.579468505859375,-0.16336042416393756,0.8763222312808037,0.47651598073691126
1725631148765422600,1.589422607421875,1.3451508723855017,-1.299047292858362,0.567715131792426
1725631148775375600,1.599375732421875,-0.8644821558833121,-4.874794486564397,0.7665446364834905
1725631148785328600,1.60932861328125,-2.1033792236834765,-1.8628233316361904,-1.0540630629748104
1725631148795281700,1.61928173828125,-1.675088929194212,-0.04214110563695431,-1.407616680909693
1725631148805234700,1.629234619140625,-0.6572276449352502,0.9047288260757923,-1.144145777221024
1725631148815187700,1.639187744140625,-0.4697714749127626,-0.24320377620756625,-0.5860495376452803
1725631148825140700,1.649140625,-0.3080377386352047,-0.2628998258024454,-0.38533641116470096
1725631148835093800,1.65909375,-0.3413508467048406,-1.4339479307353495,0.2677922740191221
1725631148845046800,1.669046875,-0.2937303963413462,-2.6182898170053956,0.6794549665734172
1725631148854999800,1.678999755859375,-0.3048924628794193,-4.637147759962081,0.673703563439846
1725631148864952800,1.688952880859375,-0.504245406922698,-4.161158725708723,0.9134338183179497
1725631148874905600,1.698905517578125,-0.3162122772624716,-4.891099140155315,1.091535884539783
1725631148884858600,1.708858642578125,0.1941454385280609,-4.070459048607945,0.9285898863956331
1725631148894811600,1.718811767578125,0.43828094262778755,-3.2539176245510575,0.5081932677656412
1725631148904764700,1.7287646484375,0.20809034071769564,-3.3029695324897763,0.3143611329704523
1725631148914717700,1.7387177734375,-0.7813421003818511,-1.725643058389425,-0.16567980702221394
1725631148924670700,1.748670654296875,-1.3993711228728294,-0.7780237696141004,-1.2611501084014773
1725631148934624800,1.758624755859375,-3.0551901189297435,-0.26584756969213486,-1.4018044874995945
1725631148944577800,1.768577880859375,-1.9897750563353298,-0.03946399538218975,-1.1436468877881765
1725631148954530800,1.77853076171875,-1.9147955109357833,0.19734218874275683,-0.7252993106424808
1725631148964483800,1.78848388671875,-0.9397252475898712,0.3469306926637888,-0.68204206045717
1725631148974436900,1.798436767578125,-1.288989424702525,1.0715922899246215,-0.9527335630491376
1725631148984390000,1.808389892578125,-0.40991698139812793,3.172918088209629,-0.3928463484033942
1725631148994343000,1.818343017578125,-0.85089026838243,3.255496418175101,-1.3022525186404585
1725631149004295700,1.828295654296875,-0.46698038288950916,4.135741375857592,-1.8958695689305662
1725631149014248700,1.838248779296875,0.10514324952755123,5.978367138117552,-1.9293851773023605
1725631149024201700,1.84820166015625,-0.6364391239285468,4.683601468101144,-0.8443436232179403
1725631149034154800,1.85815478515625,-1.0925526603668927,3.2340070554226634,-0.9929428238406777
1725631149044107800,1.868107666015625,-0.9168552441339939,1.2873872502028942,-0.6643339698091149
1725631149054060800,1.878060791015625,-0.8782966731589287,1.1233429354280233,0.060652913883328434
1725631149064013800,1.888013916015625,-0.49564708992540835,0.9272954626709222,0.0850605021700263
1725631149073966800,1.897966796875,-0.40710247196666893,1.090726613983512,-0.7018900857433676
1725631149083920600,1.907920654296875,-0.44894028380811213,0.5492617757350206,-1.7368188246592877
1725631149093873700,1.917873779296875,-0.12855499517731367,-0.4797492635697126,-0.6371107395797968
1725631149103826700,1.92782666015625,-1.0436538240980355,0.13407237035930156,-0.5322568649202585
1725631149113779700,1.93777978515625,-1.2116495068471878,0.825738875991106,-0.8361065407484769
1725631149123732700,1.947732666015625,-0.49924138809032736,0.4836322424829006,-0.9427595737844705
1725631149133685500,1.957685546875,-0.1861165189165622,0.051178983095288275,-0.8737173094794154
1725631149143638500,1.967638427734375,-0.2814939785700291,0.023444588473439214,-0.6488602140843868
1725631149153591600,1.977591552734375,-0.37054998011700807,0.07363339148759841,-0.48478901130259033
1725631149163544600,1.987544677734375,-0.2952653873562813,-0.15757015032470226,-0.4197019143640995
1725631149173497600,1.99749755859375,-0.042245808120444414,-0.09215221399664879,-0.9990899482935667
1725631149183450600,2.00745068359375,-0.11934117663018405,0.19228841248452663,-1.1199395567253232
1725631149193403600,2.017403564453125,0.08333755083493888,0.29811551609039305,-1.0445444162622093
1725631149203356700,2.027356689453125,0.2019184106171131,0.02833352955877781,-0.5815791142329574
1725631149213309700,2.037309814453125,0.6055049834173173,-0.6838239754378795,-0.29531331815123557
1725631149223262700,2.0472626953125,0.7781020955473185,-0.8730044850349425,0.11829437099099159
1725631149233215700,2.0572158203125,0.2924673541355878,-0.6025426995456218,-0.0845420312538743
1725631149243169800,2.067169677734375,-0.5288624001763761,-0.7792226240098475,-0.049750411596894265
1725631149253122800,2.077122802734375,-0.6756014329504221,-1.20731184296906,0.08210662080049515
1725631149263075600,2.08707568359375,-0.612221797516942,-1.1958470306247473,0.7931590871647
1725631149273028600,2.097028564453125,-0.011188260425254701,-1.1270651708215473,1.2023346390783787
1725631149282981400,2.1069814453125,0.3474222755730152,-0.713959585982561,1.2459008090823889
1725631149292934400,2.116934326171875,-0.004424173117801547,-0.07152794364094733,0.6389432157039642
1725631149302887400,2.126887451171875,-1.114572184473276,0.002713350611925125,0.358845879124105
1725631149312840400,2.13684033203125,-1.588133114796877,-0.02677928585410118,0.21051292822211978
1725631149322793200,2.146793212890625,-0.998404888638854,0.36720074275434017,0.4005579456940293
1725631149332746200,2.156746337890625,0.1995703861862421,0.8441600833445787,0.5079384162217379
1725631149342699300,2.16669921875,0.7191828735888004,0.822316500326991,0.24442279660850763
1725631149352652300,2.17665234375,0.7330057933665811,0.6091296767205,-0.23324761486053466
1725631149362605300,2.186605224609375,0.1783160012334585,0.6879582987636327,-0.7176420738875866
1725631149372558300,2.196558349609375,-0.24824878463745115,0.3449912490338087,-0.449694024784863
1725631149382511400,2.206511474609375,-1.1389720278449356,-0.42733284763395785,-0.029066812269389626
1725631149392464400,2.21646435546875,-0.6663565616779029,-0.7469207753419875,0.3567594282388687
1725631149402417400,2.22641748046875,0.22694427693262695,-0.7624404160350561,0.9100751555398106
1725631149412371500,2.236371337890625,0.37916254483535883,-0.8377192366421222,0.9207324508935213
1725631149422324500,2.246324462890625,0.15668123866096137,-1.0442886879354716,1.0896274205699563
1725631149432277500,2.256277587890625,0.1600339100897312,-0.9082318657606839,1.4251792256072162
1725631149442230500,2.26623046875,0.27443887242674825,-1.6303870331585406,1.6683306871056556
1725631149452183300,2.276183349609375,-0.13417232360243797,-2.442919221574068,1.6157427139952778
1725631149462136300,2.28613623046875,-0.5614373666971921,-2.3722680607676505,1.3144044364660978
1725631149472089300,2.29608935546875,-0.7113526183545589,-1.964278211507201,0.7644105470642447
1725631149482042400,2.30604248046875,-0.6328074894279241,-1.2192062789022922,0.5847437157437205
1725631149491995400,2.315995361328125,0.051123745776712894,-0.21677520348727702,0.8574109023228287
1725631149501948400,2.325948486328125,0.7833750675141811,-0.2910375405281782,1.0824468614161014
1725631149511901400,2.3359013671875,0.7924412942841649,-0.06649988634586333,0.8935732258111238
1725631149521854500,2.3458544921875,0.42510786506086584,0.6446954956203699,0.9299570830956101
1725631149531807500,2.355807373046875,0.7122603808492421,0.8621616039812564,1.402240248568356
1725631149541760500,2.365760498046875,1.4639303965449333,0.8651093478709458,2.1464304299026726
1725631149551713500,2.375713623046875,1.9046710072845219,0.9056628920555114,1.9820240038171408
1725631149561666300,2.385666259765625,1.1339819644726812,1.3339561091542242,0.7386340085119009
1725631149571620400,2.395620361328125,0.6035892859891057,1.7652759805977343,-0.244649591101706
1725631149581573000,2.405572998046875,0.22941797356978058,2.069940479940176,-0.9887076704889536
1725631149591526100,2.415526123046875,-0.4336860160529613,2.0391110419124363,-1.3434212721139192
1725631149601479200,2.425479248046875,-0.2821075073584914,2.088445273923874,-1.5210101281166075
1725631149611432200,2.43543212890625,-0.022759382688254115,2.2566923010855913,-1.9288313428118824
1725631149621385200,2.44538525390625,-0.13515402811616659,2.247440488615632,-2.316213580590486
1725631149631338200,2.455338134765625,-0.1622811044946313,1.8184037596732376,-2.2658511745750904
1725631149641291300,2.465291259765625,0.2986830868452787,2.0318015956819058,-1.7468810767292975
1725631149651244300,2.475244384765625,0.4401236478850245,2.4188018484055993,-1.330989660564065
1725631149661197300,2.485197265625,0.20904957767128943,2.058978356420994,-0.8656815948009491
1725631149671150300,2.495150390625,0.2871042927324772,1.8587725949406624,-0.1524485695272684
1725631149681103400,2.505103271484375,-0.30020401280224324,2.0815116752684113,-0.9618763621866703
1725631149691056000,2.51505615234375,0.0122933721229434,1.9278502228200434,-1.5159575209021567
1725631149701009200,2.525009033203125,0.5264854419119656,1.4345143324464558,-1.5187193868309259
1725631149710962200,2.534962158203125,0.35979499654248354,0.7701017444431781,-1.1723135948240757
1725631149720915200,2.544915283203125,0.35773207266330714,0.2616314133018255,-0.9594704700887202
1725631149730868200,2.5548681640625,0.551746139896661,-0.14401917935609818,-0.4246995765209198
1725631149740821200,2.5648212890625,0.5629647223949432,-0.3741045307934284,0.5024257902801037
1725631149750775300,2.574775390625,-0.17000336930975318,-0.24439269373118877,0.0698696550399065
1725631149760728300,2.584728271484375,-0.3419482280761003,-0.4837760348677635,-0.40714521512985224
1725631149770681300,2.594681396484375,0.2505398181840777,-0.5292763878047466,-0.06356383289396762
1725631149780634400,2.60463427734375,0.41594753026664255,-0.5816396122485399,0.5896072301268577
1725631149790587400,2.61458740234375,0.4850722121581435,-1.1002812087923288,0.3678396251797676
1725631149800540400,2.62454052734375,0.4312932756975293,-1.5172756177634,-0.02661152807176113
1725631149810493400,2.634493408203125,0.3105198012419045,-1.5590782852262257,-0.0029418986707925796
1725631149820446200,2.6444462890625,0.293278743583709,-1.8023095339626072,0.12082593529522419
1725631149830399200,2.654399169921875,0.13761661883741616,-1.6694225739955901,-0.15039748221635818
1725631149840352300,2.664352294921875,-0.6194996795654296,-1.5572691899776459,0.01827858401238918
1725631149850305300,2.67430517578125,-0.7215880350343883,-1.3653151240140198,-0.13086509875059127
1725631149860258300,2.68425830078125,0.015223872616887091,-1.2483990556389093,0.5911240644305944
1725631149870211300,2.69421142578125,0.04571604151427745,-1.4194418509989977,0.35362931351959703
1725631149880164400,2.704164306640625,0.1770015576340258,-1.8178098854333162,0.7233762336254119
1725631149890117400,2.714117431640625,1.1694110052503646,-1.5933669237971304,2.7782261119395493
1725631149900070400,2.7240703125,1.6355349174410103,-2.3121342023223637,2.8549396415248514
1725631149910023400,2.7340234375,0.12027356210947036,-2.082377936708927,-0.10583470239043236
1725631149919976400,2.7439765625,-0.43091757425293326,-2.445487026235461,-1.865880673380196
1725631149929930500,2.753930419921875,-0.9167107941620052,-1.7863199376702308,-1.6555328725919127
1725631149939883500,2.763883544921875,-0.5598252553254366,-1.1337339810609817,-0.5121110257312655
1725631149949836300,2.773836181640625,-1.570217518877983,-0.77295187317729,-0.9465841005086898
1725631149959789300,2.783789306640625,-2.0099970295004543,-0.5613450122386217,-1.9967250216037034
1725631149969742300,2.793742431640625,-1.4187760805666445,-0.4287339466035366,-3.1904055218443275
1725631149979695400,2.8036953125,-1.2490049125775695,0.2598404382318258,-3.001659604272246
1725631149989648400,2.8136484375,-1.1154868151001631,0.735038029846549,-2.4346093661293384
1725631149999601400,2.823601318359375,-1.3220049745976925,0.23172785794734954,-1.7313646509066223
1725631150009554400,2.833554443359375,-1.4746654333099722,-0.2199959190994501,-0.8846779716938733
1725631150019507500,2.843507568359375,-0.3834709095537662,-0.012322890478372574,-0.1920174865886569
1725631150029460500,2.85346044921875,-0.8451660455167294,0.6908803236901759,-0.32620939167439933
1725631150039413500,2.86341357421875,-1.4167698553107677,0.8135147697120905,-0.7161565115049481
1725631150049366500,2.873366455078125,-0.9529546584539115,0.5008610251814126,-0.4533119230210781
1725631150059319300,2.8833193359375,-1.0568307741224765,0.40478666930496693,-0.18334698113799094
1725631150069272300,2.893272216796875,-0.9846269770465791,0.3818827635794878,-0.32211890749037264
1725631150079225300,2.903225341796875,-0.830217628840357,0.16173428426682948,-0.03974485815018415
1725631150089179400,2.913179443359375,-0.4986990248419344,0.09600538229346275,-0.2735521527200937
1725631150099132400,2.92313232421875,-0.5217914388768374,0.5054606279313564,-1.1560013424485922
1725631150109085400,2.93308544921875,-0.9824975638024508,0.10322831928431987,-0.9220195680946112
1725631150119038500,2.94303857421875,-1.4837801753967998,1.0269184509396552,-0.7750508912831544
1725631150128991500,2.952991455078125,-1.1386188304930924,0.5285211855232715,0.26368366965651513
1725631150138944500,2.962944580078125,1.5501286705732344,-2.577660284975171,0.22053777089118956
1725631150148897500,2.9728974609375,-0.42922611403465266,0.4125426902592182,-0.7410898772314191
1725631150158850300,2.982850341796875,0.28963293442726135,-1.4577233585983513,0.5844619761928915
1725631150168803300,2.99280322265625,-0.35325945729389785,-1.482583074566722,0.08585369837433099
1725631150178756400,3.00275634765625,-0.8331102815419436,-2.676878199574351,-0.1033864324554801
1725631150188709400,3.01270947265625,-1.6200900955498219,-2.5343168178111313,-0.14898235472142696
1725631150198662400,3.022662353515625,-2.9601363382726906,-1.5317863736748694,1.3075640690520405
1725631150208615400,3.032615478515625,-1.4799422046691177,-1.8288859907209871,3.1343522107109427
1725631150218568400,3.042568359375,-0.03865735517442226,-2.1129987004220485,3.203382784578204
1725631150228521500,3.052521484375,0.1891403237171471,-2.0997306380480527,0.9355153017446398
1725631150238474500,3.062474609375,-0.2959095304787159,-1.3619284041851758,-1.1370435440003872
1725631150248428300,3.07242822265625,-1.3787754940897226,0.18673194740116594,-0.8893035856679081
1725631150258381300,3.08238134765625,-1.2492312686793505,1.137925587531924,-1.664719218610227
1725631150268334300,3.092334228515625,-1.467612299928069,1.4330664717257022,-1.3950269561886786
1725631150278287400,3.102287353515625,-1.50211311994493,1.183423017859459,-1.140117252357304
1725631150288240400,3.112240478515625,-1.2071107674390076,1.0393781195402145,-1.0147703325062989
1725631150298193400,3.122193359375,-1.090089996580407,0.5568938780486583,-0.38894758739918467
1725631150308146400,3.132146484375,-0.8239688706438988,0.019315525844693184,-0.023057634982466695
1725631150318099500,3.142099365234375,-0.5699988588154316,0.2844558240503073,-0.11086948168724775
1725631150328052500,3.152052490234375,-0.5258258089594543,0.11350479862689972,-0.09308920258581638
1725631150338005500,3.162005615234375,-0.6434545556485652,-0.1845639557123184,-0.2555813194826245
1725631150347958500,3.17195849609375,-0.1567096610378474,-0.30870413012206555,-0.16812778469622133
1725631150357911600,3.18191162109375,0.26995566259808834,-0.6597878508120775,-0.004369885647296905
1725631150367864300,3.1918642578125,0.3749907390434295,-0.3965735522329807,-0.06183218679577112
1725631150377817300,3.2018173828125,0.22479257879145442,0.015967968982458114,-0.2933712441727519
1725631150387770400,3.211770263671875,-0.2733236777264625,0.09209376180768013,-0.5496823392346502
1725631150397723400,3.221723388671875,-0.9792739986460656,-0.06222995394170284,-0.4518348362058401
1725631150407677400,3.231677490234375,-1.21901214456968,-0.28792145433425903,-0.4963388715818524
1725631150417630500,3.24163037109375,-1.025558706893772,-0.323763167566061,-0.7926192811995745
1725631150427583500,3.25158349609375,-0.8402028701514005,-0.06639817953705787,-0.9926806657731533
1725631150437536500,3.26153662109375,-0.8408511049270629,0.05215922630429268,-1.1583651489704847
1725631150447489500,3.271489501953125,-0.898716433918476,0.09483224686086177,-1.2988827499464153
1725631150457442600,3.281442626953125,-1.3061731992155312,-0.43599078586399553,-1.1864146008908747
1725631150467395600,3.2913955078125,-1.4792635747551917,-0.6081342359423637,-1.172298104993999
1725631150477348600,3.3013486328125,-1.2570610855221747,-0.472452676820755,-0.9534560321047901
1725631150487301600,3.311301513671875,-1.0518401262283326,-0.46154900549054145,-0.9536962706014513
1725631150497254400,3.32125439453125,-0.9803525145977735,-0.7057675116986036,-0.7937617292329668
1725631150507207400,3.33120751953125,-0.778179252436757,-0.9394359823197126,-0.2387985269859433
1725631150517160400,3.341160400390625,-0.4025000562051311,-0.9408516943365335,-0.09135039609447121
1725631150527113500,3.351113525390625,-0.36054775113854554,-1.1889596091985701,0.29947964405044913
1725631150537066500,3.36106640625,0.28009821336269375,-0.372342781817913,-0.29701062358841296
1725631150547020500,3.3710205078125,0.45810149538517,-0.07418167302012443,-0.3451991926960647
1725631150556973600,3.3809736328125,0.3873889232477173,-0.4224883302122354,0.1557261298932135
1725631150566926600,3.390926513671875,0.8890636394321918,-0.5404384178102016,-0.06307911811694503
1725631150576879600,3.400879638671875,1.0427332751870155,-0.7403191851198673,-0.22453210122436285
1725631150586832600,3.41083251953125,0.8666407952219247,-0.2811585360705852,-0.16097396741881967
1725631150596785700,3.42078564453125,0.27658523680567737,-0.3840168529987335,1.0770878186009825
1725631150606738700,3.43073876953125,0.20509996326267718,-0.24401801519989966,0.8585494048334658
1725631150616691700,3.440691650390625,-0.2997171426007524,-0.35236966884732246,0.8881120377957821
1725631150626644500,3.45064453125,-0.45859249377250666,-0.9241817145645618,0.8936854540139436
1725631150636597500,3.460597412109375,-0.7337140877664089,-1.315791506910324,1.0773790566325188
1725631150646550500,3.470550537109375,-1.344475165081024,-1.6747767945051193,0.2827054732516408
1725631150656503600,3.480503662109375,-1.9832412706524132,-1.9345225401908157,-0.6846116186842321
1725631150666456600,3.49045654296875,-1.7404022361040115,-2.216020683479309,-0.938722865614295
1725631150676409600,3.50040966796875,-1.0611854622006416,-2.137887642484903,-0.48803544587790965
1725631150686362600,3.510362548828125,-1.0013438647001982,-1.1632932530224322,0.08329232345372438
1725631150696315600,3.520315673828125,-0.6356207932829856,-0.16921265732347965,0.29370412938892837
1725631150706269400,3.53026953125,-0.2851601729273796,0.5601052413105965,0.4326885294482112
1725631150716222500,3.540222412109375,0.21931970033831893,1.0918886435002089,0.7268374799951911
1725631150726175500,3.550175537109375,0.4144762886703014,2.209574576079845,0.5167182272657752
1725631150736128500,3.56012841796875,-0.4008049061924219,2.5949773304790256,0.23601649505198
1725631150746081500,3.57008154296875,-1.2376841848790645,2.3378905748695136,0.2581558461457491
1725631150756034300,3.580034423828125,-1.4798346526414154,1.377668994152546,0.9351856313988566
1725631150765987300,3.5899873046875,-0.6196633456945418,0.5460311232507229,1.8007374623402952
1725631150775940400,3.5999404296875,0.8042436680197715,0.4208522534430027,1.4080395824968814
1725631150785893400,3.609893310546875,0.4440449860472232,0.4657797749280929,1.2390277084425092
1725631150795846400,3.619846435546875,-0.22969722890257835,0.7624410005569457,1.0151125700727104
1725631150805799400,3.62979931640625,0.4810265900291502,1.0091367105334996,0.9479436984241009
1725631150815752400,3.63975244140625,0.8841530710369347,1.5582511867523192,1.0812705111131071
1725631150825705500,3.64970556640625,0.6744866766415536,2.3409236589550972,0.9334002092868089
1725631150835658500,3.659658447265625,0.3927519481182098,2.2664795356065035,0.853305512830615
1725631150845611500,3.669611572265625,0.32721710741221904,2.1978771240234374,0.8762047423809767
1725631150855565600,3.679565673828125,0.2774327935457229,1.9984780027508735,0.431098045386374
1725631150865518600,3.6895185546875,-0.06393266620635986,1.432201379328966,0.49548576188385485
1725631150875471600,3.6994716796875,0.1982102037489414,1.010394601640105,0.86223905313164
1725631150885424400,3.70942431640625,0.06894852160699665,1.0057961679339409,1.065811952957511
1725631150895377400,3.71937744140625,-0.29810791730582714,0.5887959137439728,0.8301941018342971
1725631150905330400,3.729330322265625,-0.3853179256599396,0.035386955201625825,0.35584640504717824
1725631150915283500,3.739283447265625,-0.6529435378752648,-0.10029518844187259,0.4065621545448899
1725631150925236500,3.749236572265625,-0.5456482614129782,0.30318332087397576,0.5983519698575138
1725631150935189500,3.759189453125,0.18993103570342063,0.4003957408696413,0.5183221553310752
1725631150945142500,3.769142578125,0.5994003098666668,0.28705753098130227,0.4362649266302585
1725631150955095600,3.779095458984375,0.3957283335804939,0.9643056351602077,0.22887305303812025
1725631150965048600,3.789048583984375,0.9701935241550207,1.326369599547982,0.6334469563752413
1725631150975001600,3.799001708984375,1.415481715196371,1.4419810150653123,0.32716683852970596
1725631150984954600,3.80895458984375,0.4951105718959123,1.349395085826516,-0.43654900426864623
1725631150994907400,3.818907470703125,-0.07235577276721596,0.5467243662118911,-0.5625955968216061
1725631151004861700,3.82886181640625,0.48105917712450025,-0.2463379825800657,-0.5222755691319704
1725631151014814500,3.838814453125,0.7443225755423307,0.1914963853240013,-0.7440127789407968
1725631151024767500,3.848767578125,-0.315506795874238,0.7155547462195158,-0.8993938947886227
1725631151034720500,3.858720458984375,-1.2606177550904452,0.8161316742122173,-1.190896130219102
1725631151044673500,3.868673583984375,-0.9818507903315127,0.7137012273073196,-0.7726818240642547
1725631151054626600,3.87862646484375,-0.5878964806862175,1.280292908027768,0.02711217107027769
1725631151064579600,3.88857958984375,-0.5044534967154264,1.3722224191844463,0.0345469972461462
1725631151074532600,3.89853271484375,-0.8713496305000037,1.1700818902492522,-0.4890235801324248
1725631151084485600,3.908485595703125,-1.251853580006957,0.2827314844757318,-0.5706842107310891
1725631151094438700,3.918438720703125,-0.3352817559242248,-0.8253373094528913,-0.11343407147824763
1725631151104391700,3.9283916015625,1.6597392382405698,-1.7152075890928506,0.8016065975144505
1725631151114344700,3.9383447265625,1.8760832107037304,-0.9509002101421355,0.20209026005268096
1725631151124297500,3.94829736328125,0.9534323589682578,-0.21456337265670297,-0.835712865255773
1725631151134250500,3.95825048828125,0.539227288454771,0.09402151499986648,-1.2603370384529233
1725631151144203500,3.96820361328125,0.10157003068327904,-0.027658406776189803,-1.3865543113976717
1725631151154157300,3.9781572265625,-0.44262686287760733,-0.5571212570637464,-1.0821651218652724
1725631151164110300,3.9881103515625,-0.4784281710337847,-1.285162559890747,-0.5411328298151493
1725631151174063400,3.9980634765625,-0.2158522434234619,-1.7396113779872655,0.6506167023628949
1725631151184016400,4.008016357421875,-1.76886494500041,0.407606402900815,0.7599372010424733
1725631151193969400,4.017969482421875,-2.138814694201946,2.0271505550056697,-0.04255728522241115
1725631151203922400,4.02792236328125,-1.9083201774418352,2.2193284928530455,0.44574441037625073
1725631151213875500,4.03787548828125,-1.8109752171076834,1.0752256779909133,-0.12277765388488769
1725631151223828500,4.047828369140625,-1.7591139508366584,-0.3292342924535274,-1.131353807926178
1725631151233781500,4.057781494140625,-1.0538732394911348,-1.554504985961318,-1.1022414029493928
1725631151243734500,4.067734619140625,-0.7520349034853279,-2.121042890667915,-0.508081624084711
1725631151253687300,4.077687255859375,-0.3850280758678913,-2.2540753965854643,0.36398587236106394
1725631151263640300,4.087640380859375,0.48729785231836137,-3.654259004884958,0.21622166125774384
1725631151273593300,4.09759326171875,-0.3200574449159205,-1.937713445186615,-0.17070991014391182
1725631151283546400,4.10754638671875,-0.8290769343726336,-1.8205670751869678,-0.9296534239739179
1725631151293499600,4.117499755859375,-2.371260491160303,-1.0020563968837262,-0.7819710459351539
1725631151303452700,4.12745263671875,-1.1424385349117219,-2.98074541105926,-0.34564299094080925
1725631151313406700,4.13740673828125,-1.0138501489214597,-2.4028847328275442,-1.6729636076033114
1725631151323359700,4.14735986328125,-0.33634850837290287,-2.8601760808736083,-2.504351010875404
1725631151333312800,4.157312744140625,-1.753745117279887,-0.9455494967639446,-2.014508223314583
1725631151343265800,4.167265869140625,-2.2385937498152253,-0.9755763862371444,-1.5047180417463182
1725631151353218800,4.17721875,-2.482981182849407,-0.46971652985513207,-2.2788445116609335
1725631151363171800,4.187171875,-2.7332003907769917,-0.8545324242770671,-2.7672192724958062
1725631151373124900,4.197124755859375,-1.1150227777849882,-2.229468778595328,-2.0418129943475125
1725631151383077600,4.20707763671875,0.060737669557332986,-2.2628274428397415,-1.452419991493225
1725631151393030700,4.21703076171875,0.08498173784539104,-1.5319956325113773,-0.9528808625653385
1725631151402983700,4.226983642578125,-1.0797622985072433,-0.6138847622931003,-0.9041369976624846
1725631151412936700,4.236936767578125,-1.7156623471230268,-0.20158815574944017,-0.1093225445061922
1725631151422889700,4.2468896484375,-1.7805431078344582,-0.15273732334077358,1.0593956561744213
1725631151432842800,4.2568427734375,-1.164274665275216,-0.06395020186305046,1.5204948720708489
1725631151442795800,4.266795654296875,-0.6184494398601352,0.6847931127309799,1.0650132037952542
1725631151452748800,4.276748779296875,0.1970551884949207,1.131260284423828,1.5820871126309037
1725631151462701800,4.286701904296875,-0.07712737108319997,2.0846774458229542,0.3957771411582827
1725631151472656000,4.29665576171875,-0.9303869989454746,2.643860311591625,0.10318243431597947
1725631151482609000,4.30660888671875,-0.9024572278819978,2.923196892932057,-0.2937649196654558
1725631151492562000,4.31656201171875,-0.79031027360484,2.947584315213561,-0.7454299522623419
1725631151502515000,4.326514892578125,-0.7357453013330698,2.6125848833620546,-0.5653302824825048
1725631151512467700,4.3364677734375,-1.4858910300709307,2.412781857463717,-0.5218085361421108
1725631151522420700,4.346420654296875,-1.6068391304410994,1.6880787591487167,-0.6316612420022487
1725631151532373800,4.356373779296875,-0.9978402404934167,1.3200129239976406,-0.5708905469581484
1725631151542326800,4.366326904296875,-0.5112169995009899,0.8901403287529945,-0.29952041445225475
1725631151552279800,4.37627978515625,-0.6786224612720311,0.8728250368148088,-0.10466770443767309
1725631151562232800,4.38623291015625,-0.13308730484470724,0.9658417586863041,0.06808101805746555
1725631151572185900,4.396185791015625,-0.3418995666287839,0.7974041773885489,0.374157430024445
1725631151582139000,4.406138916015625,-0.9791817172527313,-0.04230535628795624,0.2775108272179961
1725631151592092000,4.416091796875,-1.034044941818714,-1.1890431958287955,0.666073799213767
1725631151602045000,4.426044921875,1.3823825786709785,-2.0216636480271815,2.2377231044605375
1725631151611998000,4.435998046875,2.3022984524846075,-1.1989029110640286,2.531137603253126
1725631151621950700,4.44595068359375,1.7679508988954127,-0.8143383610546588,1.8009823770120739
1725631151631904800,4.45590478515625,0.49135713764652605,-1.6568033309191463,0.987477836433053
1725631151641857500,4.465857421875,-0.0006369827292859554,-2.444021045336127,1.0552765304177998
1725631151651810600,4.475810546875,0.3233198077127337,-2.270157931858301,1.6111644462943076
1725631151661763600,4.485763671875,0.5507905927374959,-1.6795716275662183,1.690553332568705
1725631151671716600,4.495716552734375,-0.12385375868380069,-1.6662702474445104,1.2910133317455648
1725631151681669600,4.505669677734375,-0.5447929597578942,-1.2680518506139515,0.7454688229680061
1725631151691622700,4.51562255859375,0.11471563572138548,-0.7984726834028959,0.9535530627384782
1725631151701575700,4.52557568359375,0.6917549145676195,-0.017836100941896436,1.389052850215137
1725631151711528700,4.53552880859375,0.7293290045499802,0.5218061980545521,1.8630758450925349
1725631151721481700,4.545481689453125,0.4089654162943363,0.35790450662076473,1.2347460856005548
1725631151731434800,4.555434814453125,0.4249705024167895,0.030922961530089377,0.5537231390580535
1725631151741387800,4.5653876953125,-0.02390752981007099,0.6516267561882734,0.5000979318544269
1725631151751340500,4.575340576171875,0.28926790050715206,1.1034352889090775,0.531741316613555
1725631151761293600,4.58529345703125,0.15631664313226937,1.5271540376991033,-0.056638417544960976
1725631151771246600,4.59524658203125,-0.0540577534019947,1.9244664256006478,0.08009411193430423
1725631151781199600,4.60519970703125,0.2839893755823374,1.6685639113396404,-0.4423822404667735
1725631151791152600,4.615152587890625,0.41394934218674895,1.2084919926643372,-0.29490532187223434
1725631151801106700,4.625106689453125,0.4096618741258979,1.33635147985816,0.027613983112573622
1725631151811059700,4.635059814453125,0.8502642454385757,1.1863386130452156,0.16480390097051859
1725631151821012700,4.6450126953125,0.24130612589269876,0.9177274238586425,-0.22366467074006793
1725631151830965800,4.6549658203125,-0.06234072083979845,0.8227426167845725,-0.4871364512115717
1725631151840918800,4.664918701171875,0.37543154161348935,1.2291998496502636,-0.3911956585869193
1725631151850871800,4.674871826171875,0.060720280031114814,0.9539140050053596,-0.26380028177350756
1725631151860824800,4.684824951171875,-0.2060445506364107,0.6610586014002561,-0.43087037411034107
1725631151870777900,4.69477783203125,-0.4763268879055977,0.2292155828654766,-0.6662991324022411
1725631151880730600,4.704730712890625,-0.25650895572155713,-0.3097211982101202,-0.4199275398135185
1725631151890683600,4.71468359375,0.13163929799348115,-0.5125497094094753,-0.22075579755604266
1725631151900636700,4.72463671875,0.17724281904399394,-0.9148597594678402,-0.4249684565901756
1725631151910589700,4.734589599609375,0.0983124901920557,-1.3611732019037008,-0.4863049688234925
1725631151920542700,4.744542724609375,0.17259002480208874,-1.536930750826001,-0.5313903112187981
1725631151930495700,4.754495849609375,0.5656222511664033,-1.7829682891547678,-0.1610620840936899
1725631151940448800,4.76444873046875,0.6537550003886222,-2.011331054583192,-0.19473960502892732
1725631151950401800,4.77440185546875,0.5032844529360533,-2.1763006675094365,-0.7417527250543237
1725631151960354800,4.784354736328125,0.11604717658609151,-2.172519395405054,-0.7843424512416124
1725631151970308900,4.794308837890625,0.6772714850544929,-2.3854215568512678,-0.3195478879585862
1725631151980262000,4.804261962890625,0.5770648516789079,-2.419910101908445,-0.4932701316609978
1725631151990215000,4.81421484375,0.43448271938860417,-2.3805133265435696,-1.3691685845717787
1725631152000168000,4.82416796875,0.3060731970965862,-2.3380431350827218,-2.0501737031966445
1725631152010120700,4.83412060546875,0.3057809361517429,-2.023119107532501,-1.7426348174616693
1725631152020073700,4.84407373046875,0.1545095937103033,-1.4705039297163485,-1.149127365025878
1725631152030026800,4.85402685546875,0.5926490820407867,-1.3855641313165425,-0.2233876073643565
1725631152039979800,4.863979736328125,0.25182868895083665,-1.477910991102457,-0.5220253937631845
1725631152049932800,4.873932861328125,-0.08248217611461878,-1.2180717219144106,-1.3430235049679875
1725631152059885800,4.8838857421875,0.05983341419398784,-1.3502841436207293,-1.3171955284893513
1725631152069838800,4.8938388671875,-0.19174422260522841,-1.5885983942210673,-0.8867638380572199
1725631152079791900,4.9037919921875,-0.8995330109983682,-0.6979764194309711,-1.3451321676850319
1725631152089745000,4.913744873046875,-0.8809148197680712,-0.08448913202285765,-1.5494140925630926
1725631152099698000,4.923697998046875,-0.4392795982763171,0.17591010913550853,-0.878406636339426
1725631152109651000,4.93365087890625,-0.4151785917207598,0.37174364688098427,-0.6856701878264546
1725631152119603700,4.943603759765625,-0.5011947871804238,0.7192138532489538,-0.9807646025300025
1725631152129556700,4.953556640625,-1.0052014169111847,0.7812520840108395,-0.9136401545450091
1725631152139509800,4.963509765625,-0.615121902872622,0.5079384162217379,0.28470804524570703
1725631152149463600,4.973463623046875,-0.38427462715208527,0.7726958525896072,0.7592465884298085
1725631152159416600,4.98341650390625,-0.5338800822079182,1.1263567302912474,0.5709332170560956
1725631152169369600,4.99336962890625,-0.8807660589471459,1.4564946935862302,0.3329229178383946
1725631152179322600,5.003322509765625,-0.8937184795007109,1.518204423046112,0.27731238203644754
1725631152189275600,5.013275634765625,-0.8118161491006612,1.9343325705766676,0.5945195520877837
1725631152199228700,5.023228759765625,-1.2417860672399401,3.2498212951481342,1.0168360328644515
1725631152209181700,5.033181640625,-0.9456295762628316,4.378783824023604,1.1653095612809061
1725631152219134700,5.043134765625,-0.6523555088542401,2.9582974324077367,-0.06837941648215055
1725631152229087700,5.053087646484375,-0.6990425873577595,1.4783540586948394,-0.28837592010349034
1725631152239040800,5.063040771484375,-0.514790181812644,0.9784937349885702,0.6598217530816793
1725631152248993500,5.07299365234375,0.4474631969928741,1.5719284144490957,0.4637567446678877
1725631152258946600,5.082946533203125,0.8902937657490372,2.1609400167703625,0.3268447669684887
1725631152268899600,5.092899658203125,0.7267115155279636,2.035562409520149,0.1926554922312498
1725631152278852600,5.1028525390625,0.2867952267833054,0.9918944838315248,-0.09058101915717125
1725631152288805600,5.1128056640625,-0.38770737807974215,-0.10266776279211044,0.5822244263991713
1725631152298758400,5.12275830078125,-0.6355144102990626,-0.4318874421983957,0.12268880655765532
1725631152308711400,5.13271142578125,-0.6002822072677314,-0.8271814760148525,0.20755787780880927
1725631152318665500,5.14266552734375,-0.6498539012968539,-0.9796604406803846,0.18188479963093995
1725631152328618500,5.152618408203125,-0.5235223543226719,-1.050824227184057,-0.15199936445504425
1725631152338571500,5.162571533203125,-0.4215887510240078,-1.2787719820708037,-0.6554515751734376
1725631152348524500,5.172524658203125,-0.7427348679594695,-1.8490479042619465,-1.0012927190348506
1725631152358477600,5.1824775390625,-0.6487737048447132,-2.7453268819004295,-0.43700230099409815
1725631152368430600,5.1924306640625,-0.5327559004835785,-2.242988769903779,-0.7468506327152252
1725631152378383600,5.202383544921875,-0.2237035414457321,-1.6301012019544838,-0.6997717784151435
1725631152388336600,5.212336669921875,-0.15249518514797092,-0.8654062849909067,-0.26431495329737664
1725631152398289700,5.22228955078125,0.4774760579407215,-0.4642044884353876,0.36912674238085746
1725631152408242700,5.23224267578125,0.5655928789414465,0.5613327372789383,-0.10924538761675358
1725631152418195700,5.24219580078125,-0.26047464448213575,0.9077373602420091,-1.4861241081744432
1725631152428148500,5.2521484375,-0.14952303746938705,0.34465631799101826,-2.005068194796145
1725631152438101500,5.2621015625,0.14149638288021088,0.2396715104281902,-1.3883020318478345
1725631152448054500,5.272054443359375,0.6209405990887433,0.8447977967262268,-0.8922735413894056
1725631152458007600,5.282007568359375,0.35767259756103154,1.3509902460634708,-1.6985028302684426
1725631152467960600,5.291960693359375,0.12215849907323717,0.5850204868584871,-2.2485995955228804
1725631152477913600,5.30191357421875,0.15633490944132208,-0.3913198694884777,-1.4708920522511004
1725631152487867600,5.31186767578125,-0.11038279414884745,-0.3794342013835907,-0.6807347772508859
1725631152497820700,5.321820556640625,0.24112799284681677,0.07793781068325042,0.029418986707925796
1725631152507773700,5.331773681640625,-0.35879984802529213,-0.1067687683701515,0.3508537113264203
1725631152517726700,5.341726806640625,-0.2289570780597627,-1.737092673164606,0.13985504541397095
1725631152527679700,5.3516796875,0.5409354075469076,-1.6235598174870014,1.1791191831856966
1725631152537632800,5.3616328125,-0.022670681491494177,-0.4870920275479555,2.308779923458397
1725631152547585800,5.371585693359375,0.3402139516294002,-1.757602377229929,0.9154182701334357
1725631152557538600,5.38153857421875,-0.41373336134850974,-2.698493234533071,-0.16894085464477537
1725631152567491600,5.39149169921875,-0.7866804657351225,-2.188042543229461,-0.03105184860676527
1725631152577444600,5.401444580078125,-0.48411213495433325,-1.173929797849059,0.17111878320574758
1725631152587397600,5.411397705078125,-0.30827158392369747,-0.0613993483364582,0.017582126180827617
1725631152597350700,5.4213505859375,0.010067805027961731,0.8473626787781715,-0.4423275876700878
1725631152607303700,5.4313037109375,0.037492987570166586,0.9676830026388168,-0.5053954537406563
1725631152617256700,5.441256591796875,-0.08070785991847515,1.0051689759463072,-0.31638007157742976
1725631152627209700,5.451209716796875,-0.18090046476870775,1.1905711360484361,-0.22676614388674496
1725631152637162800,5.461162841796875,0.16414266058281063,0.8203180199861526,-0.019944471397995947
1725631152647115800,5.47111572265625,0.5999756255365908,0.2789332612365484,0.07357640060335398
1725631152657068800,5.48106884765625,0.5613398976720869,0.22793664897084234,-0.2513531803935766
1725631152667021600,5.491021484375,0.4488375540859997,0.6060311261832714,-1.1032283681601285
1725631152676975600,5.5009755859375,0.7908604548335075,0.5524579414278269,-1.6316291421741247
1725631152686928400,5.510928466796875,0.7623726114958524,0.48044133748710155,-1.7558692698270082
1725631152696881400,5.52088134765625,0.4608984326273203,0.9088871147990226,-2.014630096128583
1725631152706834400,5.53083447265625,0.2588594643704593,0.9547235678225755,-1.9736469283550977
1725631152716787500,5.540787353515625,-0.054360828001797194,0.4203407967895269,-1.254733227096498
1725631152726740500,5.550740478515625,-0.19349588857814667,0.19478432095348833,-0.7407593301028013
1725631152736693500,5.560693603515625,-0.5879729069232941,0.04225216479599476,-0.2708300342798233
1725631152746646500,5.570646484375,-0.09652619129717349,-0.40619945871233937,0.20061697262972591
1725631152756599600,5.580599609375,0.5301105005413294,-0.13462357450127602,0.8735808236181736
1725631152766552600,5.590552490234375,0.6725035400003194,0.8913532116740941,1.2157739663660525
1725631152776505600,5.600505615234375,1.1625485721349715,1.1001029296159743,0.8521075352177023
1725631152786458400,5.610458251953125,0.6715314800977706,1.034483333235979,0.46652474807649846
1725631152796411400,5.620411376953125,0.032222353690862654,0.6882891381531954,0.0825175396889448
1725631152806364400,5.630364501953125,-0.16192849166467785,0.4191220686495304,-0.5196124874025583
1725631152816317400,5.6403173828125,-0.2344786179602146,0.21460779632031915,-0.7331979549378156
1725631152826270500,5.6502705078125,-0.41569677037596703,0.8369388999193906,-1.0947302966669201
1725631152836223500,5.660223388671875,-0.04917407301366329,0.8952110561460256,-1.3469064838811755
1725631152846176500,5.670176513671875,-0.22928616388365625,0.7995645702928305,-1.3435679871082304
1725631152856130600,5.680130615234375,-0.2251576857767999,0.22283961809277533,-0.9687006552487611
1725631152866083600,5.69008349609375,-0.28030454958975315,0.09019991088509559,-0.8304486611172557
1725631152876036600,5.70003662109375,-0.3170755064956844,0.3434001804500818,-1.0780082944467664
1725631152885989600,5.70998974609375,-0.34180794282257554,0.27435703936219213,-0.9360796576291323
1725631152895942700,5.719942626953125,-0.4973695298038423,0.37259704883992667,-0.3524254906877875
1725631152905895700,5.729895751953125,-0.30570947835072876,-0.46222471279501914,-0.1267728610008955
1725631152915848400,5.739848388671875,-0.6272486862570047,-0.5142313788861036,-0.329964360293746
1725631152925801500,5.749801513671875,-0.9661340196311473,-0.7103168455660342,0.08162818963378668
1725631152935754500,5.75975439453125,-1.060957937055081,-0.6187181737989187,0.24906477719545364
1725631152945707500,5.76970751953125,-1.3490420346051453,-0.6417974360913038,0.5271332382962107
1725631152955660500,5.77966064453125,-1.3862556207120418,-0.520806665623188,0.6179200091585516
1725631152965613600,5.789613525390625,-1.3067840245902538,-0.45094285580217836,0.5424231618866324
1725631152975566600,5.799566650390625,-1.015613213071227,-0.44975919897556305,0.5271989970088005
1725631152985519600,5.80951953125,-0.7787988456398248,-0.3694061438441276,0.20029227072000502
1725631152995472600,5.81947265625,-0.8993845424383878,0.13550678707659244,-0.08803104241341352
1725631153005425700,5.82942578125,-1.3314905958235264,0.15198387462496757,0.059113575486838814
1725631153015378700,5.839378662109375,-1.0238888009201734,-0.920147344481945,-1.3263444651067255
1725631153025331500,5.84933154296875,-1.8081075527168808,-0.7002408572316169,-0.7882344902440905
1725631153035284500,5.859284423828125,-1.3520447235524653,-1.1212146912276744,-0.09760200383514166
1725631153045238500,5.869238525390625,-1.512117212086916,-0.660672816953063,-0.09692074357271194
1725631153055191600,5.879191650390625,-1.5240531490743159,-0.7071551666647196,-0.1741296554595232
1725631153065144600,5.88914453125,-1.479809518200159,-0.9718296009242534,0.23859540562927722
1725631153075097600,5.89909765625,-1.2941489994227886,-0.7405722830981015,0.4032853248313069
1725631153085050600,5.909050537109375,-1.3943379510112106,-0.39011926152706144,0.68852294690907
1725631153095003600,5.919003662109375,-1.0307119980037212,-0.3370002502799034,0.8021098708614707
1725631153104956700,5.928956787109375,-0.7072580425173044,-0.2855675846844911,0.765652071557939
1725631153114909700,5.93890966796875,-0.24784794875159857,-0.5029921919912099,0.650726592478156
1725631153124862700,5.94886279296875,0.18408757037222384,-0.702217710262537,0.7124085571482777
1725631153134815700,5.958815673828125,0.049032472585886715,-0.6135995156109333,0.9858341608792542
1725631153144768800,5.968768798828125,-0.5557125593096017,-0.3685439740568399,0.7260904610201716
1725631153154721500,5.978721435546875,-0.8884292870514094,-0.3395972810357809,1.169619825695455
1725631153164674600,5.988674560546875,-1.0473505597241222,-0.3771703481048345,1.6875465519681572
1725631153174627600,5.998627685546875,-0.8002123666770756,-0.47039106811583037,1.5818576877892017
1725631153184580600,6.00858056640625,-1.0678108716897665,-0.3549596853405237,1.4513453479990361
1725631153194533600,6.01853369140625,-0.07164791675880551,-0.38122693001925945,1.5798761585831642
1725631153204486700,6.028486572265625,0.5768517934501171,0.1421224058240652,1.1448480802714824
1725631153214439700,6.038439697265625,0.6836819366186857,0.30831074689030646,0.5734817324951291
1725631153224392700,6.048392822265625,1.2966538218505679,0.5960942540585994,0.347661345025897
1725631153234346800,6.0583466796875,0.10126491025686263,1.0658709896683691,-0.5406079291582108
1725631153244299800,6.0682998046875,-0.8722032516546547,1.050341412103176,-0.9332482335954904
1725631153254252800,6.078252685546875,-0.8110985023505985,1.0599410150974988,-0.6426449928313493
1725631153264205600,6.08820556640625,-0.49453182215988634,1.525688641321659,-0.38442280345112084
1725631153274158600,6.09815869140625,-1.060576974913478,2.0555191558778283,-0.5536296155557036
1725631153284111600,6.108111572265625,-0.8274474334746599,2.091024769023061,-0.416563908599317
1725631153294064400,6.118064453125,-0.6089625034600495,1.8669021253824234,0.11465542996674775
1725631153304017400,6.128017333984375,-0.5445324091255664,1.542007323437929,0.3640127603679895
1725631153313970400,6.137970458984375,-0.04306698831021785,1.2510755813717842,0.4108949230521917
1725631153323923500,6.14792333984375,0.19835706487372518,0.9357757062464952,0.5022735223278403
1725631153333876500,6.15787646484375,0.7213216391831636,0.37312253401875495,0.757390146908164
1725631153343829500,6.16782958984375,0.758151194408536,0.0517313562810421,1.1043030116543173
1725631153353782500,6.177782470703125,0.9224564982071518,-0.6243512112498283,1.2751073220834135
1725631153363735600,6.187735595703125,0.6896025588393211,-0.6566770253151655,1.5435241577416658
1725631153373688300,6.197688232421875,0.8379841711886227,-1.1071797361344098,1.903924865092337
1725631153383641300,6.207641357421875,1.036394719815254,-1.3617518785744904,1.9602856347396969
1725631153393594400,6.217594482421875,1.0468599997282027,-1.3260656481653452,1.5311016062811016
1725631153403547400,6.22754736328125,1.284343644723296,-1.622620490810275,1.3640297603785991
1725631153413500400,6.23750048828125,1.573667951592803,-1.5049363606721162,0.9784265149712562
1725631153423453400,6.247453369140625,0.4843789691969752,-1.128500172060728,0.16274901426732538
1725631153433407200,6.2574072265625,0.09662702132314444,-0.7470499546796083,-0.3400333343654871
1725631153443360300,6.2673603515625,0.5571773711651563,-0.07754910362660884,0.06533142708837986
1725631153453313300,6.277313232421875,0.15131401253938673,0.4550321709424257,-0.3425292428344488
1725631153463266300,6.287266357421875,-0.20641806012392042,0.47568742095828054,-0.9775842189282178
1725631153473219300,6.29721923828125,0.08514438106119632,0.8133364905357361,-1.2678344084709883
1725631153483172400,6.30717236328125,0.5238640073671936,0.9076654640495777,-1.352599434825778
1725631153493125000,6.317125,0.5710340470820665,0.9364373850256204,-1.4483312608748673
1725631153503078100,6.327078125,0.9423118300169706,0.867986949133873,-0.8860165268212556
1725631153513031200,6.33703125,1.0356959238961339,1.1057464884608983,-0.4050573029398918
1725631153522984200,6.346984130859375,0.6043056175649166,0.8133686392396688,-0.6047638827264309
1725631153532937200,6.356937255859375,0.5722782019242644,0.3417664417684078,-0.6247790812730789
1725631153542890200,6.36689013671875,0.7549296020135283,0.12403788307905196,-0.24530220979154108
1725631153552843300,6.37684326171875,0.8227408632189035,0.18800035990178585,-0.3721931442141533
1725631153562796300,6.38679638671875,0.9267042187795043,0.19140870704054833,-0.8771054906129837
1725631153572749300,6.396749267578125,0.9170400261163711,0.2985714431643486,-1.1955524315923451
1725631153582702300,6.406702392578125,0.12295505627840757,0.5655424639284611,-0.9734148242890834
1725631153592655400,6.4166552734375,0.19491934551000595,0.4647831651061773,-0.46025955020189285
1725631153602608000,6.426608154296875,-0.19513971026241778,0.3371697616279125,-0.42712884949445723
1725631153612561200,6.43656103515625,-0.8080214329928159,0.17694295931458473,-0.7440501883417368
1725631153622514200,6.44651416015625,-0.6976289211675525,0.09207447258532046,-0.8055529970526695
1725631153632468200,6.45646826171875,-0.5131573199138045,-0.09010697190463543,-0.29907880816459653
1725631153642421200,6.466421142578125,-0.309348565505445,0.07288286538124084,-0.2848755107671022
1725631153652374300,6.476374267578125,-0.37551498211324214,-0.2103495543539524,-0.5898860470682382
1725631153662327300,6.486327392578125,-0.06081643388196826,-0.5501712917953729,0.33730186357498165
1725631153672280300,6.4962802734375,0.5919513090349734,-0.7944728001117706,0.75396601767838
1725631153682233300,6.5062333984375,0.8232412139564752,-1.5059528442382812,0.8806459396988153
1725631153692186400,6.516186279296875,0.7055022848911583,-1.928766753143072,0.9243740222662686
1725631153702139400,6.526139404296875,1.4701368499696255,-2.0874644461929797,1.3839245474159716
1725631153712092400,6.536092529296875,1.5152275991924107,-2.0439117201924324,1.5939000077605248
1725631153722045400,6.54604541015625,1.1821430610515176,-1.9537626627117395,1.339063076904416
1725631153731998200,6.555998291015625,0.9697583476081489,-2.058160610297322,1.1960054360568522
1725631153741951200,6.565951171875,0.650385523955524,-1.883694854751229,1.2438871311724184
1725631153751904300,6.575904296875,0.3936065191209316,-1.6005547894746064,0.8217293480888008
1725631153761857300,6.585857177734375,0.2295816396988928,-1.4550503399968147,0.30875702935308214
1725631153771810300,6.595810302734375,0.06924962344542146,-1.2298486689478159,0.03622749767899513
1725631153781763300,6.605763427734375,0.014836188473552465,-0.9437222813367843,-0.0517597055926919
1725631153791716400,6.61571630859375,-0.08710121421739458,-0.5694388868451118,-0.2966857755482197
1725631153801669400,6.62566943359375,-0.18851225494667886,-0.23567338070273397,-0.4234954614281654
1725631153811622400,6.635622314453125,-0.2308089895367622,-0.23698154069185257,-0.9072849402993917
1725631153821575400,6.645575439453125,-0.4341089176401496,-0.3290817322403192,-0.9232309897109866
1725631153831529500,6.655529541015625,-0.3660620941132307,0.02709726576209068,-0.6532651710450649
1725631153841482500,6.665482421875,-0.7666191630244255,0.621339754474163,-0.9148445618987083
1725631153851435500,6.675435546875,-0.8601692611202597,0.31665479686558246,-0.9757900289878249
1725631153861388300,6.68538818359375,-0.40253479872494935,0.8428712125778198,-0.5486386754006147
1725631153871341300,6.69534130859375,-0.22285803053230047,1.692761364006996,-0.32267186519801616
1725631153881294300,6.70529443359375,-0.10979805306345224,1.0376894358009099,-0.7270742113605141
1725631153891247400,6.715247314453125,0.06841302649080754,0.42570436964929104,-0.5635965905576944
1725631153901200400,6.725200439453125,-0.02434869770631194,0.41920214814841744,-0.44026276409476994
1725631153911153400,6.7351533203125,-0.16573460594937203,0.6911386823654174,-0.35965193480998275
1725631153921106400,6.7451064453125,-0.5595844323068857,0.9079758451730012,0.07023527348190546
1725631153931059500,6.7550595703125,-0.4450748405516147,1.1077923150748015,0.32053631447404624
1725631153941012500,6.765012451171875,-0.6015852526903153,1.2231588159203528,0.28778876786530017
1725631153950965500,6.774965576171875,-0.21269304874017833,1.1776666462898253,0.014886311225593089
1725631153960918500,6.78491845703125,-0.026858050178736447,1.517247560712695,0.07703472436368465
1725631153970871300,6.794871337890625,-0.051810997388511894,1.6194371845990418,-0.1869908905982971
1725631153980824300,6.80482421875,-0.15483341883718968,1.251582946372032,-0.19588702149838208
1725631153990777300,6.81477734375,-0.21107830701991914,1.0267863489925861,-0.16556348716616628
1725631154000730400,6.82473046875,-0.14097572000697253,0.7445610604733228,-0.16172142478525636
1725631154010683400,6.834683349609375,0.027317484384030102,0.4104489328503608,-0.008171616017818451
1725631154020637200,6.84463720703125,0.05570435156524181,0.4343097009092569,-0.07233604515343904
1725631154030590200,6.854590087890625,0.19212196987643837,0.3093769148170948,-0.33533991585224865
1725631154040543200,6.864543212890625,-0.18716858525276184,-0.057310617718100546,-0.35268004997074603
1725631154050496300,6.874496337890625,-0.06225348094776272,-0.393451036298275,-0.45982115878462787
1725631154060449300,6.88444921875,-0.10580591468736529,-0.7312959207087755,-0.2989271247342229
1725631154070402300,6.89440234375,-0.2973018616199493,-0.926536753258109,-0.5112222601979971
1725631154080355300,6.904355224609375,-0.11182137558460235,-1.1663771905124187,-0.4638561133891344
1725631154090308400,6.914308349609375,0.03346577788069844,-0.852190245065093,-0.058846741244196886
1725631154100261000,6.92426123046875,-0.041990152858942746,-0.6444318762481213,0.02406710428595543
1725631154110214100,6.934214111328125,-0.22620164187178016,-0.8600000420331955,0.17964082009643315
1725631154120167200,6.944167236328125,0.13550664094612003,-0.9151391609311104,0.07855097414553165
1725631154130120200,6.9541201171875,0.6971557506978512,-1.0217425096064805,-0.03596796995997429
1725631154140073200,6.9640732421875,0.5933356030002236,-0.5753717840254307,0.28812106855958697
1725631154150026200,6.974026123046875,1.0825374623090027,-0.015415011274814604,0.4534755891501903
1725631154159979300,6.983979248046875,0.6715117524839938,0.293486687245965,0.22997136966884135
1725631154169932300,6.993932373046875,-0.31007264199629425,0.48145139131247994,0.2057759628280997
1725631154179885300,7.00388525390625,-0.1529319691300392,0.31273499307334424,0.313173676751554
1725631154189838300,7.01383837890625,-0.39977439410090443,0.3660258537560701,0.5212316130369902
1725631154199791400,7.023791259765625,0.17269480035081505,0.5664163241535425,0.546752715523541
1725631154209744100,7.033744140625,0.341126390299201,1.0625579195976256,0.41621787164062257
1725631154219698400,7.043698486328125,0.04279460110962391,1.6325339820593594,0.31886750447899104
1725631154229651200,7.053651123046875,0.01356909114718437,1.4337801729530095,0.16824468907415865
1725631154239604200,7.063604248046875,-0.08406286943480372,1.0647907932162284,0.20818682336211203
1725631154249557200,7.07355712890625,0.1307166301906109,0.566618568727374,-0.11390811873078345
1725631154259510300,7.08351025390625,-0.09840133751928806,0.5998059680581093,-0.3446700542554259
1725631154269463300,7.09346337890625,0.061761751908063885,0.9482610938102006,-0.5745031844973564
1725631154279416300,7.103416259765625,0.02502162853181362,0.9566045592635869,-0.4429968652337789
1725631154289369300,7.113369384765625,0.2651790227808058,0.7886889560133218,-0.14826953027695416
1725631154299322400,7.123322265625,0.6366138959735631,0.6219897428154945,-0.22717910860180854
1725631154309275400,7.133275390625,0.5560078889943659,0.8158341525703668,-0.7925079297795892
1725631154319228400,7.143228515625,0.762620594907552,0.776771139204502,-0.7624620433449745
1725631154329181400,7.153181396484375,1.2640041826583444,0.6250134745508432,-0.19641630606949328
1725631154339134500,7.163134521484375,1.3361762694217263,0.9449012619882822,0.32213790445178747
1725631154349087500,7.17308740234375,1.6074059705436228,0.5889379525631666,0.4758657001346349
1725631154359040300,7.183040283203125,1.109738188445568,0.2900368390530348,0.3393257706180215
1725631154368993300,7.1929931640625,0.9612849721647798,-0.5641553934842348,-0.12053805826455354
1725631154378946300,7.2029462890625,0.6474158604949712,-0.8170569723635911,-0.09685732294768094
1725631154388899300,7.2128994140625,0.9951870956361293,-0.7573942385613918,-0.21754472655504942
1725631154398852400,7.222852294921875,0.4510644363552332,-0.6441659187883139,-0.05805149921327829
1725631154408805400,7.232805419921875,0.2907048014424741,-0.7156617137253284,0.23109891239404676
1725631154418758400,7.24275830078125,0.4487666808068752,-0.7780313683986664,0.651851212593913
1725631154428712400,7.25271240234375,0.7031383322387933,-0.79766312058568,0.6144464878290892
1725631154438665500,7.26266552734375,0.8205255252569913,-1.0336825382471084,0.4127709460571408
1725631154448618500,7.272618408203125,0.38024274128749963,-1.0040139606922864,-0.09821779764592647
1725631154458571500,7.282571533203125,0.1099672721505165,-1.164841651508212,-0.3577747427612543
1725631154468524500,7.292524658203125,0.0017171791814267635,-1.0452116479992866,0.1024061892464757
1725631154478477600,7.3024775390625,-0.15548808335363865,-0.19894377872049807,-0.012165654090046881
1725631154488430300,7.312430419921875,-0.13309095810651778,0.14177695338726043,-0.21973785268515347
1725631154498383400,7.32238330078125,-0.5147345061026514,0.7816010435789823,-0.09157704445719718
1725631154508336400,7.33233642578125,-0.5237931340880692,1.1898767240434884,0.14764672220349312
1725631154518289400,7.342289306640625,-0.1892037443421781,1.246310558927059,-0.20623305894583463
1725631154528242400,7.352242431640625,-0.6673685151994228,1.0721961010366678,-0.31609862428754565
1725631154538195500,7.362195556640625,-0.4787715045787394,0.4508107538551092,-0.6792381089523434
1725631154548148500,7.3721484375,-0.9966844945870339,0.033355157113075254,-0.5120648485019803
1725631154558101500,7.3821015625,-1.2559785509824752,0.23450725953280924,-0.09858516965359448
1725631154568054500,7.392054443359375,-0.9804787713259457,0.40461014369428155,-0.20568565419614313
1725631154578007600,7.402007568359375,-0.7828731093414127,0.3137538147270679,-0.19973580588102338
1725631154587960300,7.411960205078125,-0.6261983004212379,0.4169558305263519,-0.1365118724659085
1725631154597913300,7.421913330078125,-0.12191592248901724,0.6289151581645012,-0.046342941240966315
1725631154607866400,7.431866455078125,0.09718319390118121,0.9405775535702705,-0.41001697117388247
1725631154617819400,7.4418193359375,-0.12987374962568282,0.6366892992973328,-0.6368059114143252
1725631154627773200,7.451773193359375,-0.3407990580409765,0.11054828690886497,-0.5988450140714645
1725631154637726200,7.461726318359375,-0.37697614070698615,-0.4522796573638916,-0.24473054738342762
1725631154647679200,7.47167919921875,-0.5978348141156137,-0.8247416816473007,-0.1899409725755453
1725631154657632300,7.48163232421875,-0.24294834014177322,-1.3752005582123994,0.6073904318377376
1725631154667585300,7.491585205078125,-0.16391937322095035,-0.9529127190083265,1.267260407975316
1725631154677538300,7.501538330078125,-0.4026046490907669,-0.5200058706343174,1.3662316543370485
1725631154687491300,7.5114912109375,-0.25375907249152657,-0.6033662908881903,1.2213283856227992
1725631154697444400,7.5214443359375,0.6757096425652503,-0.6749491795867681,1.2045596216514707
1725631154707397400,7.5313974609375,0.1772581627435982,0.31002514959275723,0.36951983335167166
1725631154717350100,7.54135009765625,-0.6626818186879158,0.7276204470664263,0.23923311901092528
1725631154727303200,7.55130322265625,-0.5347070345513523,0.7737374705970287,-0.07954466135799884
1725631154737256200,7.561256103515625,-0.1706003122895956,0.7659446247637272,0.30993776357024905
1725631154747209200,7.571209228515625,-0.5201723132424056,1.1519184570491314,0.7512061975762248
1725631154757162200,7.581162353515625,-0.46492505779489873,1.3080951071888207,0.059679392676055425
1725631154767115300,7.591115234375,-0.966288479540497,0.9028098407119513,0.016908464702963828
1725631154777068300,7.601068359375,-0.7429786135874689,0.6401473307967186,-0.32913317016661164
1725631154787021300,7.611021240234375,-0.3584142097085714,0.7688876924782991,0.3421598250001669
1725631154796974300,7.620974365234375,0.08509718091860413,1.5282055925786495,-0.06002776772230863
1725631154806927400,7.63092724609375,0.0021919570863246918,1.4898966124504804,0.029160628032684325
1725631154816880400,7.64088037109375,0.011775485728681086,1.2001122868537901,-0.1264198097795248
1725631154826834400,7.65083447265625,0.3747603643536567,0.5511795920550823,0.31595804677307604
1725631154836787500,7.660787353515625,0.7379853353448211,-0.05619067377746105,1.1986217560350894
1725631154846740200,7.670740234375,0.4062456359416246,0.10452888048887252,0.7495733356773853
1725631154856693200,7.680693359375,-0.41816184531524775,-0.19401099849343298,0.6959115958556532
1725631154866646300,7.690646240234375,0.18042802495136856,0.05910802252888679,0.7545227747783064
1725631154876599300,7.700599365234375,0.6191325998187065,0.46933600610494614,0.7389175016283989
1725631154886552300,7.71055224609375,0.4580915585130453,0.753370974394679,0.4054454254746437
1725631154896505300,7.72050537109375,-0.04946019647866487,0.46020226705670353,-0.11448884122818707
1725631154906458400,7.730458251953125,0.505164859855175,0.12213994050323962,-0.3451034772366285
1725631154916411400,7.740411376953125,0.9188146345734596,0.03216331698000431,0.06953706208467483
1725631154926364400,7.750364501953125,0.8787916901342571,0.07343173143565654,-0.043966567498445505
1725631154936317400,7.7603173828125,0.31389994519948955,-0.3883060746252536,-0.13634265337884424
1725631154946270500,7.7702705078125,0.3552148291453719,-0.585606177791953,0.014033786049485205
1725631154956223200,7.78022314453125,0.2727203780710697,-0.740595663973689,0.21130115599036214
1725631154966176300,7.79017626953125,0.4779438215829432,-0.8954939647406339,0.4185194265812635
1725631154976129300,7.80012939453125,0.7981167095720767,-0.7221218496501446,0.6129460201382637
1725631154986082300,7.810082275390625,0.9162146812081337,-0.4956833302825689,0.7915016753464936
1725631154996035300,7.820035400390625,0.7253405194357037,-0.8220604797393083,0.5847311485230923
1725631155005988400,7.82998828125,0.6958484674915671,-1.415272456359863,1.0105775569915771
1725631155015941400,7.83994140625,0.6698159083515405,-1.684896621981263,1.054841646131873
1725631155025894400,7.849894287109375,0.6259715059280395,-1.7531272776424884,1.0343933168649673
1725631155035848400,7.859848388671875,1.008522378027439,-1.2198223649740219,1.049002272453904
1725631155045801500,7.869801513671875,1.0299857295557855,-0.5201917485952376,0.7072621341705322
1725631155055754500,7.87975439453125,0.45495413727015255,-0.45364510049819945,0.11726853507459163
1725631155065707500,7.88970751953125,0.1765162583351135,0.05659983910024166,0.04364040428400039
1725631155075660500,7.89966064453125,0.1988128458172083,0.27436697623431683,-0.3049666971594095
1725631155085613300,7.90961328125,0.008728373117744923,0.9813198983252048,-0.6103659405171871
1725631155095566300,7.91956640625,-0.130925304505229,1.2118307816982268,-0.859155992424488
1725631155105519400,7.929519287109375,-0.06232347744405269,1.2432342202216387,-0.6679162122100591
1725631155115472400,7.939472412109375,-0.04899667062014341,0.9071201051265001,-0.2538783149570227
1725631155125425400,7.94942529296875,0.2717386735573411,1.00001641548872,0.09051204557418822
1725631155135378400,7.95937841796875,0.49677872430384157,0.28382629397511483,0.09841887317597865
1725631155145331500,7.96933154296875,0.208259596337378,-0.26989889090955255,-0.14914309824109076
1725631155155284500,7.979284423828125,0.20482085406035183,-0.2798147202461958,-0.5043009365022182
1725631155165237500,7.989237548828125,0.19081570958346128,-0.14319617253541947,-0.1819119798988104
1725631155175190500,7.9991904296875,0.26084318553358316,0.5633826555460691,0.08127835328280925
1725631155185143600,8.0091435546875,-0.3432619410231709,0.7873486473202705,-0.03350245662927628
1725631155195096300,8.019096435546874,-0.3711629243835807,0.512238743764162,0.16727379821538924
1725631155205049300,8.02904931640625,0.2676990427777171,0.3299713745564222,0.25628654514253135
1725631155215002400,8.03900244140625,0.4480810366302728,-0.14218904131948948,0.5068740018606186
1725631155224955400,8.048955322265625,0.5778431425750256,-0.8617080149948596,0.8941711917042732
1725631155234908400,8.058908447265624,0.5035621008336544,-1.127683594980836,0.7977800249636173
1725631155244862200,8.0688623046875,-0.04806669629365205,-1.2702280256092549,0.7427022808641195
1725631155254815200,8.078815185546874,0.05027531225383281,-0.9130261142998933,0.7943892134815455
1725631155264768300,8.088768310546875,0.2081447377860546,-0.6160463242411613,0.8775982425659894
1725631155274721300,8.09872119140625,0.5642196908921003,0.020534838506579396,0.5292360557943582
1725631155284674300,8.10867431640625,0.20260931549072264,0.2944184151381254,0.04547580301761627
1725631155294627600,8.118627685546874,0.18341244758963585,0.3939776905208826,-0.2530237439543009
1725631155304580400,8.128580322265625,0.2537313077017665,0.18305881184637546,-0.24705343737304208
1725631155314533400,8.138533447265624,0.004848901335895061,-0.5004243873298168,-0.1535679289460182
1725631155324486400,8.148486328125,-0.07949059308320283,-0.7611936308443545,-0.0829056622236967
1725631155334439400,8.158439453125,0.23541589881032704,-0.3266863615363836,0.06982932302951812
1725631155344392400,8.168392333984375,0.30934622741788625,-0.007005494847893715,0.21221534822583196
1725631155354345500,8.178345458984374,0.3280547272801399,0.17993980304300783,0.09695815297365189
1725631155364298500,8.188298583984375,0.2118152429923415,0.6275310103297234,-0.037727380847930904
1725631155374251500,8.19825146484375,0.040686376783996815,0.8969880026906728,-0.1547080388918519
1725631155384204500,8.20820458984375,-0.012742577195167542,0.502632126507163,-0.35648528747260566
1725631155394157600,8.218157470703124,-0.04055588227212429,-0.009223755419254303,-0.053476446382701395
1725631155404110600,8.228110595703125,-0.20046996537446973,-0.5303688592165708,0.1434247205942869
1725631155414063400,8.2380634765625,-0.3066651716403663,-0.9018500557690858,0.4353384594351053
1725631155424016400,8.248016357421875,0.3872673792272806,-0.4851712886184454,1.041344743438065
1725631155433970400,8.257970458984374,0.23235519606545565,0.19162556466162203,0.9789327109277248
1725631155443923500,8.26792333984375,0.2536171798028052,0.385185312256217,0.20816928770542142
1725631155453876500,8.27787646484375,-0.19110884731113909,0.7549106050521135,-0.21294249345660207
1725631155463829500,8.28782958984375,-0.29277298601865764,0.8137637760370969,0.09403232865482568
1725631155473782500,8.297782470703124,-0.043756431879103184,0.682575436681509,-0.21569529929608106
1725631155483735600,8.307735595703125,-0.4358287271700799,0.5847463460922241,-0.3747624101802707
1725631155493688600,8.3176884765625,-0.36285818350538607,0.6311193902105092,-0.018004735507071018
1725631155503641600,8.3276416015625,0.12103402508795261,0.9450801256865262,0.1840671121060848
1725631155513594600,8.3375947265625,0.573258152872324,1.3338532333016395,0.6126663264140486
1725631155523547600,8.347547607421875,0.3482717320092022,1.7844710949331521,0.44361558165401216
1725631155533500700,8.357500732421874,-0.45478477205261586,1.2935633084893225,-0.20669512349963187
1725631155543453400,8.367453369140625,-0.676756521269679,0.5739069721698761,-0.18527911824434995
1725631155553406500,8.377406494140626,-0.09896189401149749,0.14883739329278467,-0.008366554068028926
1725631155563359500,8.387359375,-0.08992445494458079,0.44975393827855586,0.0576283053651452
1725631155573312500,8.3973125,-0.13475874518826603,0.45189796456992626,-0.2982411882966757
1725631155583265500,8.407265625,0.012560937017947435,0.2887374468922615,-0.20068857656121253
1725631155593218600,8.417218505859376,0.49206309395879505,0.18337445366680621,-0.228640413326025
1725631155603171600,8.427171630859375,0.5006429985165596,-0.07786416092514992,-0.5107639950364827
1725631155613124600,8.43712451171875,-0.016323942813277245,-0.1643523578107357,-0.5639902660503984
1725631155623077600,8.44707763671875,-0.11681611513197421,-0.23917875847518444,-1.007477837410569
1725631155633030700,8.45703076171875,-0.6412772116094827,-0.510086534166336,-1.1063742649704218
1725631155642984700,8.466984619140625,-0.35210853369310496,-0.5601327138394117,-0.8775614176869392
1725631155652937700,8.476937744140624,0.45072482913732526,-0.44682489908933637,-1.019393608392775
1725631155662890800,8.486890869140625,0.12107391870692372,-0.13588263465166092,-1.5473647588178514
1725631155672843500,8.496843505859376,-0.2798081443749368,-0.6184335116386414,-1.625727516914904
1725631155682796500,8.506796630859375,-0.0771194800376892,-0.937236426448822,-1.2479399136945604
1725631155692749600,8.51674951171875,0.08893471325486899,-0.770723091211915,-0.7285527594804764
1725631155702702600,8.52670263671875,-0.4125302691690623,-0.4088181167781353,-0.3663146075695753
1725631155712655600,8.536655517578126,-0.4055778196826577,-0.5393488690078259,-0.49190264270007605
1725631155722608600,8.546608642578125,-0.34280455264449117,-0.468521182590723,-0.6106023796215653
1725631155732561700,8.556561767578126,-0.014876812744885682,-0.5921838026165962,-0.644443566685915
1725631155742514700,8.5665146484375,0.3033453795678913,-0.10995324362516402,-0.11680997765213251
1725631155752467700,8.5764677734375,0.626967385097593,0.34216567021906374,0.2821174442306161
1725631155762420700,8.586420654296875,0.38802842672765253,0.934742856067419,0.3718848089173436
1725631155772373800,8.596373779296876,0.5328394871138036,0.6374532694071531,0.5785150504872203
1725631155782326500,8.606326416015625,0.8531646430552006,0.4020838400870561,0.554785215331614
1725631155792279600,8.616279541015626,0.6470121019996702,0.32840836302340026,0.47843759644925593
1725631155802232600,8.626232666015625,0.16600129406154154,-0.02756137614250183,0.44156244851648807
1725631155812185600,8.636185546875,0.4050992423854768,-0.6743272482961415,0.42752661664038893
1725631155822138600,8.646138671875,0.30778292362391946,-0.5776525884389877,0.019107728312909602
1725631155832091600,8.656091552734376,0.07915434686616063,-0.2894394576817751,0.005061082781851292
1725631155842045400,8.66604541015625,0.10028466704785824,-0.6743079590737819,-0.048612055216729635
1725631155851998500,8.67599853515625,0.13687939060404897,-0.9750655141055583,-0.22831746498197317
1725631155861951500,8.685951416015625,-0.2412241466976702,-0.645306905516982,-0.32024229996353387
1725631155871904500,8.695904541015626,-0.13392813958302138,-0.4233230274707079,0.2020148567289114
1725631155881857500,8.705857421875,0.3074240271836519,-0.0709106885254383,0.40357261734008787
1725631155891810600,8.715810546875,0.6353390537321567,0.39043198073804375,0.35324674394279715
1725631155901763600,8.725763671875,0.37440205243527885,0.034460488006472584,0.36899347139000893
1725631155911716400,8.73571630859375,0.3720494979597628,-0.2067547447323799,0.39619595109224315
1725631155921669400,8.74566943359375,-0.0637600861184299,0.14292904603183268,0.11299012710303068
1725631155931622400,8.755622314453126,-0.2728156551390886,0.2142874783247709,-0.052690848962962625
1725631155941575400,8.765575439453125,-0.3338759807795286,0.12880933526456356,0.33404373856186864
1725631155951528400,8.775528564453126,0.1791138736128807,0.815710818451643,0.67168170222342
1725631155961481500,8.7854814453125,0.8181522202543914,1.488226048889756,0.761979812785983
1725631155971434500,8.7954345703125,0.6244479496225714,1.7687842809796332,0.5388154927834868
1725631155981387500,8.805387451171875,0.6380513814307749,1.1419915217965841,0.31908728470951314
1725631155991340500,8.815340576171875,0.2141974619537592,0.5474783994495869,0.09416647642850876
1725631156001293600,8.82529345703125,0.01432443955913186,-0.08077274184823036,-0.09802344411760568
1725631156011246600,8.83524658203125,0.28514979766383763,0.15615560735166073,-0.0019511340677738189
1725631156021199400,8.845199462890625,0.04532850350141525,0.37957097950577734,0.06506196249723434
1725631156031152400,8.85515234375,0.03382087492868304,0.05391629910469055,0.045537177816033364
1725631156041106400,8.8651064453125,0.33679625214040276,-0.2310059734135866,0.032771804267168046
1725631156051059500,8.8750595703125,0.27482889465764165,0.03841711667776108,0.0055599722146987916
1725631156061012500,8.885012451171875,0.13694047314152122,0.095523736256361,-0.32529519943892954
1725631156070965500,8.894965576171876,-0.11871931840479373,-0.09067921883463859,-0.4919081956580281
1725631156080918500,8.90491845703125,0.17714695745408535,-0.47395255998969077,-0.5935945461973547
1725631156090871600,8.91487158203125,-0.03599485796689987,-0.4729840072184801,-0.4488865077942609
1725631156100824600,8.924824462890625,-0.16627660387158394,-0.14796704019904136,-0.155254274597764
1725631156110777600,8.934777587890625,0.10516074865162373,0.21815058349370955,-0.1450833014562726
1725631156120730600,8.944730712890625,-0.051121699950098985,-0.05977963818013668,-0.0644756870418787
1725631156130683600,8.95468359375,-0.5445452686071396,-0.021125790137052534,-0.3257432354673743
1725631156140636700,8.96463671875,-0.6099186351411044,0.19517244348824023,-0.13944003487229348
1725631156150589400,8.97458935546875,-0.643286067213863,0.8183218777328729,-0.10139613542109727
1725631156160542500,8.98454248046875,-0.30061653912588954,0.978790672108531,-0.15346008465737104
1725631156170495500,8.99449560546875,0.019749679478257894,1.0324106186151505,-0.7352323833748697
1725631156180448500,9.004448486328124,-0.15930281933620571,0.7874246351659298,-1.1204457526817917
1725631156190401500,9.014401611328125,-0.9989595999121665,0.4395546158254146,-1.3024080014631152
1725631156200354600,9.0243544921875,-0.9613919396705924,-0.5777443583756685,-0.8275731056809424
1725631156210307600,9.0343076171875,-0.4654670557171106,-0.9190519504606723,-0.015246668970584869
1725631156220260600,9.044260498046874,-0.47994390935897824,-0.7181774959385394,0.2141030616685748
1725631156230213600,9.054213623046875,-0.9284270970493554,-0.4005763581335544,-0.07453501650243997
1725631156240167700,9.064167724609375,-1.2023806701771915,-0.5939537348985672,0.10802315234541893
1725631156250120700,9.07412060546875,-0.651716041906923,-0.835220405563712,0.47834144259840244
1725631156260073700,9.08407373046875,-0.5367376635961234,-0.31567806078791616,0.562194907066226
1725631156270026800,9.09402685546875,-0.5834264956653118,-0.0324164149582386,0.5689923121213912
1725631156279979500,9.1039794921875,-0.4632816745020449,-0.21541151391863822,-0.026843583261966703
1725631156289932800,9.113932861328125,-0.7914901310391723,-0.5238151997894048,0.3276534530028701
1725631156299885800,9.1238857421875,-1.0853500355117023,-0.24284604881107805,0.20555209094434976
1725631156309838800,9.1338388671875,-1.3194219723671674,-0.34103169775307174,-0.06813479407131671
1725631156319791900,9.1437919921875,-1.1339952623456715,-0.4638631276518106,0.13550883290320634
1725631156329744600,9.15374462890625,-1.7340483370326458,0.5324041644364595,0.8904299593493342
1725631156339697700,9.16369775390625,-1.1083774214863777,1.3653846821188926,1.5254820128336548
1725631156349650700,9.173650634765625,0.5153413859546184,1.5458470477312802,1.0841679861202835
1725631156359603700,9.183603759765624,0.8385239771537483,1.166328090673685,-0.24983985322117805
1725631156369556700,9.193556640625,0.5993547171592712,-0.18004852411448954,-0.6867173587918282
1725631156379509800,9.203509765625,-0.21229484320282935,-0.8789134168177842,-0.9125357004344463
1725631156389462800,9.213462890625,-0.945689635886997,-1.1849065344154834,-0.39016923814862964
1725631156399415800,9.223415771484374,-0.6564549069970845,-0.624939240270853,1.0530901262894272
1725631156409368800,9.233368896484375,-0.3241844617180526,0.30444764172136785,1.4145333284303545
1725631156419321900,9.24332177734375,0.07210662031173706,0.6191384450376033,1.1759268168851733
1725631156429275000,9.25327490234375,-0.16279636054039,0.453653283804655,1.535549233339727
1725631156439227600,9.2632275390625,-0.22615794886052606,0.21539748539328574,1.0784735738709568
1725631156449181700,9.273181640625,-0.1991296566814184,-0.07019874086380004,0.676862904253602
1725631156459134500,9.283134521484374,-0.13117343404740095,0.16455635595023632,0.4208791414499283
1725631156469087500,9.29308740234375,-0.20603549054712056,0.35213176843822,0.3053919368341565
1725631156479040500,9.30304052734375,0.2781331969000399,0.6933563584148883,0.3389899627923965
1725631156488993500,9.31299365234375,0.42746100405827164,1.1190186424881219,0.064758595636487
1725631156498946600,9.322946533203124,0.18071268711164593,1.3485656492650508,-0.40609482929408547
1725631156508899600,9.332899658203125,-0.1583199457786977,1.4261229361981154,-0.44732028139084573
1725631156518852600,9.3428525390625,-0.43659693506360053,1.6232032591342924,-0.341449046382308
1725631156528805600,9.3528056640625,-0.2013674987360835,2.043680249524116,-0.20986264761984347
1725631156538758700,9.362758544921874,-0.2016860631659627,2.33248842356503,0.021791560569405555
1725631156548711700,9.372711669921875,-0.19505700041502713,2.009194627076387,0.6546364593982696
1725631156558664700,9.382664794921874,0.11107727921903132,1.2408394340395927,0.9518132333338261
1725631156568617500,9.392617431640625,0.4611038920715451,0.2941144637554884,1.3963848005384205
1725631156578570500,9.402570556640624,1.3826340692140162,-0.23571429723501203,1.9406103356719016
1725631156588523500,9.4125234375,0.9172349641665816,-0.5034685773313046,1.93242586017251
1725631156598476500,9.4224765625,0.43884442172944543,-1.2792735018521546,1.5455039333820342
1725631156608429600,9.4324296875,0.8075695975720882,-1.5370628527730703,1.7436580230295657
1725631156618382600,9.442382568359376,1.1684613033100961,-1.5364993736714123,1.8901263491034506
1725631156628335600,9.452335693359375,0.87039810192883,-1.2544710690289735,0.9749322431147098
1725631156638288600,9.46228857421875,1.118242689679563,-1.2091115858674049,0.1984410898953676
1725631156648242700,9.47224267578125,1.5564993746489286,-0.8232248473435639,-0.11705869171619415
1725631156658195700,9.48219580078125,1.3436384219959376,-0.8361421965837478,-0.709946258687973
1725631156668148700,9.492148681640625,1.3033125490874051,-0.8790525330275296,-0.7086895366251468
1725631156678101800,9.502101806640624,0.6686477413550019,-0.5631599527060985,-1.0251870971024035
1725631156688054800,9.5120546875,0.10729776068031788,-0.5392705430746079,-1.3749386924058198
1725631156698007600,9.522007568359374,0.44870209113806486,-0.4701812247574329,-1.2398024922072888
1725631156707960600,9.531960693359375,1.1206252009019255,-0.5105512290686368,-0.7269418171525001
1725631156717913600,9.54191357421875,0.8552358963713049,-0.18609131141006946,-1.3530764046877621
1725631156727866600,9.55186669921875,0.9484642151668667,-0.2003238349020481,-1.6851497199594974
1725631156737819600,9.561819580078126,0.9942983301028608,-0.3305266703516245,-1.275013506320119
1725631156747772700,9.571772705078125,0.4744409280285239,-0.492048188650608,-0.9538210660248995
1725631156757725700,9.5817255859375,-0.198212834097445,-0.4475251563131809,-0.872341637212038
1725631156767678700,9.5916787109375,0.028304887986183164,-0.904818842446804,0.09883680632710456
1725631156777631700,9.6016318359375,0.7989750799670815,-1.0193927316099405,1.0002928943425415
1725631156787584800,9.611584716796875,0.1998836899191141,-1.0275234310954808,0.7355898185104132
1725631156797537800,9.621537841796876,-0.9674565004065633,-0.8961813624829054,-0.4234007688820362
1725631156807490600,9.631490478515625,-0.7677531354904175,-0.8683160349577664,-0.19397242004871368
1725631156817443600,9.641443603515626,-0.25663141305744647,-0.14931845480799674,0.22307167328298091
1725631156827396600,9.651396728515625,-0.30643793875575065,0.18418343196213244,-0.23004969560205935
1725631156837349600,9.661349609375,-0.27659575819969173,0.3320277225643396,-0.6332727688521146
1725631156847302700,9.671302734375,-0.1166986262321472,0.11136895564198493,-0.3246171540468931
1725631156857256700,9.681256591796876,0.8765759137809276,-0.14801964716911314,0.5019727858155966
1725631156867209700,9.691209716796875,0.45614977679550645,0.1836053398132324,0.3869797944575548
1725631156877162800,9.701162841796876,-0.003385258524119854,-0.06828852332830429,-0.10924684892147779
1725631156887115800,9.71111572265625,0.27463059560656544,-0.33840953255593775,-0.048424131429195404
1725631156897068800,9.72106884765625,0.4349713796883821,-0.3125304104119539,0.24163287362903355
1725631156907021800,9.731021728515625,-0.3601984627768397,-0.1624298653155565,-0.2695236278563738
1725631156916974800,9.740974853515626,-0.7300982353568076,-0.39351767179369923,-0.2676704012051225
1725631156926928000,9.750927978515625,-0.6226245335876941,-0.5437532414466142,0.12565525514781475
1725631156936880600,9.760880615234376,-0.47325990155041214,-0.5069435599654912,0.17266221325546502
1725631156946833700,9.770833740234375,-0.7289382516667247,-0.7472872705668211,-0.2585883923441171
1725631156956786700,9.78078662109375,0.22740824118256567,-0.9634984104305505,0.4746949027895927
1725631156966739700,9.79073974609375,0.7482613762959838,-0.4454033418536186,1.188879821960628
1725631156976692700,9.800692626953126,0.1760854657024145,-0.13667349276840687,0.414048126386106
1725631156986645800,9.810645751953125,-0.5062292742162943,0.033093291306495666,-0.23404490271806716
1725631156996598800,9.820598876953126,-0.20423355569168924,1.223759119901061,0.3023778497099876
1725631157006551800,9.8305517578125,0.6421762062758207,2.460034607025981,0.41034488795399665
1725631157016504800,9.8405048828125,0.12051087799668311,3.145269618305564,-0.5461053575307131
1725631157026457900,9.850457763671875,-0.5171896441698074,2.275472989401221,-0.8978428659543395
1725631157036411000,9.860410888671876,-0.52207098647058,0.8012474088132381,-0.28052666790783404
1725631157046363600,9.87036376953125,-0.4108312101662159,0.5510276163637637,0.18218465936034917
1725631157056317700,9.880317626953126,-0.9397801195822656,0.923355200612545,-0.5372510199457406
1725631157066270500,9.8902705078125,-0.6415630428135395,1.0638052893102168,-0.6678446082785725
1725631157076223500,9.900223388671876,-0.06943126362264156,1.281660104727745,0.026755028195679185
1725631157086176500,9.910176513671875,0.2816612248957157,1.5375094274967909,0.13373013279289006
1725631157096129500,9.920129638671876,-0.8456089669786393,0.8881231437116861,-1.5434572299852967
1725631157106082600,9.93008251953125,-0.9460252975821495,0.015253098711371421,-1.9479463776484132
1725631157116035600,9.94003564453125,-0.1884166856177151,-0.3885632642567158,-1.0264566786468028
1725631157125988600,9.949988525390625,0.3372777520470321,-0.1747170999586582,-0.15517711770832537
1725631157135941600,9.959941650390626,0.44606341319754717,-0.1311596977829933,-0.5816752680838108
1725631157145894700,9.969894775390625,0.8874209867917001,-1.1879951480805873,-0.35531565917134283
1725631157155847700,9.97984765625,1.0646719891421497,-1.672365641710162,0.3342731634035706
1725631157165800700,9.98980078125,0.8453092533797025,-1.5512854393929243,-0.19096943884044884
1725631157175753500,9.99975341796875,0.019815438190847634,-1.4111241045087575,-1.00481855507344
1725631157185706500,10.00970654296875,-0.36281624405980106,-1.7125521061480045,-0.7958531485542655
1725631157195659500,10.019659423828125,-0.41270299538746474,-1.2296791575998067,-0.3036035921126604
1725631157205612500,10.029612548828124,-0.7327619016081094,-0.7995213156729936,-0.46426294062435625
1725631157215565600,10.039565673828125,0.07634732662141322,-0.7815268092989921,-0.8838631481796503
1725631157225518600,10.0495185546875,0.45659269825741644,-0.39611353350579737,-0.37760143299847837
1725631157235471600,10.0594716796875,1.0460299786448477,0.14980594606399536,-0.9102782768964767
1725631157245424600,10.069424560546874,-0.3349655295819044,0.3214063753068447,-1.4174039154306053
1725631157255378700,10.079378662109375,-0.6669535046577453,-0.314264686858654,-0.6690221276253462
1725631157265331700,10.089331787109375,-0.5544043993204831,-0.3968973773598671,0.916051891861856
1725631157275284700,10.09928466796875,-0.4601747945278883,0.47302433922886844,1.3868825204387307
1725631157285237800,10.10923779296875,-0.5136737450033426,-0.4066033633381128,0.6769906222864985
1725631157295191000,10.11919091796875,-0.010201076018810271,-1.2919821767777204,0.8642132758140564
1725631157305143800,10.129143798828125,0.17765958315134048,-0.9693494745463133,1.1326505697384477
1725631157315096800,10.139096923828125,-0.01359554076269269,-0.3163882548838854,1.1802741984397171
1725631157325049900,10.1490498046875,-0.06735270378291607,-0.2591530404895544,0.7220394320636987
1725631157335003000,10.1590029296875,-0.6508650511007755,1.4901292521625755,-0.44978433341681956
1725631157344956000,10.168955810546874,-0.7492952493883669,1.982023711556196,-1.4598349439248441
1725631157354909000,10.178908935546875,-0.4159605358786881,1.9651748680859804,-1.2990505077287553
1725631157364862000,10.188862060546874,0.1668752273518592,2.0342641864031554,-1.4562471485659478
1725631157374815000,10.19881494140625,0.3585322831302881,1.9154326397955417,-1.1315852785944938
1725631157384768000,10.20876806640625,0.4620930492393672,1.3908277509331701,-0.24955226845145223
1725631157394721000,10.218720947265625,0.9721569331824779,0.8930968404710292,0.44902650078684087
1725631157404674000,10.228674072265624,0.9596241993457079,0.8329244035810232,0.46890872060358524
1725631157414626800,10.238626708984375,0.9577176350720226,0.4058282873123884,0.41924131111502644
1725631157424579800,10.248579833984374,0.7764134118080138,0.36336101846098895,-0.14287673132270573
1725631157434532900,10.258532958984375,-0.20747253761291504,0.04886310736835003,-0.38528643454313277
1725631157444486000,10.26848583984375,0.05278758733570575,-0.6335457405745982,-0.20686258902102708
1725631157454440000,10.27843994140625,-0.41606735725402827,-0.6492319700062275,0.4095513994887471
1725631157464393000,10.28839306640625,-0.1671736988417804,-0.9824375041782856,0.7346931619316339
1725631157474346000,10.298345947265625,1.194378200181201,-1.263752107593417,0.5181929759934544
1725631157484299000,10.308299072265624,1.881069182422757,-1.0466747062891721,0.07849602908790111
1725631157494252000,10.318251953125,1.7195440108619628,-0.5840630400031804,-0.5677434811040759
1725631157504205000,10.328205078125,1.2683517103433608,-0.4711754964917898,-1.0355699594289063
1725631157514158000,10.338157958984375,0.06897241393923759,-0.730457716318965,-0.6764303580552339
1725631157524111000,10.348111083984374,0.232399327468127,-1.4258978952705859,0.3116933750659227
1725631157534064000,10.358064208984375,0.004063669242337346,-1.0734130756109952,0.4374973910346627
1725631157544017000,10.368016845703124,0.2686380771934986,-1.0730763910025358,0.47663609998524187
1725631157553970000,10.377969970703125,0.8813555492728948,-1.4424591539710758,1.0381132141709326
1725631157563923000,10.3879228515625,0.44607203489542,-0.39966976468265053,0.7739996286645531
1725631157573876000,10.3978759765625,0.49745165512934325,-0.0221294142216444,0.8323220537737012
1725631157583829000,10.4078291015625,0.4807914660990238,0.5142775561153888,0.6429866458758712
1725631157593782000,10.417781982421875,0.18338263697326182,0.7016910560399293,0.06897679785341024
1725631157603735000,10.427735107421874,-0.10995609316937625,0.6035094987511634,-0.42459874649494883
1725631157613688000,10.43768798828125,-0.7183576748110354,1.0087813212245702,-0.6323159065186977
1725631157623641000,10.44764111328125,-1.2431114706248043,1.1389730507582425,-0.4038786145493388
1725631157633594000,10.457593994140625,-1.6169288550399243,1.0321662884652614,-0.13748276332467793
1725631157643547100,10.467547119140624,-1.29873398912549,0.5353869796395302,0.17002163561880587
1725631157653501000,10.4775009765625,-0.78485522306934,0.3713847504407167,0.3977671459317207
1725631157663454000,10.487453857421874,-0.6851660376965999,0.48156069690585135,0.6078846450954676
1725631157673406700,10.49740673828125,-0.24882329658977687,0.43332361248135565,0.59370589761734
1725631157683359700,10.50735986328125,-0.07662665501944721,0.4700701655983925,0.4702142502442002
1725631157693312800,10.517312744140625,0.19236089319884775,0.34520226143598554,0.4550666577339172
1725631157703265800,10.527265869140624,0.5253583375781774,0.5526666157424449,0.5047776141032576
1725631157713218800,10.53721875,0.4559738357067108,0.7712053217709064,0.1008615901529789
1725631157723171800,10.547171875,0.2521295715935528,0.557653756505251,-0.3438087612509727
1725631157733124900,10.557124755859375,0.2287760224044323,0.06368307535946369,-0.43627106411010025
1725631157743078000,10.567077880859374,0.11745163655653595,0.010986088916659354,-0.4546028396144509
1725631157753031000,10.577031005859375,-0.6042226154565811,0.4723468783587217,-0.6843930074974894
1725631157762984000,10.58698388671875,-0.9050994129538535,0.6865437557905912,-0.7170093289420009
1725631157772937000,10.59693701171875,-0.5802313528858125,0.878926860821247,-0.4409194744378328
1725631157782889700,10.6068896484375,-0.7847438716493547,1.055457147681713,-0.004247136050462723
1725631157792842800,10.6168427734375,-0.491482225330919,0.6841589064806699,-0.19934476073682306
1725631157802795800,10.626795654296876,-0.642652153224498,0.20881693795919418,-0.5933809034466743
1725631157812748800,10.636748779296875,-0.7311077046602964,-0.5324287143558264,-0.7081357021346688
1725631157822701800,10.646701904296876,-0.8821499145209789,-0.8447370064496994,-0.7231123219922184
1725631157832654800,10.65665478515625,-0.520974423405528,-1.0792542028546332,-0.48752954218238587
1725631157842607900,10.66660791015625,-0.34342999106645583,-0.5563251382499933,-0.2583323717564344
1725631157852562000,10.67656201171875,-0.23446049778163433,-0.2023626472532749,-0.0004626490756869316
1725631157862515000,10.686514892578124,-0.44771790240630505,0.12144552849829196,0.46387832522094247
1725631157872468000,10.696468017578125,-0.11542539142593741,-0.11073767200112342,0.1939274118632078
1725631157882421000,10.7064208984375,0.34020810641050336,-0.6251531752824783,0.07627133877575397
1725631157892374000,10.7163740234375,0.12463833319023251,-0.7963210583269595,-0.009479483745992183
1725631157902327000,10.7263271484375,-0.36972704636156556,-0.6724941876500845,-0.42550154055356976
1725631157912279800,10.73627978515625,-0.5176769892953336,-0.5775614030241966,-0.6968178970456123
1725631157922232800,10.74623291015625,-0.23925050853714344,-0.33767245045304295,-0.5116878318831324
1725631157932185900,10.756185791015625,-0.1586148370720446,0.11046762288808822,-0.47491468302011486
1725631157942139000,10.766138916015626,-0.25204876144230365,0.4339578187316656,-0.5202765042692422
1725631157952092000,10.776091796875,-0.3529622279129922,0.4566647405803203,-0.8427236208006739
1725631157962045000,10.786044921875,-0.13002967083975672,0.17113924147188664,-1.3598185724243521
1725631157971998000,10.795998046875,-0.005338876809924841,-0.18171207341253756,-1.0202706834882498
1725631157981951000,10.805950927734376,-0.15251505889222025,0.13542378496825694,-0.9783435128629207
1725631157991904000,10.815904052734375,-0.2692044789046049,0.33725860895514487,-0.8160776059374213
1725631158001857000,10.82585693359375,-0.3633537119373679,0.47862815058529373,-0.5691349354624748
1725631158011809800,10.835809814453125,0.165138832013309,0.3747831607073545,0.022712767067551612
1725631158021762800,10.8457626953125,0.1518881591655314,0.6233750596940517,0.2083925750672817
1725631158031715800,10.8557158203125,0.06879851867705583,0.5338023407965898,0.15455167928636074
1725631158041668900,10.8656689453125,0.1803477993220091,0.5129419235974549,-0.06987725382447242
1725631158051623000,10.875622802734375,0.21559680735766887,0.4539356078773737,0.10139876576960086
1725631158061576000,10.885575927734376,0.08512158470749855,0.10521160205602645,0.4291343440979719
1725631158071529000,10.895529052734375,0.5905944875985384,-0.09470715917646884,1.0367314044237137
1725631158081482000,10.90548193359375,0.8856114531517029,-0.08829203143715858,1.300735392075777
1725631158091435000,10.91543505859375,0.644521892619133,-0.4913841717839241,1.3345043906867504
1725631158101388000,10.925387939453126,0.7591720618888735,-1.0626531966656445,1.7662638225913048
1725631158111341000,10.935341064453125,0.8369178571313619,-0.9942927771449088,1.7200860087841747
1725631158121294000,10.945294189453126,0.40296822170615193,-0.928638693973422,1.9700871900469064
1725631158131247000,10.9552470703125,0.7286131113655865,-0.7320616443842649,2.1995400887995955
1725631158141200000,10.965199951171876,0.9913175607264041,-0.40382103914320466,1.8241817585527895
1725631158151153000,10.97515283203125,1.0763462064534426,-0.7348696875423193,1.5699831256002186
1725631158161106000,10.98510595703125,1.2545052635595202,-0.9095669137567282,1.4383809447467326
1725631158171059000,10.995058837890625,0.7710954316556453,-0.9249246418863535,1.075953407743573
1725631158181012000,11.005011962890626,0.36599165922552346,-0.5414040479719638,0.5049947639852762
1725631158190965000,11.014965087890625,0.3631798166751861,0.003063479223847389,0.012788169902563094
1725631158200918000,11.02491796875,0.2033577957704663,0.6736819361299275,-0.4392202693045139
1725631158210871000,11.03487109375,0.04883738840520382,1.1270517268180846,-0.9324375017344951
1725631158220824000,11.044823974609375,-0.10924684892147779,1.2682406511843203,-1.3668600153684616
1725631158230777000,11.054777099609375,-0.08910130199342965,1.292624566334486,-1.3328981245338916
1725631158240730000,11.064730224609375,0.030249884574115274,1.2679442985862492,-1.0467688143134117
1725631158250683000,11.074682861328125,-0.19533610961735248,1.3844921181708574,-0.8486509650230407
1725631158260637000,11.084636962890626,0.0353638665869832,1.3998200356841086,-0.6733692169189452
1725631158270590000,11.09458984375,0.43845659145563837,1.2505343141019343,-0.47016135101318357
1725631158280543000,11.10454296875,0.513294390296936,0.7051385661453008,-0.05789455508589744
1725631158290496000,11.11449609375,0.2116992153972387,0.15945581794083116,-0.04444061475098133
1725631158300448500,11.124448486328125,0.46888124807476994,0.2778413743466139,0.19083587558865547
1725631158310401500,11.134401611328125,0.7530635158807039,-0.2286088491439819,0.08092062588632107
1725631158320354600,11.1443544921875,0.520584839566052,-0.3744757021933794,0.3752385032594204
1725631158330307600,11.1543076171875,0.5986956687286495,-0.4204290595948696,0.7139432193696499
1725631158340260600,11.164260498046875,0.5570119514703751,-0.26727614119052884,0.8601987794756889
1725631158350213600,11.174213623046874,0.31782734777629373,-0.28897125564813614,0.769902422478795
1725631158360166700,11.184166748046875,0.3459120171405375,-0.12299801863729953,0.6579670651257038
1725631158370119400,11.194119384765624,0.1543096872240305,-0.46332244490385055,0.8314712821632623
1725631158380072400,11.204072509765625,0.23871420970335602,-0.6750935564935207,0.9581085340857505
1725631158390025500,11.214025390625,0.2887152350604534,-0.7507458865880966,0.8622259013891219
1725631158399978500,11.223978515625,0.5303063153743743,-0.303475581818819,0.5227577996909618
1725631158409931500,11.233931640625,0.48928223106861113,-0.06413783338963985,0.6913625542491674
1725631158419884500,11.243884521484375,0.3418272320449352,-0.36277825013697146,0.5823796169608831
1725631158429837600,11.253837646484374,0.763867233967781,-0.7548959920048713,1.2103063486099241
1725631158439790600,11.26379052734375,0.8642705589592456,-0.5490618692487478,1.344338971480727
1725631158449743600,11.27374365234375,0.6455284393131733,-0.505821277937293,0.7764999210476875
1725631158459697400,11.283697509765625,0.360942997533828,-0.7213467736244201,0.5336842673748732
1725631158469650400,11.293650390625,0.9490906765021383,-0.8609814542859793,0.7296651046365499
1725631158479603500,11.303603515625,0.6259938638903201,0.1549064840734005,0.4168208059698343
1725631158489556500,11.313556396484374,0.12181669989824294,0.7977215727746486,-0.1934188778191805
1725631158499509200,11.32350927734375,0.0027019524350762364,0.9022522068291902,-0.44803661296665664
1725631158509462300,11.333462158203124,0.35071371833384035,0.6830442232370376,-0.44364159287810323
1725631158519415300,11.343415283203125,0.5194119963943958,1.0653823293685913,-0.7586492070585489
1725631158529368300,11.353368408203124,-0.4925684131324291,1.2075029816269873,-1.2090636550724505
1725631158539321300,11.3633212890625,-0.7588194490589201,0.5536486125171184,-0.8713163858175277
1725631158549274400,11.3732744140625,-0.6202969674229621,0.266889772221446,-0.599314092887938
1725631158559227400,11.383227294921875,-0.46670799568891524,0.1452472598463297,-0.13320143274366855
1725631158569180400,11.393180419921874,-0.6426917545825243,0.6571276916921138,-0.14884674564301967
1725631158579133400,11.403133544921875,-0.5830208374738692,0.7776847469180822,-0.09798720376044512
1725631158589086500,11.41308642578125,0.4977274033308029,0.3232189776867628,-0.5205553212106228
1725631158599039500,11.42303955078125,-0.06529986290633678,0.016485855376720426,-0.681275459998846
1725631158608992300,11.4329921875,-0.33448972876369953,-0.6462479857593775,-0.6262474002599716
1725631158618945300,11.4429453125,0.2863658954553306,-0.7480278598010539,-0.52761956050843
1725631158628898300,11.452898193359376,0.03151332863867283,-0.6325865401536226,-0.8249436339601874
1725631158638851300,11.462851318359375,-0.18283947000727058,-0.7732470567315817,-0.975599474851787
1725631158648804400,11.472804443359376,0.025520956356078386,-0.9603115970879793,-0.40019963377565143
1725631158658758400,11.48275830078125,0.6141758541941642,-0.5788911903232336,-0.1535740664258599
1725631158668711400,11.49271142578125,0.5838626951254904,0.23564123199880121,-0.48238662633597845
1725631158678664400,11.50266455078125,0.47722361754961307,0.652082683262229,-0.3900523337706923
1725631158688617500,11.512617431640624,0.744602707657963,0.8160854969829321,-0.1696916730120778
1725631158698570500,11.522570556640625,0.5596083977043629,0.5682955620288849,-0.32007337313741446
1725631158708522500,11.5325224609375,0.358097983366251,0.04763268879055976,-0.3238645821139216
1725631158718476500,11.5424765625,-0.03783076815716922,-0.15417992336452008,-0.24749708948731422
1725631158728429600,11.5524296875,-0.023509908794611692,-0.38008126711547374,-0.2311404134482145
1725631158738382300,11.56238232421875,-0.03758125037550926,-0.32133097198307514,-0.1397507082566619
1725631158748335400,11.57233544921875,-0.019977204623818395,0.08274959487915039,-0.45169747356176376
1725631158758288400,11.582288330078125,-0.18806575328819453,0.37213352298140523,-0.7898863491043449
1725631158768241400,11.592241455078126,-0.7368652452737092,0.31819676561057564,-0.6836512492194772
1725631158778194400,11.6021943359375,-0.3124924164891243,0.23296529078781603,-0.4941486680611968
1725631158788147500,11.6121474609375,-0.29462124423384667,-0.12416589337289333,-0.6254959973707794
1725631158798100500,11.6221005859375,-0.34298275875560935,-0.18837913008630275,-0.2081914995372295
1725631158808053500,11.632053466796876,0.33793424319438636,0.1606008963227272,0.12103022569566964
1725631158818006500,11.642006591796875,-0.03358487421572208,0.5284159715831279,-0.0347103711143136
1725631158827959600,11.65195947265625,-0.2166569839350879,0.1838490854412317,-0.1551157429099083
1725631158837912600,11.66191259765625,-0.01748129615485668,-0.14930734889209268,0.11531009448319673
1725631158847865300,11.671865234375,-0.1659687069661915,0.4416477887123823,0.2886369091272354
1725631158857818400,11.681818359375,0.34564774018116295,0.4369645993322134,0.018426175789535044
1725631158867771400,11.691771484375,0.4188210398763418,0.19343056825697422,-0.10214052404761313
1725631158877724400,11.701724365234375,0.7893019733451306,0.09515548746585846,-0.21004735653698442
1725631158887677400,11.711677490234376,0.7404945416867733,0.2584685653567314,-0.1724237283244729
1725631158897630500,11.72163037109375,0.509140047096461,0.5125900414198636,-0.17953765198290347
1725631158907583500,11.73158349609375,0.36641616824790835,0.5059247383117675,-0.23351211101561783
1725631158917537500,11.74153759765625,0.4657466033108532,0.10107084898948669,-0.06458645393997431
1725631158927490600,11.751490478515626,0.9288092282347381,0.1276923139333725,0.041242695492506025
1725631158937443600,11.761443603515625,0.8138602221488952,0.1215922434926033,0.09062135116755962
1725631158947396600,11.771396728515626,0.5605437788583338,0.017519874599575994,-0.39555093118697404
1725631158957349600,11.781349609375,0.14885668251514433,-0.6183434952676296,-0.07306932786405086
1725631158967302700,11.791302734375,0.20581819453462957,-0.9594880057454108,-0.44345191552489993
1725631158977255400,11.80125537109375,-0.3216974672079086,-1.0781968027561903,0.015734160226583478
1725631158987208400,11.81120849609375,0.18349603421986102,-0.5403326193481683,0.5787506128087639
1725631158997161500,11.821161376953125,0.7385299636155367,-0.15452537580132483,0.7636249496445059
1725631159007114500,11.831114501953126,0.4944552497923374,0.49280105284452436,0.4472957314714789
1725631159017067500,11.841067626953125,0.2753768839292228,0.41932314417958255,0.42109687585383654
1725631159027020500,11.8510205078125,0.16090718579292296,0.7629390132069587,0.26673896557390686
1725631159036973600,11.8609736328125,0.13245090663731096,0.8466407942444085,0.5987646423116326
1725631159046926600,11.870926513671876,0.009524784192442893,1.175578734099865,0.7137865675032138
1725631159056879600,11.880879638671875,0.07569485406205058,1.0259165804207324,1.0440338363915682
1725631159066832600,11.89083251953125,0.3020212913572788,1.2829033827871084,1.2300468218684195
1725631159076786400,11.900786376953125,0.27164668442495166,1.763340628620982,0.9689935007154941
1725631159086739500,11.910739501953126,0.24565920653566717,1.5735528007805346,0.8208183707237243
1725631159096692500,11.9206923828125,0.3478331944614649,1.347785897064209,0.4388733555629849
1725631159106645200,11.930645263671876,0.44659525505192577,1.418842716062069,0.34570524252206086
1725631159116598300,11.940598388671875,0.5083411518037318,1.8789105430841444,-0.06629208881407976
1725631159126551300,11.95055126953125,0.7652478746712207,1.7553841166585682,-0.10225333677232265
1725631159136504300,11.96050439453125,0.6579635579943657,1.4477321259379385,-0.32880057721138
1725631159146457300,11.970457275390626,0.24896942706219852,0.7153624385178089,-0.6187798408582806
1725631159156410400,11.980410400390625,-0.6354460212379693,0.004683773902058601,-1.0062111784756183
1725631159166363400,11.99036328125,-0.49470710566155607,-0.43615503651499743,-0.46245355311483144
1725631159176316400,12.00031640625,0.04273907153010368,-0.2174561714887619,-0.1761360268458724
1725631159186269400,12.01026953125,-0.05163308353833854,0.21624153500199317,-0.328278306902945
1725631159196222500,12.020222412109375,-0.14731464070491493,0.2157078665167093,-0.627072745168209
1725631159206175200,12.03017529296875,0.029438787386938926,-0.5130950683325529,-0.4437143658533692
1725631159216128300,12.040128173828125,-0.4500702376861125,-0.5305751954436302,-0.6312880247756838
1725631159226081300,12.050081298828125,-0.6517108542751521,-0.6846937440097332,-0.6160147600591183
1725631159236034300,12.060034423828125,-0.5561264738727361,-0.8959393704205751,-0.4898933487042784
1725631159245987300,12.0699873046875,-0.1495307093191892,-0.9169716370552777,-0.7724149898216128
1725631159255940400,12.0799404296875,0.2864677483946085,-1.1039864930510521,-0.7149933129444718
1725631159265893400,12.089893310546875,-0.49662148791551586,-0.47660161319375033,-1.431828746624291
1725631159275847400,12.099847412109375,-1.068913499169424,-0.6844388924658298,-1.388105340231955
1725631159285800400,12.109800537109376,-0.5960509263735264,-1.4410644847422838,-1.4459084176421164
1725631159295753500,12.11975341796875,-0.9844447523474693,-0.7374842539548874,-1.2009010991439222
1725631159305706500,12.12970654296875,-1.3927297851622105,-0.5186205537557602,-1.1064356397688389
1725631159315659500,12.139659423828125,-0.9803255535256117,-0.9746429047793149,-0.8164490695983171
1725631159325612500,12.149612548828125,-0.3947427566092461,-1.380453071913123,-0.7887702045559882
1725631159335565300,12.1595654296875,-0.47499366654045877,-1.7978198213279246,-0.6817541834264993
1725631159345518300,12.169518310546875,-1.4072633374273775,-1.5526795240998268,-1.116336563797295
1725631159355471400,12.179471435546875,-1.2350456530690193,-2.3028689458489415,-0.2919409191086888
1725631159365424400,12.18942431640625,-0.13782258973829448,-2.0845950282365084,0.830755827370286
1725631159375377400,12.19937744140625,-0.0708890612155199,-1.4841209516584872,0.7086936282783747
1725631159385330400,12.209330322265625,0.35358730100877583,-1.6333786161899566,0.989820307905972
1725631159395283500,12.219283447265624,0.6012707799136638,-1.754323209428787,1.4156573640242218
1725631159405236500,12.229236572265625,-0.17119360200762748,-1.213193886744976,1.2945336148262023
1725631159415189500,12.239189453125,-0.5585154879011214,-0.912987535855174,0.8636173557475209
1725631159425142500,12.249142578125,-0.4318361504025757,-0.8976338993787765,0.8700336525306105
1725631159435095600,12.259095458984374,0.6899111863970756,-0.509185785934329,1.2240931741610168
1725631159445048300,12.26904833984375,-0.16191095600798724,0.991028806912899,0.028449557153880596
1725631159455002600,12.279002685546875,-1.7249685201287268,1.6964350840836762,-1.1555208654552698
1725631159464955400,12.288955322265625,-1.954430771231651,2.360422140151262,-1.1526622611537576
1725631159474908400,12.298908447265624,-1.4548860893458126,3.778276429697871,-1.6548340766727923
1725631159484861400,12.308861328125,-1.3233996438264846,4.676778928604722,-2.632653565661609
1725631159494814500,12.318814453125,-0.6960806688122451,4.609111167523265,-3.000201514418423
1725631159504767500,12.328767578125,-0.5658057910397648,3.8756437479943036,-2.86026609724462
1725631159514720500,12.338720458984374,-0.4529892669379711,2.510711485818028,-2.1937255573019385
1725631159524673500,12.348673583984375,-0.05809563061594963,1.2314672100603579,-0.19789047027528284
1725631159534626600,12.35862646484375,0.27761180337443947,1.0718313593775033,0.9585404957622289
1725631159544579600,12.36857958984375,0.4858477265752852,0.596249736881256,1.168859070456028
1725631159554532600,12.37853271484375,1.0016492773875594,-0.07369651985168457,0.9839116683840751
1725631159564485600,12.388485595703125,1.2177286075651645,-1.0185393296509981,1.705874528080225
1725631159574438400,12.3984384765625,0.7598498150199652,-0.9886562325626611,1.4831138204425574
1725631159584391400,12.408391357421875,0.20908830224648117,-0.8932225126773119,1.4595745394229889
1725631159594344400,12.418344482421874,0.7030087145097553,-0.6428653575837612,1.905301121881604
