time,seconds_elapsed,z,y,x
1725631399562214700,0.023214599609375,0.27243390679359436,1.3771650791168213,-1.1273303031921387
1725631399572167700,0.033167724609375,0.10294055193662643,1.2474398612976074,-1.2125240564346313
1725631399582120700,0.04312060546875,-0.11877453327178955,1.0959362983703613,-1.1027765274047852
1725631399592073700,0.05307373046875,0.0418042428791523,0.6078908443450928,-0.7065743207931519
1725631399602026800,0.06302685546875,0.5337265729904175,0.303852915763855,-0.0439009852707386
1725631399611978800,0.072978759765625,0.9340277910232544,0.6060727834701538,0.5089795589447021
1725631399621931800,0.082931884765625,1.1691359281539917,0.8765157461166382,0.676965594291687
1725631399631884800,0.092884765625,1.3312065601348877,0.5427700877189636,0.7583872079849243
1725631399641837600,0.102837646484375,1.4741356372833252,0.3964163362979889,0.8634606003761292
1725631399651790600,0.11279052734375,1.5732698440551758,0.04797127842903137,1.0220630168914795
1725631399661743600,0.12274365234375,1.5843850374221802,-0.4660124182701111,1.306012749671936
1725631399671695600,0.132695556640625,1.498111367225647,-1.079429030418396,1.7180676460266113
1725631399681648600,0.142648681640625,1.3935067653656006,-1.6715712547302246,2.1456427574157715
1725631399691601700,0.1526015625,1.3074396848678589,-2.455820322036743,2.377650260925293
1725631399701554700,0.1625546875,1.288536787033081,-3.190037250518799,2.369061231613159
1725631399711507700,0.1725078125,1.3429847955703735,-2.8125362396240234,2.0504586696624756
1725631399721459700,0.182459716796875,1.2754480838775635,-1.4750242233276367,1.2381693124771118
1725631399731412700,0.192412841796875,0.9527473449707031,-0.9662625789642334,0.42388805747032166
1725631399741365800,0.20236572265625,0.7698864340782166,-0.10638327896595001,0.23029115796089172
1725631399751318800,0.21231884765625,1.4711359739303589,-0.0014338373439386487,-0.4931655526161194
1725631399761271800,0.222271728515625,1.82574462890625,-0.09321969002485275,-1.2962268590927124
1725631399771224800,0.232224853515625,1.7947958707809448,-0.07476283609867096,-1.7197004556655884
1725631399781176800,0.2421767578125,1.9109636545181274,-0.39301377534866333,-1.770847201347351
1725631399791129900,0.2521298828125,2.023247241973877,-0.7315932512283325,-1.4247100353240967
1725631399801082600,0.26208251953125,2.1022660732269287,-1.3579024076461792,-0.8945524096488953
1725631399811035600,0.27203564453125,2.2194550037384033,-2.2068395614624023,-0.30135515332221985
1725631399820988700,0.28198876953125,2.3899312019348145,-3.1378424167633057,0.33897557854652405
1725631399830941700,0.291941650390625,2.6293110847473145,-3.939366340637207,0.9409106969833374
1725631399840893700,0.301893798828125,2.9233667850494385,-4.533089637756348,1.3959811925888062
1725631399850846700,0.3118466796875,3.2107279300689697,-5.023318290710449,1.7311251163482666
1725631399860799700,0.3217998046875,3.4014739990234375,-5.486356258392334,1.6567678451538086
1725631399870752800,0.331752685546875,3.5535662174224854,-5.489040374755859,1.0671743154525757
1725631399880705500,0.34170556640625,4.098845481872559,-4.64949369430542,0.5257134437561035
1725631399890658600,0.351658447265625,4.394436836242676,-3.7745532989501953,-0.16234105825424194
1725631399900610600,0.361610595703125,4.634949684143066,-3.3016374111175537,-0.8038398027420044
1725631399910563600,0.3715634765625,4.82444953918457,-3.2433974742889404,-1.2443491220474243
1725631399920516600,0.3815166015625,4.9781880378723145,-3.5265586376190186,-1.3412377834320068
1725631399930469600,0.3914697265625,5.007776737213135,-3.820368528366089,-1.203661322593689
1725631399940422700,0.401422607421875,4.9008049964904785,-3.573437213897705,-1.2363181114196777
1725631399950374700,0.411374755859375,4.891365051269531,-2.7915852069854736,-1.354353666305542
1725631399960327700,0.42132763671875,4.625128746032715,-2.065831422805786,-1.8795568943023682
1725631399970280700,0.43128076171875,4.580909729003906,-1.3301057815551758,-2.3641483783721924
1725631399980233700,0.441233642578125,4.687702655792236,-0.6397485733032227,-2.7104012966156006
1725631399990186800,0.451186767578125,4.850436210632324,-0.328655481338501,-3.045928955078125
1725631400000139800,0.461139892578125,5.160630702972412,-0.46247532963752747,-2.8705742359161377
1725631400010091800,0.471091796875,5.789416790008545,-1.28830885887146,-2.1202776432037354
1725631400020044800,0.481044921875,4.374599933624268,-3.3257837295532227,-1.1311511993408203
1725631400029997800,0.490997802734375,3.503865957260132,-4.245595932006836,-0.555499255657196
1725631400039950600,0.50095068359375,3.5506510734558105,-4.540859699249268,0.4669479429721832
1725631400049903600,0.510903564453125,3.5912632942199707,-3.3050427436828613,0.3191523253917694
1725631400059856600,0.520856689453125,3.760045051574707,-2.215965986251831,0.11417520046234131
1725631400069808600,0.53080859375,3.8054864406585693,-0.9163328409194946,-0.18980944156646729
1725631400079761700,0.54076171875,3.8005316257476807,0.0666034147143364,-0.7191638946533203
1725631400089714700,0.550714599609375,3.7257938385009766,1.3719309568405151,-1.2783437967300415
1725631400099667700,0.560667724609375,3.7134850025177,2.9471142292022705,-1.8878720998764038
1725631400109620700,0.570620849609375,3.7217929363250732,4.15252685546875,-2.847473382949829
1725631400119573500,0.580573486328125,3.6146914958953857,4.592456340789795,-3.301650285720825
1725631400129525800,0.59052587890625,2.9164390563964844,5.608262538909912,-3.5861027240753174
1725631400139478800,0.600478759765625,3.006683349609375,5.5034894943237305,-3.585559844970703
1725631400149431800,0.610431884765625,3.413386106491089,5.114274978637695,-2.9731626510620117
1725631400159384800,0.620384765625,2.618546962738037,3.2852444648742676,-3.3434109687805176
1725631400169337900,0.630337890625,2.60070538520813,3.571364402770996,-3.2828025817871094
1725631400179291000,0.640290771484375,3.754270553588867,4.042802333831787,-3.533961534500122
1725631400189242600,0.65024267578125,4.067784786224365,4.398661136627197,-3.155688762664795
1725631400199195600,0.660195556640625,3.944627046585083,4.760106086730957,-2.5841615200042725
1725631400209148700,0.670148681640625,3.4200034141540527,4.5758490562438965,-1.9245872497558594
1725631400219101700,0.680101806640625,3.329770803451538,4.198632717132568,-1.5094345808029175
1725631400229054700,0.6900546875,3.5393941402435303,3.6815624237060547,-1.1028186082839966
1725631400239007700,0.7000078125,3.771517753601074,3.205928087234497,-0.7361689805984497
1725631400248959700,0.709959716796875,3.762406826019287,2.849709987640381,-0.25660020112991333
1725631400258912800,0.719912841796875,3.654452085494995,2.5746285915374756,0.22666391730308533
1725631400268865800,0.72986572265625,3.536893844604492,2.5333356857299805,0.6182822585105896
1725631400278818600,0.739818603515625,3.418531656265259,2.5007481575012207,0.8304579257965088
1725631400288771600,0.749771484375,3.3133764266967773,2.4280521869659424,0.8625391721725464
1725631400298723600,0.7597236328125,3.176990032196045,2.242342233657837,0.7832384705543518
1725631400308676600,0.769676513671875,3.016353130340576,3.2398738861083984,0.5164191126823425
1725631400318629600,0.779629638671875,3.162132501602173,4.031002044677734,2.002425193786621
1725631400328582700,0.789582763671875,2.7094268798828125,2.8480000495910645,2.485168933868408
1725631400338535700,0.79953564453125,2.4632534980773926,2.6719894409179688,2.026921272277832
1725631400348488700,0.80948876953125,1.627376675605774,2.2383291721343994,-0.0654643177986145
1725631400358440700,0.819440673828125,1.5871318578720093,3.709979295730591,0.0874493345618248
1725631400368393700,0.829393798828125,1.231571912765503,2.7406911849975586,0.6082525849342346
1725631400378346800,0.8393466796875,1.0627000331878662,1.9076672792434692,1.1498979330062866
1725631400388299800,0.8492998046875,1.0557162761688232,1.25997793674469,1.2126617431640625
1725631400398252800,0.859252685546875,0.5551455020904541,0.49532610177993774,0.7604734897613525
1725631400408205800,0.869205810546875,-0.06981789320707321,0.22901169955730438,0.12957891821861267
1725631400418157800,0.87915771484375,-0.566986620426178,0.1840740442276001,0.04673996567726135
1725631400428110600,0.889110595703125,-0.587637722492218,-0.11232505738735199,0.17177380621433258
1725631400438063600,0.899063720703125,-0.6260240077972412,-0.6182140707969666,0.01856427639722824
1725631400448016600,0.9090166015625,-0.7611114382743835,-1.1036006212234497,-0.2538427412509918
1725631400457969700,0.9189697265625,-0.7820561528205872,-1.055396318435669,-0.3722327947616577
1725631400467922700,0.928922607421875,-0.5912106037139893,-0.5730512738227844,-0.8294019103050232
1725631400477874700,0.938874755859375,-0.36256009340286255,-0.25969573855400085,-1.9517667293548584
1725631400487827700,0.94882763671875,-0.8258099555969238,-1.2336879968643188,-3.262454032897949
1725631400497780700,0.95878076171875,-2.320610523223877,-1.872958779335022,-3.0396060943603516
1725631400507733800,0.968733642578125,-2.455918073654175,-1.541795015335083,-3.137150526046753
1725631400517686500,0.9786865234375,-2.1076605319976807,-0.6271379590034485,-3.2744140625
1725631400527639600,0.9886396484375,-1.1564799547195435,-0.20445191860198975,-2.26310133934021
1725631400537592000,0.998592041015625,-0.662693977355957,-0.5675353407859802,-1.5191515684127808
1725631400547545000,1.008545166015625,-0.534957230091095,-0.9186447858810425,-1.6019260883331299
1725631400557498000,1.018498046875,-0.3720860481262207,-0.6065228581428528,-1.788330316543579
1725631400567451100,1.028451171875,-0.2759113311767578,-0.5451948642730713,-1.7839124202728271
1725631400577404200,1.038404052734375,-0.22096101939678192,-0.7078759074211121,-1.2794064283370972
1725631400587356400,1.0483564453125,-0.1138119250535965,-0.8343027234077454,-0.44999733567237854
1725631400597309200,1.05830908203125,0.0027245422825217247,-0.8496516346931458,0.19196830689907074
1725631400607262200,1.06826220703125,0.12429367750883102,-0.7298434972763062,0.5265348553657532
1725631400617215200,1.07821533203125,0.224909245967865,-0.46330878138542175,0.6654950976371765
1725631400627168300,1.088168212890625,0.2748773694038391,-0.26655182242393494,0.6552805304527283
1725631400637121300,1.098121337890625,0.31357815861701965,-0.1966364085674286,0.591424286365509
1725631400647073300,1.1080732421875,0.3222024142742157,-0.3332153558731079,0.5264914035797119
1725631400657026300,1.1180263671875,0.2943316400051117,-0.42373645305633545,0.40885159373283386
1725631400666979300,1.127979248046875,0.2691096067428589,-0.438091516494751,0.11607059091329575
1725631400676932000,1.13793212890625,0.280159056186676,-0.31356582045555115,-0.18601258099079132
1725631400686885000,1.147885009765625,0.3224279582500458,-0.013314918614923954,-0.4706672132015228
1725631400696838100,1.157838134765625,0.29068413376808167,-0.2196614295244217,-0.7036058902740479
1725631400706790100,1.1677900390625,0.4301961660385132,-0.24900826811790466,-1.067972183227539
1725631400716743200,1.1777431640625,0.6026089787483215,-0.06334439665079117,-1.5816820859909058
1725631400726696200,1.1876962890625,0.6057417988777161,0.7003421187400818,-2.0917491912841797
1725631400736649200,1.197649169921875,0.66440349817276,1.3295893669128418,-2.242814302444458
1725631400746602200,1.207602294921875,0.6093581318855286,0.733603835105896,-1.6551331281661987
1725631400756555300,1.21755517578125,-0.20678918063640594,-0.09240087866783142,-0.7102127075195312
1725631400766507300,1.22750732421875,-0.9995642900466919,-0.7851689457893372,0.05535450950264931
1725631400776460300,1.237460205078125,-1.3485137224197388,-0.8818739056587219,0.3525126874446869
1725631400786413300,1.247413330078125,-1.5876307487487793,-0.6707412004470825,0.363304078578949
1725631400796366300,1.257366455078125,-1.6150799989700317,-0.47611844539642334,0.4517955780029297
1725631400806319400,1.2673193359375,-1.34711754322052,-0.6221283078193665,0.5250884294509888
1725631400816272400,1.2772724609375,-0.7996739149093628,-0.8660551905632019,0.6666889786720276
1725631400826224400,1.287224365234375,0.25822684168815613,-0.8347576260566711,0.5781028866767883
1725631400836177200,1.29717724609375,0.4357006847858429,-0.7660831809043884,0.3258880078792572
1725631400846130200,1.307130126953125,-0.0058722542598843575,-0.6361802816390991,0.3264429569244385
1725631400856083200,1.317083251953125,-0.2890789210796356,-0.5112271904945374,0.38522425293922424
1725631400866036200,1.3270361328125,-0.4654009938240051,-0.4119476079940796,0.442291259765625
1725631400875989200,1.3369892578125,-0.6551408767700195,-0.2716272473335266,0.5017389059066772
1725631400885941200,1.346941162109375,-0.9294973611831665,-0.24603411555290222,0.5111361145973206
1725631400895894300,1.356894287109375,-1.1318928003311157,-0.4290260374546051,0.5058732032775879
1725631400905847300,1.366847412109375,-1.228666067123413,-0.6035407781600952,0.4703391492366791
1725631400915800000,1.376800048828125,-1.229884147644043,-0.7921019196510315,0.3597135841846466
1725631400925753000,1.386753173828125,-1.1327860355377197,-0.7733879089355469,0.08240154385566711
1725631400935706000,1.3967060546875,-1.0727543830871582,-0.42433249950408936,-0.24764719605445862
1725631400945658000,1.406658203125,-1.1704150438308716,-0.17763954401016235,-0.3949224054813385
1725631400955611100,1.416611083984375,-1.016268014907837,-0.015915360301733017,-0.9055297374725342
1725631400965564200,1.426564208984375,-0.9200307726860046,-0.12034855782985687,-1.1849267482757568
1725631400975517200,1.43651708984375,-0.4217466413974762,0.5587191581726074,-1.456416368484497
1725631400985470200,1.44647021484375,-0.3387733995914459,0.2028186321258545,-1.6610400676727295
1725631400995423200,1.45642333984375,0.017080316320061684,0.11504670232534409,-1.681925654411316
1725631401005375200,1.466375244140625,0.4279315769672394,0.4121556878089905,-1.5508685111999512
1725631401015328300,1.476328369140625,0.6824371218681335,0.15712979435920715,-1.2544879913330078
1725631401025281300,1.48628125,0.8564452528953552,-0.10609006881713867,-1.0950794219970703
1725631401035234300,1.496234375,0.9029610753059387,0.11159299314022064,-1.075218677520752
1725631401045187300,1.506187255859375,0.8216736912727356,0.42644986510276794,-1.0076321363449097
1725631401055140400,1.516140380859375,0.6352134943008423,0.40094637870788574,-0.7716329097747803
1725631401065092400,1.52609228515625,0.42538848519325256,0.3127337098121643,-0.4523193836212158
1725631401075045000,1.536045166015625,0.10343042761087418,0.2924438714981079,-0.2832092046737671
1725631401084998100,1.545998046875,-0.06341961026191711,0.008234978653490543,-0.2997588813304901
1725631401094951200,1.555951171875,-0.3060125410556793,0.4056744873523712,-0.241184264421463
1725631401104904200,1.565904296875,-0.3506718873977661,0.36546608805656433,-0.1735849827528
1725631401114857200,1.575857177734375,-0.46019330620765686,0.4729453921318054,-0.029297834262251854
1725631401124810200,1.585810302734375,-0.5656944513320923,0.07639506459236145,0.1921789050102234
1725631401134762200,1.59576220703125,-0.6841241717338562,0.34535542130470276,0.033002566546201706
1725631401144715300,1.60571533203125,-0.8935280442237854,0.0961063876748085,-0.30830708146095276
1725631401154668300,1.615668212890625,-1.0439798831939697,-0.10353828221559525,-0.4679151177406311
1725631401164621000,1.62562109375,-1.1622862815856934,-0.11837363243103027,-0.535836935043335
1725631401174574000,1.635573974609375,-1.228644609451294,-0.05590146407485008,-0.48089084029197693
1725631401184527000,1.645527099609375,-1.285551905632019,0.052906978875398636,-0.21881821751594543
1725631401194479000,1.65547900390625,-1.3658863306045532,-0.1028812825679779,0.11084889620542526
1725631401204432100,1.66543212890625,-1.338616967201233,-0.3056769371032715,0.3516591191291809
1725631401214385200,1.67538525390625,-1.3702175617218018,-0.34344935417175293,0.2857551872730255
1725631401224338200,1.685338134765625,-1.379502534866333,0.11978381127119064,-0.12802495062351227
1725631401234291200,1.695291259765625,-0.8625092506408691,0.0648965910077095,0.0046771736815571785
1725631401244244200,1.705244140625,-0.4861818253993988,0.026732560247182846,-0.00238712877035141
1725631401254196200,1.7151962890625,-0.14642558991909027,0.16214151680469513,0.07198217511177063
1725631401264149200,1.725149169921875,0.1145845353603363,0.343614786863327,0.01942523382604122
1725631401274102300,1.735102294921875,0.3376508951187134,0.20982928574085236,0.06020195782184601
1725631401284055300,1.74505517578125,0.47706136107444763,-0.17359234392642975,-0.06610618531703949
1725631401294008300,1.75500830078125,0.6616658568382263,-0.26129236817359924,-0.37216728925704956
1725631401303961300,1.76496142578125,0.6644200086593628,-0.44574809074401855,-0.7173774242401123
1725631401313914400,1.774914306640625,0.48515546321868896,-0.3809509873390198,-0.8033932447433472
1725631401323866000,1.7848662109375,0.297802209854126,-0.2884224057197571,-0.6804854273796082
1725631401333819100,1.794819091796875,0.30416345596313477,-0.2788611054420471,-0.5819652676582336
1725631401343772200,1.804772216796875,0.3325984477996826,-0.17804129421710968,-0.5848116278648376
1725631401353725200,1.81472509765625,0.3538755178451538,-0.1627502292394638,-0.5467596054077148
1725631401363678200,1.82467822265625,0.444821834564209,-0.09129840135574341,-0.6017491221427917
1725631401373631200,1.83463134765625,0.5812830328941345,0.13361060619354248,-0.6795418858528137
1725631401383583200,1.844583251953125,0.8218047022819519,-0.024203719571232796,-0.705888569355011
1725631401393536300,1.854536376953125,0.9104810357093811,0.008411213755607605,-0.5468000769615173
1725631401403489000,1.864489013671875,1.0735419988632202,0.18223579227924347,-0.42557913064956665
1725631401413442000,1.874442138671875,1.059826135635376,0.2868892550468445,-0.33710330724716187
1725631401423395000,1.88439501953125,1.1403131484985352,0.23067471385002136,-0.13287749886512756
1725631401433348000,1.89434814453125,1.4042651653289795,0.33719953894615173,-0.00957872811704874
1725631401443301000,1.904301025390625,1.7680540084838867,0.6713681817054749,0.1210155189037323
1725631401453253400,1.91425341796875,2.307342290878296,0.5526601672172546,0.0889529213309288
1725631401463206400,1.924206298828125,2.653416872024536,0.6899847388267517,0.20239320397377014
1725631401473159400,1.934159423828125,2.8436412811279297,0.3863494396209717,0.12980768084526062
1725631401483112200,1.9441123046875,2.758610725402832,0.3428148329257965,0.04215558245778084
1725631401493065200,1.954065185546875,2.671844005584717,0.24811628460884094,0.12655994296073914
1725631401503018200,1.964018310546875,2.6114320755004883,-0.04443695768713951,0.15073370933532715
1725631401512970200,1.97397021484375,2.3644044399261475,-0.25592178106307983,0.10765016078948975
1725631401522923300,1.98392333984375,1.9052183628082275,-0.5345212817192078,-0.054701175540685654
1725631401532876000,1.9938759765625,1.3554610013961792,-0.56776362657547,-0.16720667481422424
1725631401542829000,2.0038291015625,0.7341302633285522,-0.7276877164840698,-0.11234211176633835
1725631401552782000,2.013781982421875,0.1879422813653946,-0.4610666334629059,-0.07089906930923462
1725631401562735000,2.023735107421875,-0.13479195535182953,-0.2967188060283661,-0.0937868133187294
1725631401572688100,2.033688232421875,-0.2611736059188843,-0.3292788863182068,-0.15717589855194092
1725631401582640000,2.04364013671875,-0.35160279273986816,-0.3375541865825653,-0.1792774796485901
1725631401592593200,2.05359326171875,-0.41866573691368103,-0.4177640676498413,-0.24997057020664215
1725631401602546000,2.0635458984375,-0.48407894372940063,-0.49566325545310974,-0.22016818821430206
1725631401612499000,2.0734990234375,-0.5621382594108582,-0.42968904972076416,-0.07049401849508286
1725631401622452000,2.083451904296875,-0.6761003732681274,-0.29990971088409424,0.16698673367500305
1725631401632405000,2.093405029296875,-0.6803745031356812,-0.17226308584213257,0.3445862829685211
1725631401642357000,2.10335693359375,-0.6301463842391968,-0.04866860434412956,0.3399465084075928
1725631401652310000,2.11331005859375,-0.6641674637794495,0.05227851867675781,0.4640604555606842
1725631401662263000,2.123262939453125,-0.6860871315002441,0.14378388226032257,0.5063480138778687
1725631401672216000,2.133216064453125,-0.6168153882026672,0.05013595521450043,0.4402896463871002
1725631401682169000,2.143169189453125,-0.5680587291717529,-0.1720156967639923,0.18577584624290466
1725631401692121900,2.153121826171875,-0.548028290271759,-0.1684638410806656,0.14166991412639618
1725631401702075000,2.163074951171875,-0.4940594732761383,-0.12998157739639282,0.11607159674167633
1725631401712027100,2.173027099609375,-0.48126220703125,-0.132416233420372,0.07750662416219711
1725631401721980200,2.182980224609375,-0.48919206857681274,-0.10804422944784164,0.09969796240329742
1725631401731933200,2.19293310546875,-0.4996846616268158,-0.07179860025644302,0.0855184942483902
1725631401741886200,2.20288623046875,-0.4876365661621094,-0.023327337577939034,0.08990206569433212
1725631401751839200,2.212839111328125,-0.4704863429069519,0.019324252381920815,0.10857242345809937
1725631401761792300,2.222792236328125,-0.4698229134082794,0.051032304763793945,0.1452856808900833
1725631401771744000,2.232743896484375,-0.4734344184398651,0.08620654046535492,0.1709260642528534
1725631401781697000,2.242697021484375,-0.49016931653022766,0.11326738446950912,0.17059557139873505
1725631401791650000,2.252650146484375,-0.47542792558670044,0.13239766657352448,0.15278354287147522
1725631401801603000,2.26260302734375,-0.4486927092075348,0.1631941944360733,0.1615770310163498
1725631401811556000,2.27255615234375,-0.45542120933532715,0.1902628391981125,0.1829020380973816
1725631401821509000,2.282509033203125,-0.4550288915634155,0.21808454394340515,0.1580915004014969
1725631401831462100,2.292462158203125,-0.44552886486053467,0.18331511318683624,0.12812136113643646
1725631401841414000,2.302413818359375,-0.41188883781433105,0.15508846938610077,0.11154693365097046
1725631401851367000,2.312366943359375,-0.38218793272972107,0.1610904335975647,0.12466752529144287
1725631401861320000,2.32231982421875,-0.3615012764930725,0.24965451657772064,0.19547855854034424
1725631401871273000,2.33227294921875,-0.3609289526939392,0.2949141561985016,0.21713192760944366
1725631401881226000,2.34222607421875,-0.33209502696990967,0.2673291265964508,0.24662081897258759
1725631401891179000,2.352178955078125,-0.28584471344947815,0.23606707155704498,0.2489854395389557
1725631401901131300,2.36213134765625,-0.22120915353298187,0.2686499059200287,0.30913853645324707
1725631401911084300,2.372084228515625,-0.17888246476650238,0.3274064362049103,0.3699225187301636
1725631401921037300,2.382037353515625,-0.1701146513223648,0.37392252683639526,0.3878069519996643
1725631401930990000,2.391989990234375,-0.1708827167749405,0.37377339601516724,0.35999876260757446
1725631401940943000,2.401943115234375,-0.18609775602817535,0.38328900933265686,0.30554354190826416
1725631401950896000,2.411896240234375,-0.1894560009241104,0.35652637481689453,0.29395824670791626
1725631401960849200,2.42184912109375,-0.17490412294864655,0.34097206592559814,0.3163061738014221
1725631401970801200,2.43180126953125,-0.18802551925182343,0.2694685757160187,0.2740234434604645
1725631401980754200,2.441754150390625,-0.1833244264125824,0.22425037622451782,0.31841593980789185
1725631401990707200,2.451707275390625,-0.13537687063217163,0.34006404876708984,0.4226698875427246
1725631402000660200,2.46166015625,-0.14993058145046234,0.2043953686952591,0.4037076532840729
1725631402010613200,2.47161328125,-0.13388264179229736,0.15401075780391693,0.351657509803772
1725631402020566000,2.48156591796875,-0.10449228435754776,0.12019800394773483,0.3003000319004059
1725631402030518000,2.49151806640625,-0.09049497544765472,0.09239885956048965,0.24067319929599762
1725631402040471000,2.501470947265625,-0.08302190899848938,-0.0475461371243,0.16943709552288055
1725631402050424000,2.511424072265625,-0.07380258291959763,-0.04642361402511597,0.16115838289260864
1725631402060377000,2.521377197265625,-0.09821797162294388,-0.026803430169820786,0.15625418722629547
1725631402070330000,2.531330078125,-0.12325195223093033,-0.08189491182565689,0.16457709670066833
1725631402080283100,2.541283203125,-0.10323212295770645,-0.18441584706306458,0.060861606150865555
1725631402090236200,2.551236083984375,-0.0793403759598732,-0.20194397866725922,0.01986091025173664
1725631402100188000,2.56118798828125,-0.04921123757958412,-0.14994500577449799,0.06845215708017349
1725631402110141000,2.571140869140625,-0.03212226927280426,-0.1272367537021637,0.11515601724386215
1725631402120094000,2.581093994140625,0.006033245008438826,-0.11241007596254349,0.16596940159797668
1725631402130047000,2.591046875,-0.016466736793518066,-0.22783653438091278,0.06176736205816269
1725631402140000000,2.601,-0.007276041433215141,-0.23453710973262787,0.014876552857458591
1725631402149953000,2.610953125,0.020612047985196114,-0.09292139858007431,0.08270140737295151
1725631402159905300,2.6209052734375,0.02229337766766548,-0.07647079229354858,0.19537468254566193
1725631402169858000,2.630858154296875,0.009422054514288902,-0.049523063004016876,0.29044103622436523
1725631402179811000,2.64081103515625,0.009589919820427895,-0.09419506043195724,0.3449990749359131
1725631402189764000,2.65076416015625,0.048953037708997726,-0.0800643265247345,0.384416788816452
1725631402199717000,2.660717041015625,0.09468626976013184,-0.043570760637521744,0.4182024598121643
1725631402209670100,2.670670166015625,0.148767352104187,-0.05174080654978752,0.40854981541633606
1725631402219622100,2.6806220703125,0.22156621515750885,-0.01646164059638977,0.43543657660484314
1725631402229575200,2.6905751953125,0.27711549401283264,-0.004900592379271984,0.42796453833580017
1725631402239528200,2.700528076171875,0.3261435627937317,0.042289022356271744,0.4427543878555298
1725631402249481200,2.710481201171875,0.35415494441986084,0.07765313237905502,0.424986332654953
1725631402259434000,2.72043408203125,0.36522969603538513,0.047166600823402405,0.3847006857395172
1725631402269387000,2.730386962890625,0.3572482168674469,0.0033418871462345123,0.3374311625957489
1725631402279340000,2.740340087890625,0.36655381321907043,0.004779856652021408,0.2906855046749115
1725631402289292000,2.7502919921875,0.38716110587120056,-0.007898387499153614,0.24273793399333954
1725631402299245000,2.7602451171875,0.38041916489601135,-0.029527725651860237,0.21310733258724213
1725631402309198000,2.770197998046875,0.36780402064323425,-0.0657682865858078,0.15159177780151367
1725631402319151000,2.780151123046875,0.3692528009414673,-0.08696064352989197,0.10037041455507278
1725631402329104100,2.790104248046875,0.36263084411621094,-0.07480837404727936,0.03246619552373886
1725631402339057000,2.800056884765625,0.3416154384613037,-0.11451006680727005,-0.05137518420815468
1725631402349009200,2.810009033203125,0.3195279538631439,-0.14092889428138733,-0.15185758471488953
1725631402358962200,2.819962158203125,0.2887745797634125,-0.15210860967636108,-0.24872659146785736
1725631402368915200,2.829915283203125,0.24686628580093384,-0.12569165229797363,-0.31783589720726013
1725631402378868200,2.8398681640625,0.1867748349905014,-0.09842388331890106,-0.3928512632846832
1725631402388821200,2.8498212890625,0.11843333393335342,-0.09487123042345047,-0.46283888816833496
1725631402398774300,2.859774169921875,0.08313022553920746,-0.10013198107481003,-0.518947422504425
1725631402408726000,2.86972607421875,0.08370280265808105,-0.06828510016202927,-0.5366997718811035
1725631402418679000,2.879678955078125,0.084923654794693,-0.031011829152703285,-0.5243808031082153
1725631402428632000,2.889632080078125,0.1095389872789383,-0.01798923686146736,-0.5020507574081421
1725631402438585000,2.899585205078125,0.1688556969165802,0.036265354603528976,-0.44915634393692017
1725631402448538000,2.9095380859375,0.21422050893306732,0.08482516556978226,-0.4236142337322235
1725631402458491100,2.9194912109375,0.24883536994457245,0.10653126239776611,-0.41444045305252075
1725631402468443100,2.929443115234375,0.3021201491355896,0.16293488442897797,-0.36221399903297424
1725631402478396200,2.939396240234375,0.34134745597839355,0.1807279884815216,-0.35184499621391296
1725631402488349200,2.94934912109375,0.37922611832618713,0.2293597012758255,-0.3100951313972473
1725631402498302000,2.959302001953125,0.40991270542144775,0.26446589827537537,-0.2601049542427063
1725631402508255000,2.9692548828125,0.44020697474479675,0.25579091906547546,-0.20524407923221588
1725631402518208000,2.9792080078125,0.4949570596218109,0.2347877472639084,-0.14642898738384247
1725631402528161000,2.9891611328125,0.5422627925872803,0.23379945755004883,-0.07087564468383789
1725631402538112800,2.99911279296875,0.5945359468460083,0.23021018505096436,-0.06265871226787567
1725631402548065800,3.009065673828125,0.6329368948936462,0.21939483284950256,-0.03664921969175339
1725631402558018800,3.019018798828125,0.6834368109703064,0.18807952105998993,-0.08478585630655289
1725631402567971800,3.028971923828125,0.7464922070503235,0.1545543074607849,-0.10303836315870285
1725631402577924900,3.0389248046875,0.8012440800666809,0.06988196820020676,-0.23505602777004242
1725631402587878000,3.0488779296875,0.7888201475143433,0.029075419530272484,-0.2252369523048401
1725631402597830000,3.058829833984375,0.7739947438240051,-0.03039703331887722,-0.2963859736919403
1725631402607783000,3.068782958984375,0.7192023396492004,-0.02641427516937256,-0.29052117466926575
1725631402617736000,3.07873583984375,0.6891375780105591,0.014921515248715878,-0.4066682755947113
1725631402627689000,3.08868896484375,0.6171742081642151,0.04888240993022919,-0.3643586337566376
1725631402637642000,3.09864208984375,0.5326265692710876,-0.09896616637706757,-0.40021437406539917
1725631402647595000,3.108594970703125,0.5132027864456177,-0.13816604018211365,-0.4107631742954254
1725631402657547000,3.118547119140625,0.5079975128173828,-0.16210106015205383,-0.45974189043045044
1725631402667499800,3.128499755859375,0.5444913506507874,-0.14531835913658142,-0.5267265439033508
1725631402677452800,3.138452880859375,0.4883679151535034,-0.016150716692209244,-0.5154213905334473
1725631402687405800,3.14840576171875,0.5263743996620178,-0.20283591747283936,-0.5811026692390442
1725631402697358800,3.15835888671875,0.5288214683532715,-0.23352943360805511,-0.6016393899917603
1725631402707311900,3.168311767578125,0.5682282447814941,-0.23528020083904266,-0.6483482718467712
1725631402717264000,3.178263916015625,0.5801680684089661,-0.24119089543819427,-0.6634947657585144
1725631402727217000,3.188216796875,0.583324134349823,-0.26001784205436707,-0.6435279846191406
1725631402737170000,3.198169921875,0.5397374033927917,-0.2868350148200989,-0.563627302646637
1725631402747122700,3.208122802734375,0.5079352855682373,-0.29826104640960693,-0.4735623598098755
1725631402757075700,3.21807568359375,0.5454174280166626,-0.04888809099793434,-0.4580742120742798
1725631402767028700,3.22802880859375,0.5971706509590149,-0.20823433995246887,-0.4286004900932312
1725631402776981800,3.237981689453125,0.5847944021224976,-0.08664952218532562,-0.358384370803833
1725631402786934000,3.24793408203125,0.5184475779533386,-0.31386828422546387,-0.24318481981754303
1725631402796887000,3.257886962890625,0.4714442491531372,-0.33728310465812683,-0.2051924467086792
1725631402806840000,3.267840087890625,0.4760395288467407,-0.04971654713153839,-0.24366633594036102
1725631402816793000,3.27779296875,0.5133025646209717,-0.2641177177429199,-0.23810352385044098
1725631402826746000,3.28774609375,0.49361541867256165,-0.11712800711393356,-0.22771479189395905
1725631402836699000,3.297698974609375,0.5390334129333496,-0.2854764461517334,-0.19559119641780853
1725631402846651000,3.30765087890625,0.4736895263195038,-0.3621821403503418,-0.08723142743110657
1725631402856604000,3.31760400390625,0.3516392707824707,-0.027236388996243477,-0.03928760439157486
1725631402866557000,3.327556884765625,0.322747141122818,-0.20736061036586761,-0.0012952154502272606
1725631402876510000,3.337510009765625,0.2264016717672348,-0.23315060138702393,0.09813789278268814
1725631402886463000,3.347462890625,0.11972901225090027,0.10982646048069,0.09011325240135193
1725631402896416000,3.357416015625,0.09001089632511139,-0.21464750170707703,0.06982263922691345
1725631402906367700,3.36736767578125,-0.06135998293757439,0.0928216427564621,0.15396174788475037
1725631402916320800,3.37732080078125,0.024639111012220383,-0.13896052539348602,0.21147936582565308
1725631402926273800,3.387273681640625,-0.06397251784801483,0.015688171610236168,0.3111473619937897
1725631402936226800,3.397226806640625,-0.04356204718351364,-0.04523802921175957,0.3430064916610718
1725631402946179800,3.407179931640625,0.01854739710688591,-0.11634016782045364,0.4006221294403076
1725631402956132900,3.4171328125,0.04174766317009926,-0.060587357729673386,0.3779069483280182
1725631402966084900,3.4270849609375,0.03689458593726158,-0.10134810209274292,0.33281511068344116
1725631402976038000,3.437037841796875,0.01969175599515438,-0.15682314336299896,0.318103551864624
1725631402985990700,3.44699072265625,-0.10083413124084473,0.05268613621592522,0.18706190586090088
1725631402995943700,3.456943603515625,-0.00797630287706852,-0.17980842292308807,0.061832353472709656
1725631403005896700,3.466896728515625,-0.12251060456037521,-0.0490645207464695,0.09017344564199448
1725631403015849700,3.476849609375,-0.055017679929733276,-0.34145060181617737,0.14967405796051025
1725631403025802000,3.486802001953125,-0.0930689200758934,-0.4233047068119049,0.1514969915151596
1725631403035755000,3.496755126953125,-0.11420481652021408,-0.49390003085136414,0.03869348391890526
1725631403045708000,3.5067080078125,-0.12501457333564758,-0.5074781775474548,-0.11477303504943848
1725631403055661000,3.5166611328125,-0.1766672283411026,-0.4657289981842041,-0.15590237081050873
1725631403065614000,3.526614013671875,-0.21220551431179047,-0.385942280292511,-0.09261980652809143
1725631403075566800,3.53656689453125,-0.2736731767654419,-0.35859715938568115,-0.036424439400434494
1725631403085518800,3.546518798828125,-0.35805782675743103,-0.35207319259643555,0.012018728069961071
1725631403095471900,3.556471923828125,-0.4173598885536194,-0.28400006890296936,0.035792235285043716
1725631403105425000,3.5664248046875,-0.435846745967865,-0.06035259738564491,0.061489079147577286
1725631403115378000,3.5763779296875,-0.44778409600257874,-0.24670177698135376,-0.022780535742640495
1725631403125331000,3.5863310546875,-0.4455440938472748,-0.22529608011245728,0.04802679270505905
1725631403135284000,3.596283935546875,-0.42310693860054016,-0.3657454550266266,-0.2595270276069641
1725631403145237000,3.606237060546875,-0.393940269947052,-0.24127544462680817,-0.3751862645149231
1725631403155188700,3.616188720703125,-0.39617255330085754,-0.15100374817848206,-0.32025694847106934
1725631403165141800,3.626141845703125,-0.38732632994651794,-0.1395992934703827,-0.2475135177373886
1725631403175094800,3.6360947265625,-0.3349749445915222,-0.13583263754844666,-0.17927053570747375
1725631403185047800,3.6460478515625,-0.29566723108291626,-0.1503809541463852,-0.150018110871315
1725631403195000800,3.656000732421875,-0.2772549092769623,-0.14577622711658478,-0.17706409096717834
1725631403204953900,3.665953857421875,-0.2637478709220886,-0.17617860436439514,-0.15107056498527527
1725631403214905900,3.67590576171875,-0.2713629901409149,-0.12949632108211517,-0.06043976545333862
1725631403224859000,3.68585888671875,-0.287830114364624,-0.08968498557806015,0.058333490043878555
1725631403234812000,3.69581201171875,-0.35375192761421204,0.034015119075775146,0.2432495653629303
1725631403244765000,3.705764892578125,-0.4107014834880829,0.16622935235500336,0.36645910143852234
1725631403254718000,3.715718017578125,-0.4028652012348175,0.1633944809436798,0.38191208243370056
1725631403264671000,3.7256708984375,-0.35270988941192627,0.10927797853946686,0.29277315735816956
1725631403274623000,3.735623046875,-0.2977689802646637,0.17058934271335602,0.16687782108783722
1725631403284576000,3.745575927734375,-0.21465201675891876,0.16702976822853088,0.09569764137268066
1725631403294529000,3.755529052734375,-0.1451619267463684,0.15430504083633423,0.0535067655146122
1725631403304482000,3.76548193359375,-0.07152817398309708,0.144384503364563,0.06280919164419174
1725631403314434800,3.775434814453125,-0.013849638402462006,0.14086386561393738,0.06912248581647873
1725631403324387800,3.785387939453125,0.02049022726714611,0.11849357932806015,0.04675140231847763
1725631403334339800,3.79533984375,0.015734288841485977,0.08676353842020035,0.02626609057188034
1725631403344292900,3.80529296875,-0.024225112050771713,0.10885286331176758,0.030030202120542526
1725631403354246000,3.815245849609375,-0.0553290918469429,0.1389703005552292,0.06402388960123062
1725631403364199000,3.825198974609375,-0.08530483394861221,0.14247341454029083,0.06462442874908447
1725631403374152000,3.83515185546875,-0.10624129325151443,0.0766352042555809,0.02926321141421795
1725631403384105000,3.84510498046875,-0.15242528915405273,0.13341858983039856,0.04526641219854355
1725631403394056700,3.855056640625,-0.17089609801769257,0.053161974996328354,0.08505994081497192
1725631403404009700,3.865009765625,-0.1916213482618332,0.11326419562101364,0.13540701568126678
1725631403413962800,3.874962646484375,-0.18774592876434326,0.05958892032504082,0.1835246980190277
1725631403423915800,3.884915771484375,-0.1986747533082962,0.26928913593292236,0.2297193557024002
1725631403433868800,3.894868896484375,-0.1791183352470398,0.19363872706890106,0.2502986788749695
1725631403443821800,3.90482177734375,-0.24199342727661133,0.37036263942718506,0.22108353674411774
1725631403453774000,3.914774169921875,-0.24621079862117767,0.17955653369426727,0.09863298386335373
1725631403463727000,3.92472705078125,-0.3068530857563019,0.23387596011161804,-0.0676550641655922
1725631403473680000,3.934679931640625,-0.3581675589084625,0.13521523773670197,-0.2194501757621765
1725631403483633000,3.9446328125,-0.38257676362991333,0.08937504142522812,-0.30752652883529663
1725631403493586000,3.9545859375,-0.4505138397216797,0.1658013015985489,-0.31275641918182373
1725631403503539000,3.9645390625,-0.45463159680366516,0.051523737609386444,-0.2789371907711029
1725631403513491000,3.974490966796875,-0.4830321967601776,0.15437108278274536,-0.25570058822631836
1725631403523444000,3.98444384765625,-0.4603913426399231,0.15735408663749695,-0.23169375956058502
1725631403533397000,3.99439697265625,-0.43680837750434875,0.0967145785689354,-0.16985225677490234
1725631403543350000,4.00435009765625,-0.37548935413360596,0.2047281414270401,-0.12769974768161774
1725631403553303000,4.014302978515625,-0.3224402964115143,0.04345282167196274,-0.12948274612426758
1725631403563256000,4.024256103515625,-0.341103732585907,0.1707785576581955,-0.1519361287355423
1725631403573208000,4.0342080078125,-0.3376965820789337,0.18770147860050201,-0.17330001294612885
1725631403583161000,4.0441611328125,-0.3719288408756256,0.31543412804603577,-0.18018454313278198
1725631403593113900,4.05411376953125,-0.38881105184555054,0.38530364632606506,-0.1950809359550476
1725631403603067000,4.06406689453125,-0.40941646695137024,0.3963746726512909,-0.18719078600406647
1725631403613020000,4.07402001953125,-0.4257306158542633,0.451459139585495,-0.1213688775897026
1725631403622973000,4.083972900390625,-0.4233654737472534,0.5500605702400208,-0.02890019305050373
1725631403632925000,4.093925048828125,-0.4076443612575531,0.5657165050506592,0.012940969318151474
1725631403642878000,4.1038779296875,-0.39466676115989685,0.619907796382904,0.05601919814944267
1725631403652831000,4.1138310546875,-0.3998810648918152,0.611734926700592,0.06020836532115936
1725631403662784000,4.123783935546875,-0.43907612562179565,0.5689533352851868,0.021573355421423912
1725631403672737000,4.133737060546875,-0.46481627225875854,0.48836129903793335,-0.054567769169807434
1725631403682689800,4.143689697265625,-0.4759887456893921,0.45943590998649597,-0.08630012720823288
1725631403692642000,4.15364208984375,-0.46702051162719727,0.44536158442497253,-0.047997746616601944
1725631403702595000,4.163594970703125,-0.4408882260322571,0.4079422950744629,0.00018895918037742376
1725631403712548000,4.173548095703125,-0.42141589522361755,0.4151667356491089,0.049105625599622726
1725631403722501000,4.183501220703125,-0.4300716817378998,0.32599157094955444,0.05690149962902069
1725631403732454100,4.1934541015625,-0.46646013855934143,0.2541848421096802,0.01788433827459812
1725631403742407200,4.2034072265625,-0.4522833526134491,0.2709220051765442,0.0202883742749691
1725631403752360200,4.213360107421875,-0.4606481194496155,0.35941264033317566,0.1145930364727974
1725631403762312000,4.22331201171875,-0.4642774760723114,0.4034101963043213,0.21610236167907715
1725631403772265000,4.233264892578125,-0.4688720107078552,0.38177114725112915,0.26656126976013184
1725631403782218000,4.243218017578125,-0.47381243109703064,0.3424394726753235,0.2834526300430298
1725631403792171000,4.2531708984375,-0.4959990382194519,0.32286351919174194,0.2827407717704773
1725631403802124000,4.2631240234375,-0.5112203359603882,0.30327489972114563,0.2803979814052582
1725631403812076000,4.273075927734375,-0.5104750394821167,0.3409583568572998,0.34720900654792786
1725631403822029000,4.283029052734375,-0.5523779988288879,0.40639010071754456,0.39906659722328186
1725631403831981800,4.29298193359375,-0.5593658685684204,0.47055017948150635,0.4570113718509674
1725631403841934800,4.302934814453125,-0.565743088722229,0.48816192150115967,0.45748433470726013
1725631403851887900,4.312887939453125,-0.5832313895225525,0.5079492330551147,0.5100487470626831
1725631403861841000,4.3228408203125,-0.5977690815925598,0.5560719966888428,0.604343831539154
1725631403871794000,4.3327939453125,-0.6025382280349731,0.5152190327644348,0.5987903475761414
1725631403881746200,4.34274609375,-0.5707467794418335,0.40967050194740295,0.5402641892433167
1725631403891699200,4.35269921875,-0.4950086772441864,0.3782472014427185,0.5194206833839417
1725631403901652200,4.36265234375,-0.4268333613872528,0.36241763830184937,0.49223965406417847
1725631403911605000,4.37260498046875,-0.3684973120689392,0.3247646391391754,0.519770085811615
1725631403921558000,4.38255810546875,-0.3062976002693176,0.31972062587738037,0.5138903856277466
1725631403931511000,4.392510986328125,-0.23790687322616577,0.2873915433883667,0.4959734082221985
1725631403941463000,4.402463134765625,-0.17501312494277954,0.3190658390522003,0.5187135934829712
1725631403951416000,4.412416015625,-0.14180690050125122,0.3044249713420868,0.46485278010368347
1725631403961369000,4.422369140625,-0.0746811106801033,0.2906505763530731,0.38134217262268066
1725631403971322000,4.432322021484375,-0.027875278145074844,0.3258223235607147,0.26948145031929016
1725631403981275100,4.442275146484375,-0.028480347245931625,0.35398125648498535,0.30158504843711853
1725631403991228200,4.452228271484375,-0.05029331147670746,0.32987308502197266,0.27235788106918335
1725631404001180000,4.462179931640625,-0.07372034341096878,0.24893002212047577,0.23374472558498383
1725631404011133000,4.4721328125,-0.03194408118724823,0.20342612266540527,0.2347514033317566
1725631404021086000,4.4820859375,-0.02959810197353363,0.13410110771656036,0.24838225543498993
1725631404031039000,4.4920390625,-0.032109618186950684,0.07289060950279236,0.2516997754573822
1725631404040992000,4.501991943359375,0.0026164022274315357,0.02067268081009388,0.2588226795196533
1725631404050944000,4.511944091796875,0.021277787163853645,-0.02890719659626484,0.25269845128059387
1725631404060897000,4.52189697265625,0.059977248311042786,-0.031781814992427826,0.2667897641658783
1725631404070849800,4.531849853515625,0.09112793952226639,-0.16589879989624023,0.2068747580051422
1725631404080802800,4.541802734375,0.15727287530899048,-0.19571980834007263,0.19035038352012634
1725631404090755800,4.551755859375,0.18445824086666107,-0.22513769567012787,0.18279127776622772
1725631404100708900,4.561708984375,0.1928357481956482,-0.27810582518577576,0.1443227082490921
1725631404110662000,4.571661865234375,0.22009842097759247,-0.3452678322792053,0.1182122752070427
1725631404120614100,4.5816142578125,0.2599864602088928,-0.37928783893585205,0.1178056076169014
1725631404130567200,4.591567138671875,0.28856149315834045,-0.378152996301651,0.1398741602897644
1725631404140520200,4.601520263671875,0.30140218138694763,-0.39966097474098206,0.11050614714622498
1725631404150473200,4.61147314453125,0.33684980869293213,-0.4784352779388428,0.058181148022413254
1725631404160426000,4.621426025390625,0.3846282660961151,-0.5065302848815918,0.012508733198046684
1725631404170379000,4.63137890625,0.42155224084854126,-0.5094009041786194,-0.038646575063467026
1725631404180331000,4.6413310546875,0.43789151310920715,-0.47918733954429626,-0.06201048195362091
1725631404190284000,4.651283935546875,0.43552786111831665,-0.4611417055130005,-0.11032208055257797
1725631404200237000,4.661237060546875,0.44525450468063354,-0.4298658072948456,-0.16831481456756592
1725631404210190000,4.671190185546875,0.45845550298690796,-0.3991072177886963,-0.23387758433818817
1725631404220143000,4.68114306640625,0.48484688997268677,-0.37480345368385315,-0.2949822247028351
1725631404230096100,4.69109619140625,0.5040215253829956,-0.3446754813194275,-0.3390767276287079
1725631404240047900,4.7010478515625,0.5091126561164856,-0.3131740093231201,-0.39211198687553406
1725631404250001000,4.7110009765625,0.5179502367973328,-0.2705744802951813,-0.4145437479019165
1725631404259954000,4.720953857421875,0.5181757807731628,-0.21929903328418732,-0.4324260950088501
1725631404269907000,4.730906982421875,0.521808922290802,-0.18090477585792542,-0.44744741916656494
1725631404279860000,4.74085986328125,0.5274729132652283,-0.1836097538471222,-0.4900156259536743
1725631404289813000,4.75081298828125,0.5681278705596924,-0.1806071698665619,-0.5278847217559814
1725631404299765000,4.760764892578125,0.6020517349243164,-0.17242993414402008,-0.5451345443725586
1725631404309718000,4.770718017578125,0.6218864917755127,-0.14420881867408752,-0.5286991000175476
1725631404319671000,4.780671142578125,0.6208619475364685,-0.10148904472589493,-0.486976683139801
1725631404329624000,4.7906240234375,0.598387598991394,-0.07583128660917282,-0.4218464195728302
1725631404339576800,4.800576904296875,0.5821540355682373,-0.0018236406613141298,-0.32008782029151917
1725631404349529900,4.81052978515625,0.5955157279968262,0.04325901344418526,-0.25215378403663635
1725631404359482000,4.820482177734375,0.6300691366195679,0.03312515467405319,-0.2351210117340088
1725631404369435100,4.83043505859375,0.6543022990226746,-0.013375570997595787,-0.28795385360717773
1725631404379388200,4.84038818359375,0.6891458034515381,-0.02392781525850296,-0.31546059250831604
1725631404389341200,4.850341064453125,0.7101474404335022,-0.04608803987503052,-0.31004849076271057
1725631404399294000,4.8602939453125,0.712042510509491,-0.10101280361413956,-0.2726241648197174
1725631404409247000,4.8702470703125,0.7238053679466248,-0.10764773935079575,-0.19767937064170837
1725631404419199000,4.880198974609375,0.7634859085083008,-0.028861582279205322,-0.165469229221344
1725631404429152000,4.890152099609375,0.8386102318763733,-0.014297221787273884,-0.2364824414253235
1725631404439105000,4.90010498046875,0.9240225553512573,-0.10152506828308105,-0.35913777351379395
1725631404449058000,4.91005810546875,0.9700613021850586,-0.1794615536928177,-0.4748941659927368
1725631404459011000,4.920010986328125,0.960167646408081,-0.10386291891336441,-0.5187879204750061
1725631404468964000,4.929964111328125,0.880497395992279,0.04574640840291977,-0.48948776721954346
1725631404478915800,4.939915771484375,0.7709445357322693,0.1409514844417572,-0.442524254322052
1725631404488868900,4.949868896484375,0.6677006483078003,0.18318907916545868,-0.4447437524795532
1725631404498822000,4.95982177734375,0.6116030216217041,0.20637589693069458,-0.5091770887374878
1725631404508775000,4.96977490234375,0.5811311602592468,0.17972470819950104,-0.5876266360282898
1725631404518728000,4.97972802734375,0.5723137259483337,0.1602889597415924,-0.6663147807121277
1725631404528681000,4.989680908203125,0.5649245977401733,0.20308136940002441,-0.691538393497467
1725631404538633500,4.999633544921875,0.4950328469276428,0.24212677776813507,-0.6916118860244751
1725631404548586500,5.00958642578125,0.4156551659107208,0.2882364094257355,-0.6235052347183228
1725631404558539300,5.019539306640625,0.3481733202934265,0.34619078040122986,-0.5336456894874573
1725631404568492300,5.0294921875,0.30393606424331665,0.3930869996547699,-0.46434757113456726
1725631404578445300,5.0394453125,0.2475162297487259,0.38432493805885315,-0.4055132567882538
1725631404588398300,5.0493984375,0.17159518599510193,0.31639155745506287,-0.4007358253002167
1725631404598350300,5.059350341796875,0.11216249316930771,0.35264888405799866,-0.3214836120605469
1725631404608303400,5.069303466796875,0.05532454699277878,0.317499577999115,-0.2608141005039215
1725631404618256400,5.07925634765625,0.06910108774900436,0.34018516540527344,-0.1650492399930954
1725631404628209400,5.08920947265625,0.1058141365647316,0.17204701900482178,-0.16375203430652618
1725631404638162400,5.099162353515625,0.17357853055000305,0.06797574460506439,-0.19024543464183807
1725631404648115500,5.109115478515625,0.19776882231235504,0.07162880897521973,-0.2605656683444977
1725631404658067200,5.119067138671875,0.19325050711631775,0.08332860469818115,-0.18322241306304932
1725631404668020200,5.129020263671875,0.14215372502803802,0.10839740186929703,-0.10967867821455002
1725631404677973200,5.13897314453125,0.0587131567299366,0.1146843284368515,-0.11919309198856354
1725631404687926300,5.14892626953125,0.008814964443445206,0.21466578543186188,-0.06278758496046066
1725631404697879300,5.15887939453125,-0.0556471161544323,0.1547584980726242,-0.06450293213129044
1725631404707832300,5.168832275390625,-0.08863914012908936,0.13063913583755493,-0.0597662478685379
1725631404717784300,5.178784423828125,-0.14134788513183594,0.14799095690250397,-0.013169183395802975
1725631404727737300,5.1887373046875,-0.20477207005023956,0.11940958350896835,0.018597006797790527
1725631404737690400,5.1986904296875,-0.2598121762275696,0.09373830258846283,0.12152072787284851
1725631404747643100,5.20864306640625,-0.31458935141563416,0.05485440790653229,0.2706683874130249
1725631404757596200,5.21859619140625,-0.34425458312034607,-0.02310457080602646,0.3120861351490021
1725631404767549200,5.228549072265625,-0.39898452162742615,-0.06422443687915802,0.24441015720367432
1725631404777501400,5.23850146484375,-0.44268593192100525,-0.20219188928604126,0.1810367852449417
1725631404787454500,5.248454345703125,-0.4607281982898712,-0.19464769959449768,0.23418918251991272
1725631404797407500,5.258407470703125,-0.47801557183265686,-0.16913196444511414,0.2569315433502197
1725631404807360500,5.268360595703125,-0.47717517614364624,-0.18869172036647797,0.2608133554458618
1725631404817313500,5.2783134765625,-0.469539612531662,-0.22330854833126068,0.33750227093696594
1725631404827266600,5.2882666015625,-0.41867637634277344,-0.17700031399726868,0.46149373054504395
1725631404837219300,5.29821923828125,-0.31545838713645935,-0.1577501893043518,0.5156248807907104
1725631404847171300,5.30817138671875,-0.16450345516204834,-0.20802602171897888,0.507148027420044
1725631404857124400,5.318124267578125,0.03907682001590729,-0.2708286941051483,0.40987980365753174
1725631404867077400,5.328077392578125,0.23144902288913727,-0.27939748764038086,0.15933331847190857
1725631404877030400,5.338030517578125,0.34420302510261536,-0.20423349738121033,-0.10601046681404114
1725631404886983400,5.3479833984375,0.3689732849597931,-0.01870448887348175,-0.18122610449790955
1725631404896936400,5.3579365234375,0.3297744691371918,0.0679241418838501,-0.22196102142333984
1725631404906888200,5.36788818359375,0.24856993556022644,0.040808431804180145,-0.22890229523181915
1725631404916841200,5.37784130859375,0.14097262918949127,-0.012468371540307999,-0.12286214530467987
1725631404926794200,5.387794189453125,0.03516554459929466,-0.01821354404091835,0.007643667049705982
1725631404936747300,5.397747314453125,-0.03634698688983917,0.006474492140114307,0.09074440598487854
1725631404946700300,5.4077001953125,-0.08109810948371887,-0.013541420921683311,0.10019384324550629
1725631404956653300,5.4176533203125,-0.1111697256565094,-0.04257120564579964,0.07121732085943222
1725631404966605300,5.427605224609375,-0.1564374715089798,-0.03784988820552826,0.041414160281419754
1725631404976558300,5.437558349609375,-0.21434390544891357,-0.031876951456069946,-0.02240663394331932
1725631404986511000,5.447510986328125,-0.2794674336910248,-0.06192660331726074,-0.07228339463472366
1725631404996464000,5.457464111328125,-0.32670632004737854,-0.08467026799917221,-0.0790366381406784
1725631405006417200,5.467417236328125,-0.37292224168777466,-0.11145200580358505,-0.0947444885969162
1725631405016370200,5.4773701171875,-0.4099801182746887,-0.07178635150194168,-0.07488396018743515
1725631405026323200,5.4873232421875,-0.43850940465927124,-0.02353341318666935,-0.04805794730782509
1725631405036275500,5.497275390625,-0.43832698464393616,0.023662595078349113,0.005363198928534985
1725631405046228500,5.507228515625,-0.41351446509361267,-0.0035695009864866734,0.03074525110423565
1725631405056181500,5.517181396484375,-0.3276924788951874,-0.06460356712341309,-0.02069317363202572
1725631405066134500,5.527134521484375,-0.25028061866760254,-0.20014065504074097,-0.12161418050527573
1725631405076087300,5.53708740234375,-0.18983697891235352,-0.29835963249206543,-0.2129558026790619
1725631405086040300,5.547040283203125,-0.1403166949748993,-0.2998364567756653,-0.24211770296096802
1725631405095992300,5.556992431640625,-0.11250478029251099,-0.2679208517074585,-0.2132977694272995
1725631405105945300,5.5669453125,-0.1307513266801834,-0.27781763672828674,-0.17534133791923523
1725631405115898400,5.5768984375,-0.16534020006656647,-0.24394090473651886,-0.11454297602176666
1725631405125851400,5.586851318359375,-0.20907710492610931,-0.2095530927181244,-0.03122490830719471
1725631405135804400,5.596804443359375,-0.23635666072368622,-0.21308444440364838,0.08551795780658722
1725631405145757400,5.60675732421875,-0.2586245834827423,-0.17372730374336243,0.21366819739341736
1725631405155710200,5.616710205078125,-0.26631951332092285,-0.09742401540279388,0.3090890049934387
1725631405165662200,5.626662109375,-0.27055051922798157,-0.14936518669128418,0.3164209723472595
1725631405175615200,5.636615234375,-0.3089383840560913,-0.09155300259590149,0.26727232336997986
1725631405185568300,5.646568359375,-0.33945026993751526,-0.21492360532283783,0.19590118527412415
1725631405195521300,5.656521240234375,-0.3832797706127167,-0.12357531487941742,0.16945652663707733
1725631405205474300,5.666474365234375,-0.3983822166919708,-0.06850196421146393,0.15568718314170837
1725631405215427300,5.67642724609375,-0.39214083552360535,-0.06436607241630554,0.15725739300251007
1725631405225380400,5.68638037109375,-0.39275431632995605,-0.0875515416264534,0.18788613379001617
1725631405235332400,5.696332275390625,-0.3943713903427124,-0.0809173434972763,0.19266171753406525
1725631405245285400,5.706285400390625,-0.3943552076816559,-0.11389733105897903,0.19939099252223969
1725631405255238400,5.71623828125,-0.4061996042728424,-0.16084034740924835,0.2145763337612152
1725631405265191400,5.72619140625,-0.42107534408569336,-0.14180558919906616,0.20464034378528595
1725631405275144400,5.73614453125,-0.4497557282447815,-0.19551169872283936,0.18503549695014954
1725631405285097500,5.746097412109375,-0.4570932388305664,-0.3300289809703827,0.16650761663913727
1725631405295050500,5.756050537109375,-0.5202405452728271,-0.18390397727489471,0.17353995144367218
1725631405305002500,5.76600244140625,-0.5435622334480286,-0.11816997081041336,0.22919975221157074
1725631405314955300,5.775955322265625,-0.5791593790054321,-0.08796492964029312,0.3097880780696869
1725631405324908300,5.785908203125,-0.6374105215072632,-0.05862899869680405,0.31366485357284546
1725631405334861300,5.795861328125,-0.6491513252258301,-0.010175715200603008,0.3526785671710968
1725631405344814300,5.805814453125,-0.6426848769187927,0.1084858775138855,0.44732171297073364
1725631405354767400,5.815767333984375,-0.6625208854675293,0.2019476592540741,0.4683484435081482
1725631405364720400,5.825720458984375,-0.6766661405563354,0.19573888182640076,0.45595353841781616
1725631405374672400,5.83567236328125,-0.6960936784744263,0.17693856358528137,0.42377135157585144
1725631405384625400,5.84562548828125,-0.6994129419326782,0.23236380517482758,0.4768087565898895
1725631405394578200,5.855578125,-0.6913907527923584,0.29310598969459534,0.5334715247154236
1725631405404531200,5.86553125,-0.7062812447547913,0.3197859227657318,0.5455689430236816
1725631405414484200,5.875484130859375,-0.6721754670143127,0.3646165132522583,0.5789569616317749
1725631405424437200,5.885437255859375,-0.606899619102478,0.3062060475349426,0.5423150658607483
1725631405434389200,5.89538916015625,-0.5455236434936523,0.3242899775505066,0.57027268409729
1725631405444342300,5.90534228515625,-0.4745922386646271,0.35924360156059265,0.6242021918296814
1725631405454295300,5.91529541015625,-0.420877605676651,0.3368304371833801,0.6302992701530457
1725631405464248300,5.925248291015625,-0.3673415184020996,0.25178536772727966,0.6367411613464355
1725631405474201300,5.935201416015625,-0.32818612456321716,0.2545771598815918,0.675180196762085
1725631405484154000,5.945154052734375,-0.3220268487930298,0.33500710129737854,0.6947517395019531
1725631405494107100,5.955107177734375,-0.3377530574798584,0.36040619015693665,0.6900901794433594
1725631405504059400,5.965059326171875,-0.3429417610168457,0.35388991236686707,0.6502577662467957
1725631405514012400,5.975012451171875,-0.3539038598537445,0.2700725197792053,0.5266969799995422
1725631405523965400,5.98496533203125,-0.3715226352214813,0.2983700633049011,0.48013076186180115
1725631405533918500,5.99491845703125,-0.3307371437549591,0.31313541531562805,0.47774431109428406
1725631405543871000,6.00487109375,-0.3521522283554077,0.23923097550868988,0.4398297071456909
1725631405553824000,6.014823974609375,-0.3654629588127136,0.21856272220611572,0.4494519829750061
1725631405563776800,6.02477685546875,-0.3780478537082672,0.20396651327610016,0.47219881415367126
1725631405573728800,6.034728759765625,-0.38156935572624207,0.21520425379276276,0.48790666460990906
1725631405583681800,6.044681884765625,-0.35975709557533264,0.15757550299167633,0.4351513087749481
1725631405593634800,6.054634765625,-0.2801450788974762,0.10751552879810333,0.3844204843044281
1725631405603587800,6.064587890625,-0.18212106823921204,-0.01817147061228752,0.27291423082351685
1725631405613540900,6.074540771484375,-0.06679553538560867,-0.053814683109521866,0.23708750307559967
1725631405623494000,6.084493896484375,-0.009107877500355244,-0.0942884087562561,0.2340214103460312
1725631405633447000,6.094447021484375,-0.014222744852304459,-0.25022873282432556,0.1509172022342682
1725631405643398700,6.104398681640625,0.04715313762426376,-0.4354664385318756,0.05412647873163223
1725631405653351700,6.1143515625,0.0330602191388607,-0.43867236375808716,0.08739015460014343
1725631405663304700,6.1243046875,0.02690480463206768,-0.35452359914779663,0.10724429041147232
1725631405673257700,6.1342578125,0.052390992641448975,-0.29613006114959717,0.15171214938163757
1725631405683210800,6.144210693359375,-0.011414630338549614,-0.20681549608707428,0.1679838001728058
1725631405693163800,6.154163818359375,-0.052869927138090134,-0.05890912190079689,0.19565218687057495
1725631405703116800,6.16411669921875,-0.06838250905275345,-0.031134001910686493,0.12450477480888367
1725631405713068800,6.17406884765625,-0.039770036935806274,-0.11061710864305496,0.031640347093343735
1725631405723021800,6.184021728515625,0.011529490351676941,-0.1550668179988861,-0.0107902055606246
1725631405732974800,6.193974853515625,0.06675492972135544,-0.08667256683111191,0.024324636906385422
1725631405742928000,6.203927978515625,0.055116210132837296,-0.00576013932004571,0.05886930227279663
1725631405752881000,6.213880859375,0.05469968914985657,0.009939728304743767,0.05434805154800415
1725631405762834000,6.223833984375,0.11838482320308685,0.05821150913834572,0.06345605850219727
1725631405772787000,6.233786865234375,0.21891888976097107,0.061129000037908554,-0.0008235947461798787
1725631405782739000,6.243739013671875,0.3958514332771301,-0.11702162772417068,-0.1657496988773346
1725631405792692000,6.25369189453125,0.5699462890625,-0.2574959099292755,-0.2496403306722641
1725631405802644700,6.263644775390625,0.6489843130111694,-0.16323192417621613,-0.2603193521499634
1725631405812597800,6.27359765625,0.6355870366096497,-0.07652205973863602,-0.2555115520954132
1725631405822550800,6.28355078125,0.560211718082428,-0.05648037791252136,-0.31714028120040894
1725631405832503800,6.29350390625,0.48732367157936096,0.01761116087436676,-0.2587195932865143
1725631405842456800,6.303456787109375,0.42271366715431213,0.13855363428592682,-0.24692949652671814
1725631405852408800,6.313408935546875,0.3681902587413788,0.1544654816389084,-0.2809140980243683
1725631405862361900,6.32336181640625,0.3663942217826843,0.14102695882320404,-0.31029170751571655
1725631405872315000,6.33331494140625,0.40525612235069275,0.18677687644958496,-0.337380588054657
1725631405882268000,6.343267822265625,0.4442359209060669,0.3108743131160736,-0.3249486982822418
1725631405892220700,6.353220703125,0.4553109407424927,0.3492320775985718,-0.3928869962692261
1725631405902173700,6.363173583984375,0.472851425409317,0.30087903141975403,-0.46355926990509033
1725631405912126000,6.3731259765625,0.5123037695884705,0.28486010432243347,-0.5222486853599548
1725631405922078700,6.38307861328125,0.538177490234375,0.2907867133617401,-0.5628493428230286
1725631405932031700,6.39303173828125,0.5838760137557983,0.2682393193244934,-0.6092296242713928
1725631405941984800,6.40298486328125,0.6492711901664734,0.230733260512352,-0.5859485864639282
1725631405951937800,6.412937744140625,0.6914785504341125,0.2021346390247345,-0.5113558173179626
1725631405961890800,6.422890869140625,0.677631139755249,0.24331536889076233,-0.3946308195590973
1725631405971843800,6.43284375,0.6908676028251648,0.3735905587673187,-0.20262329280376434
1725631405981795800,6.4427958984375,0.722553551197052,0.35225027799606323,-0.15731386840343475
1725631405991748900,6.452748779296875,0.7031548619270325,0.21561545133590698,-0.33344390988349915
1725631406001702000,6.462701904296875,0.6562712788581848,0.11471673846244812,-0.5517333149909973
1725631406011655000,6.472655029296875,0.6304029822349548,0.023292284458875656,-0.627223551273346
1725631406021608000,6.48260791015625,0.6227472424507141,-0.05366380140185356,-0.6258083581924438
1725631406031561000,6.49256103515625,0.6196944713592529,0.050656478852033615,-0.544643223285675
1725631406041514000,6.502513916015625,0.5807759165763855,0.20183414220809937,-0.5202925801277161
1725631406051465700,6.5124658203125,0.5453574657440186,0.2371138334274292,-0.507219135761261
1725631406061418800,6.522418701171875,0.5759488940238953,0.19272273778915405,-0.5004725456237793
1725631406071371800,6.532371826171875,0.5630959272384644,0.1536371260881424,-0.540321409702301
1725631406081324800,6.54232470703125,0.5162137746810913,0.16022224724292755,-0.6259627938270569
1725631406091277800,6.55227783203125,0.4791116714477539,0.10888422280550003,-0.6977919936180115
1725631406101230800,6.56223095703125,0.4930117726325989,0.13528792560100555,-0.6190183758735657
1725631406111184000,6.572183837890625,0.4801119565963745,0.11795900017023087,-0.4654562771320343
1725631406121135900,6.582135986328125,0.4815099239349365,0.20216010510921478,-0.36540818214416504
1725631406131088600,6.592088623046875,0.5098555684089661,0.23306235671043396,-0.43448606133461
1725631406141041700,6.602041748046875,0.6254834532737732,0.17978636920452118,-0.4553804397583008
1725631406150994700,6.61199462890625,0.7666720151901245,-0.005734769627451897,-0.36259377002716064
1725631406160947700,6.62194775390625,0.6614389419555664,0.09203580766916275,-0.34924599528312683
1725631406170900700,6.631900634765625,0.7168800830841064,0.13238829374313354,-0.368023157119751
1725631406180853000,6.64185302734375,0.5405713319778442,0.3590812683105469,-0.2713810205459595
1725631406190806000,6.651805908203125,0.5745630860328674,0.26341918110847473,-0.32837748527526855
1725631406200759000,6.661759033203125,0.5217458605766296,0.307329386472702,-0.36072370409965515
1725631406210712000,6.671712158203125,0.5399083495140076,0.18988080322742462,-0.27673211693763733
1725631406220664800,6.681664794921875,0.4778742790222168,0.2099764049053192,-0.25578904151916504
1725631406230617900,6.691617919921875,0.3726290762424469,0.5009219646453857,-0.24439764022827148
1725631406240571000,6.70157080078125,0.42078980803489685,0.3020918369293213,-0.25324252247810364
1725631406250523000,6.71152294921875,0.3881186842918396,0.17813925445079803,-0.23954935371875763
1725631406260476000,6.721475830078125,0.3936910331249237,0.2589620053768158,-0.28917840123176575
1725631406270429000,6.731428955078125,0.40439853072166443,0.026905862614512444,-0.38912391662597656
1725631406280382000,6.7413818359375,0.3783804178237915,-0.07716666907072067,-0.5339761972427368
1725631406290335000,6.7513349609375,0.3106541037559509,-0.14757265150547028,-0.5872926712036133
1725631406300287700,6.761287841796875,0.21745610237121582,-0.12090835720300674,-0.5814683437347412
1725631406310240800,6.77124072265625,0.11245804280042648,-0.007511491421610117,-0.4964682161808014
1725631406320192800,6.78119287109375,0.02236263081431389,0.10222744941711426,-0.3654976785182953
1725631406330145800,6.791145751953125,-0.0727258026599884,0.09553652256727219,-0.1805480718612671
1725631406340098800,6.801098876953125,-0.08084753155708313,-0.03750069439411163,-0.010032004676759243
1725631406350051800,6.8110517578125,-0.05871187150478363,-0.05545252934098244,-0.002084332751110196
1725631406360004900,6.8210048828125,-0.06480836123228073,-0.08960942924022675,-0.060527924448251724
1725631406369958000,6.8309580078125,-0.09021811187267303,-0.09557517617940903,-0.1431588977575302
1725631406379909600,6.84090966796875,-0.02768227458000183,-0.20018088817596436,-0.23007968068122864
1725631406389862700,6.850862548828125,-0.012732353992760181,-0.15799961984157562,-0.1883804351091385
1725631406399815700,6.860815673828125,-0.1485907882452011,0.15601059794425964,-0.01484619453549385
1725631406409768700,6.870768798828125,-0.16122987866401672,0.003096939530223608,-0.0033594483975321054
1725631406419721700,6.8807216796875,-0.2644096612930298,-0.10229639708995819,0.11513390392065048
1725631406429674800,6.8906748046875,-0.29173368215560913,0.0419960655272007,-0.007991752587258816
1725631406439627800,6.900627685546875,-0.31638532876968384,-0.06943205744028091,-0.10321253538131714
1725631406449580000,6.910580078125,-0.352946013212204,-0.027000175788998604,-0.23208025097846985
1725631406459532800,6.92053271484375,-0.378465473651886,-0.07746974378824234,-0.3138960003852844
1725631406469485800,6.93048583984375,-0.3452446758747101,-0.08155450224876404,-0.3519618809223175
1725631406479438800,6.94043896484375,-0.3255765736103058,-0.15959769487380981,-0.379901647567749
1725631406489391900,6.950391845703125,-0.2958761751651764,-0.20072676241397858,-0.3024556040763855
1725631406499345000,6.960344970703125,-0.3045606017112732,-0.15873469412326813,-0.1738118827342987
1725631406509298000,6.9702978515625,-0.31824791431427,-0.13573484122753143,-0.10561445355415344
1725631406519250000,6.98025,-0.36258140206336975,-0.1346578747034073,-0.06420630216598511
1725631406529203000,6.990202880859375,-0.4141591191291809,-0.07103203237056732,0.13869968056678772
1725631406539155500,7.000155517578125,-0.4646480977535248,0.014309901744127274,0.3027586340904236
1725631406549108500,7.0101083984375,-0.422452449798584,-0.027195198461413383,0.31212446093559265
1725631406559061500,7.0200615234375,-0.35165664553642273,-0.13236182928085327,0.24609112739562988
1725631406569014500,7.0300146484375,-0.27531394362449646,-0.1286584436893463,0.23344190418720245
1725631406578967600,7.039967529296875,-0.23161688446998596,-0.20307381451129913,0.21069452166557312
1725631406588919600,7.04991943359375,-0.1737661063671112,-0.3034864366054535,0.18926672637462616
1725631406598872600,7.05987255859375,-0.16830852627754211,-0.3665061891078949,0.12889447808265686
1725631406608825600,7.06982568359375,-0.19795510172843933,-0.30157381296157837,0.12092495709657669
1725631406618778600,7.079778564453125,-0.22298488020896912,-0.17785993218421936,0.16780216991901398
1725631406628731400,7.0897314453125,-0.258004367351532,-0.05601738393306732,0.1390959620475769
1725631406638684400,7.099684326171875,-0.32798585295677185,0.09404362738132477,0.04310046136379242
1725631406648636700,7.10963671875,-0.3871261477470398,0.2517480254173279,0.03359430655837059
1725631406658589700,7.119589599609375,-0.4602167308330536,0.29805421829223633,0.08904799073934555
1725631406668542700,7.129542724609375,-0.45985639095306396,0.32229456305503845,0.08410756289958954
1725631406678495700,7.139495849609375,-0.3827723562717438,0.2451678365468979,0.005275855306535959
1725631406688448800,7.14944873046875,-0.339277058839798,0.07275424897670746,-0.10327298939228058
1725631406698401800,7.15940185546875,-0.31474918127059937,-0.1294538527727127,-0.20135216414928436
1725631406708354600,7.1693544921875,-0.3353516459465027,-0.2171003371477127,-0.22706258296966553
1725631406718306600,7.179306640625,-0.3848966062068939,-0.1042461022734642,-0.1926894336938858
1725631406728259600,7.189259521484375,-0.42699292302131653,-0.1386624127626419,-0.10672339051961899
1725631406738212600,7.199212646484375,-0.4786457419395447,0.013278339058160782,0.006755505222827196
1725631406748165600,7.20916552734375,-0.4817880392074585,-0.17412377893924713,0.09000539034605026
1725631406758118700,7.21911865234375,-0.5379776954650879,-0.1732458770275116,0.10022979229688644
1725631406768071700,7.22907177734375,-0.5151475071907043,-0.38787776231765747,0.0899910032749176
1725631406778023400,7.2390234375,-0.5490655303001404,-0.3090103566646576,0.10237257927656174
1725631406787976400,7.2489765625,-0.5210937857627869,-0.44305816292762756,0.09362675249576569
1725631406797929500,7.258929443359375,-0.5141469836235046,-0.3927418887615204,0.09431251883506775
1725631406807882500,7.268882568359375,-0.4710320234298706,-0.5124168395996094,0.054643936455249786
1725631406817835500,7.27883544921875,-0.4669420123100281,-0.3455211818218231,0.09249542653560638
1725631406827788500,7.28878857421875,-0.4578108489513397,-0.2603551745414734,0.16212910413742065
1725631406837741600,7.298741455078125,-0.47893592715263367,-0.22669345140457153,0.19166356325149536
1725631406847693600,7.308693603515625,-0.516377329826355,-0.18340642750263214,0.2266836017370224
1725631406857646600,7.318646484375,-0.540168821811676,-0.09143316745758057,0.27500879764556885
1725631406867599400,7.328599365234375,-0.534781277179718,0.013963833451271057,0.31394633650779724
1725631406877552400,7.338552490234375,-0.5237985253334045,0.07801039516925812,0.3241521120071411
1725631406887505400,7.34850537109375,-0.5269927382469177,0.06948934495449066,0.31854695081710815
1725631406897458400,7.35845849609375,-0.534256637096405,0.051749154925346375,0.32006627321243286
1725631406907410700,7.36841064453125,-0.5617551207542419,-0.023296324536204338,0.30593180656433105
1725631406917363700,7.37836376953125,-0.6190978288650513,-0.05446336418390274,0.2805097997188568
1725631406927316700,7.388316650390625,-0.6898151636123657,-0.007571223191916943,0.28772804141044617
1725631406937269800,7.398269775390625,-0.7364555597305298,0.17287606000900269,0.32580673694610596
1725631406947222500,7.408222412109375,-0.7511698007583618,0.36169418692588806,0.41787832975387573
1725631406957175600,7.418175537109375,-0.7686533331871033,0.4335309565067291,0.5175106525421143
1725631406967128600,7.428128662109375,-0.7638487219810486,0.3057578206062317,0.5791095495223999
1725631406977080600,7.43808056640625,-0.7848755717277527,0.11731379479169846,0.5839280486106873
1725631406987033600,7.44803369140625,-0.8191653490066528,-0.009850281290709972,0.5736849904060364
1725631406996986600,7.457986572265625,-0.833925724029541,-0.05483705922961235,0.5351858139038086
1725631407006939600,7.467939697265625,-0.8216485381126404,-0.04477030783891678,0.5251347422599792
1725631407016892700,7.477892578125,-0.7720765471458435,0.09966793656349182,0.6131026744842529
1725631407026845700,7.487845703125,-0.7227820158004761,0.15186642110347748,0.715158998966217
1725631407036797400,7.49779736328125,-0.6952579617500305,0.04678162932395935,0.6981168985366821
1725631407046750500,7.50775048828125,-0.6284192800521851,-0.059703536331653595,0.673680305480957
1725631407056703500,7.517703369140625,-0.5745729207992554,-0.14200779795646667,0.6734051704406738
1725631407066656500,7.527656494140625,-0.5201230049133301,-0.22798848152160645,0.661950945854187
1725631407076609500,7.537609619140625,-0.4490300118923187,-0.25247910618782043,0.6837566494941711
1725631407086562600,7.5475625,-0.36833491921424866,-0.16328105330467224,0.7181369662284851
1725631407096515600,7.557515625,-0.3068523406982422,0.03142551705241203,0.7970083355903625
1725631407106467600,7.567467529296875,-0.21092793345451355,0.14771005511283875,0.8112485408782959
1725631407116420600,7.577420654296875,-0.09292280673980713,0.17062495648860931,0.7455188035964966
1725631407126373600,7.58737353515625,-0.0002187066711485386,0.1496320515871048,0.6568325757980347
1725631407136326700,7.59732666015625,0.07163700461387634,0.16395559906959534,0.5840412378311157
1725631407146279700,7.60727978515625,0.0908685028553009,0.1662624329328537,0.5127657055854797
1725631407156232700,7.617232666015625,0.11282586306333542,0.12185615301132202,0.4261322617530823
1725631407166185700,7.627185791015625,0.13388535380363464,0.11706938594579697,0.41720375418663025
1725631407176137700,7.6371376953125,0.13607679307460785,0.1611580103635788,0.4707772433757782
1725631407186090500,7.647090576171875,0.11830498278141022,0.15765568614006042,0.4813856780529022
1725631407196043500,7.65704345703125,0.1484670788049698,0.08774019032716751,0.4663228392601013
1725631407205996500,7.66699658203125,0.18727971613407135,0.02966463752090931,0.43280962109565735
1725631407215949600,7.676949462890625,0.22683362662792206,0.03305244818329811,0.43426796793937683
1725631407225902600,7.686902587890625,0.2482353150844574,-0.04359998553991318,0.3936225473880768
1725631407235854600,7.6968544921875,0.2680841386318207,-0.08120521903038025,0.3848940134048462
1725631407245807600,7.7068076171875,0.23448091745376587,-0.1713535040616989,0.39274874329566956
1725631407255760600,7.7167607421875,0.1810043305158615,-0.2973213493824005,0.32901692390441895
1725631407265713700,7.726713623046875,0.16331535577774048,-0.36990928649902344,0.27554967999458313
1725631407275666400,7.73666650390625,0.19752682745456696,-0.3393114507198334,0.28920450806617737
1725631407285619500,7.746619384765625,0.23519378900527954,-0.30938950181007385,0.24676784873008728
1725631407295571500,7.756571533203125,0.3322044610977173,-0.2808930277824402,0.2089914232492447
1725631407305524500,7.7665244140625,0.40229859948158264,-0.24691776931285858,0.15000373125076294
1725631407315477500,7.7764775390625,0.4533327519893646,-0.16079464554786682,0.08264415711164474
1725631407325430500,7.786430419921875,0.4611552357673645,-0.14893852174282074,-0.008392004296183586
1725631407335383600,7.796383544921875,0.46785128116607666,-0.11717074364423752,-0.053671352565288544
1725631407345336600,7.806336669921875,0.44862353801727295,-0.11513422429561615,-0.12983430922031403
1725631407355289600,7.81628955078125,0.44959840178489685,-0.15000958740711212,-0.19809803366661072
1725631407365241600,7.82624169921875,0.4701574742794037,-0.14343370497226715,-0.20044374465942383
1725631407375194600,7.836194580078125,0.4621696472167969,-0.03809003531932831,-0.13801470398902893
1725631407385147600,7.846147705078125,0.4654008448123932,0.06846463680267334,-0.09331488609313965
1725631407395100700,7.8561005859375,0.48156070709228516,0.08513740450143814,-0.11615364253520966
1725631407405053700,7.8660537109375,0.5088490843772888,0.06880157440900803,-0.19331420958042145
1725631407415006700,7.8760068359375,0.5511833429336548,0.1020277813076973,-0.255979984998703
1725631407424958700,7.885958740234375,0.5740958452224731,0.1489177942276001,-0.3171495795249939
1725631407434911500,7.895911376953125,0.5707331895828247,0.16451366245746613,-0.34207624197006226
1725631407444864500,7.905864501953125,0.5750944018363953,0.20059657096862793,-0.3499722480773926
1725631407454817500,7.915817626953125,0.5772239565849304,0.20524612069129944,-0.41172510385513306
1725631407464770600,7.9257705078125,0.5938141345977783,0.140888974070549,-0.48947447538375854
1725631407474723600,7.9357236328125,0.6352443099021912,0.08010551333427429,-0.5093821287155151
1725631407484676600,7.945676513671875,0.687781035900116,0.10100759565830231,-0.4807441234588623
1725631407494628600,7.955628662109375,0.7140990495681763,0.19284410774707794,-0.4177054762840271
1725631407504581600,7.96558154296875,0.7031090259552002,0.247926265001297,-0.39819782972335815
1725631407514534400,7.975534423828125,0.6601954102516174,0.30635401606559753,-0.393649160861969
1725631407524487400,7.9854873046875,0.6345401406288147,0.34215089678764343,-0.4282366931438446
1725631407534440400,7.9954404296875,0.6182206869125366,0.3497973680496216,-0.45861029624938965
1725631407544393000,8.00539306640625,0.6288195252418518,0.3856525719165802,-0.48146235942840576
1725631407554346000,8.015345947265626,0.6350719332695007,0.3690371811389923,-0.5406007766723633
1725631407564298200,8.02529833984375,0.6409545540809631,0.3230699598789215,-0.5965204834938049
1725631407574251300,8.035251220703126,0.6280708312988281,0.2843444347381592,-0.6533206701278687
1725631407584204300,8.045204345703125,0.6094132661819458,0.34597185254096985,-0.6076828837394714
1725631407594157300,8.0551572265625,0.534332811832428,0.43334126472473145,-0.546303927898407
1725631407604110300,8.0651103515625,0.47205349802970886,0.48576879501342773,-0.49466419219970703
1725631407614063000,8.07506298828125,0.43538469076156616,0.5185369849205017,-0.46681177616119385
1725631407624015000,8.08501513671875,0.4579605758190155,0.5265701413154602,-0.46831992268562317
1725631407633968000,8.094968017578125,0.5138055086135864,0.4782334268093109,-0.4927448332309723
1725631407643921200,8.104921142578124,0.5553231239318848,0.4346923530101776,-0.5106993317604065
1725631407653874200,8.114874267578125,0.5504259467124939,0.47705525159835815,-0.49303218722343445
1725631407663827200,8.1248271484375,0.46840429306030273,0.5104720592498779,-0.4679849147796631
1725631407673780200,8.1347802734375,0.36623045802116394,0.6017534136772156,-0.4390302300453186
1725631407683732000,8.14473193359375,0.289119690656662,0.6649227738380432,-0.4148436486721039
1725631407693685000,8.15468505859375,0.21555554866790771,0.6246544122695923,-0.4536674916744232
1725631407703638000,8.164637939453126,0.19124141335487366,0.513122022151947,-0.4649773836135864
1725631407713591000,8.174591064453125,0.222781702876091,0.41387543082237244,-0.4746907353401184
1725631407723544000,8.1845439453125,0.20815110206604004,0.3326069116592407,-0.435903936624527
1725631407733497000,8.1944970703125,0.14300954341888428,0.37984779477119446,-0.3811373710632324
1725631407743450000,8.2044501953125,0.08035682141780853,0.4633413553237915,-0.34460678696632385
1725631407753402000,8.214402099609375,0.09397164732217789,0.4682999849319458,-0.3477194905281067
1725631407763355100,8.224355224609376,0.12731868028640747,0.31441882252693176,-0.4291709363460541
1725631407773308200,8.23430810546875,0.18072466552257538,0.22677524387836456,-0.45613864064216614
1725631407783261200,8.24426123046875,0.16847173869609833,0.14361616969108582,-0.4338945746421814
1725631407793214200,8.254214111328125,0.11523974686861038,0.11052479594945908,-0.3910648226737976
1725631407803167200,8.264167236328126,0.07764869183301926,0.20972195267677307,-0.30072879791259766
1725631407813120000,8.2741201171875,0.01760995201766491,0.22982046008110046,-0.22625432908535004
1725631407823072300,8.284072265625,0.030046913772821426,0.10714275389909744,-0.2223815619945526
1725631407833025300,8.294025390625,-0.017290836200118065,0.06129640340805054,-0.2096521556377411
1725631407842978300,8.303978271484375,-0.01666259579360485,-0.08427970111370087,-0.20173697173595428
1725631407852931000,8.31393115234375,-0.016244374215602875,-0.12558966875076294,-0.1788729578256607
1725631407862884000,8.323884033203125,-0.01500706933438778,-0.1305559277534485,-0.10649781674146652
1725631407872837000,8.333837158203124,-0.018480245023965836,-0.0728510245680809,-0.09259265661239624
1725631407882789000,8.3437890625,-0.03880628943443298,-0.09567750990390778,-0.11577653884887695
1725631407892742100,8.3537421875,-0.0328807570040226,-0.13646195828914642,-0.09881699830293655
1725631407902695200,8.363695068359375,-0.018589701503515244,-0.20350997149944305,-0.03164329007267952
1725631407912648200,8.373648193359376,0.036492712795734406,-0.2087981253862381,0.07014434039592743
1725631407922601200,8.383601318359375,0.07076440006494522,-0.1966107040643692,0.14167843759059906
1725631407932554200,8.39355419921875,0.12664686143398285,-0.18551024794578552,0.17948147654533386
1725631407942506000,8.403506103515625,0.1186954528093338,-0.23111554980278015,0.12512503564357758
1725631407952459000,8.413458984375,0.15057721734046936,-0.22652758657932281,0.13378643989562988
1725631407962412000,8.423412109375,0.17349104583263397,-0.2326243668794632,0.12441103905439377
1725631407972365000,8.433364990234375,0.17813922464847565,-0.2326725572347641,0.11793875694274902
1725631407982318000,8.443318115234375,0.1814229041337967,-0.17402470111846924,0.1615418940782547
1725631407992271000,8.45327099609375,0.17553965747356415,-0.1706211119890213,0.1466899812221527
1725631408002224000,8.46322412109375,0.17429250478744507,-0.22295063734054565,0.056688711047172546
1725631408012176100,8.473176025390625,0.17774039506912231,-0.2961932122707367,0.0035730379167944193
1725631408022129200,8.483129150390624,0.1747818887233734,-0.2929612100124359,0.011894883587956429
1725631408032082200,8.493082275390625,0.16394177079200745,-0.23623661696910858,0.003329880302771926
1725631408042035200,8.50303515625,0.16093826293945312,-0.2170538753271103,-0.06826361268758774
1725631408051988200,8.51298828125,0.15985305607318878,-0.2696116268634796,-0.17564384639263153
1725631408061941200,8.522941162109374,0.16425871849060059,-0.2980632483959198,-0.22132398188114166
1725631408071893200,8.532893310546875,0.13765265047550201,-0.2433813512325287,-0.18685977160930634
1725631408081846300,8.54284619140625,0.09762559831142426,-0.18342268466949463,-0.1708163619041443
1725631408091799000,8.552799072265625,0.0436239019036293,-0.14747585356235504,-0.17293861508369446
1725631408101752000,8.562751953125,-0.03372867405414581,-0.11690302938222885,-0.12141470611095428
1725631408111705000,8.572705078125,-0.12116026878356934,-0.05472953990101814,0.013821940869092941
1725631408121658000,8.582658203125,-0.18729454278945923,-0.02250395528972149,0.07682088017463684
1725631408131611100,8.592611083984375,-0.2768944799900055,0.03708360344171524,0.14795230329036713
1725631408141563100,8.602563232421875,-0.3325369656085968,0.012484782375395298,0.22497758269309998
1725631408151516200,8.61251611328125,-0.3829291760921478,-0.010259805247187614,0.29828429222106934
1725631408161469200,8.62246923828125,-0.3823624551296234,-0.014394362457096577,0.31990358233451843
1725631408171422200,8.632422119140625,-0.36547788977622986,-0.015404835343360901,0.3123234212398529
1725631408181375000,8.642375,-0.28949153423309326,-0.00471890065819025,0.3124848008155823
1725631408191328000,8.652327880859374,-0.2312510758638382,-0.03588554263114929,0.304251104593277
1725631408201280000,8.662280029296875,-0.18049229681491852,-0.03697025030851364,0.2491697520017624
1725631408211233000,8.67223291015625,-0.12134397029876709,-0.06682807952165604,0.1889335811138153
1725631408221186000,8.68218603515625,-0.0832892581820488,-0.07856489717960358,0.18016937375068665
1725631408231139000,8.69213916015625,-0.0648367628455162,-0.08179810643196106,0.1915658414363861
1725631408241092000,8.702092041015625,-0.05108606442809105,-0.040363848209381104,0.22756831347942352
1725631408251045000,8.712045166015624,-0.0480322428047657,-0.03801188990473747,0.1891798973083496
1725631408260997000,8.7219970703125,-0.02930862456560135,-0.04926853999495506,0.08588360995054245
1725631408270950100,8.7319501953125,-0.014414270408451557,-0.03486328199505806,0.015439553186297417
1725631408280903200,8.741903076171875,-0.03112560696899891,-0.0194033682346344,-0.017647825181484222
1725631408290856200,8.751856201171876,-0.0932907685637474,0.047989923506975174,-0.03159824758768082
1725631408300809200,8.761809326171875,-0.14330734312534332,0.10174156725406647,-0.06247999891638756
1725631408310762200,8.77176220703125,-0.17076988518238068,0.10016950219869614,-0.1078277975320816
1725631408320715300,8.78171533203125,-0.1662726104259491,0.048209626227617264,-0.15380805730819702
1725631408330667000,8.7916669921875,-0.17289207875728607,-0.044207386672496796,-0.19955851137638092
1725631408340620000,8.8016201171875,-0.21493352949619293,-0.13516712188720703,-0.231009379029274
1725631408350573000,8.811572998046875,-0.2552357017993927,-0.10474469512701035,-0.1957342028617859
1725631408360526000,8.821526123046874,-0.2918965220451355,-0.060647010803222656,-0.11354026198387146
1725631408370479000,8.83147900390625,-0.33303922414779663,0.014787092804908752,-0.035239338874816895
1725631408380432100,8.84143212890625,-0.3402039110660553,-0.022066796198487282,0.02731032483279705
1725631408390384000,8.851384033203125,-0.35516121983528137,-0.015056028962135315,0.07404586672782898
1725631408400337200,8.861337158203124,-0.329182893037796,-0.086358442902565,0.08963228017091751
1725631408410290200,8.871290283203125,-0.3026242256164551,-0.08300825208425522,0.10215631872415543
1725631408420243000,8.881242919921876,-0.2613617479801178,-0.09001822769641876,0.15766139328479767
1725631408430196000,8.891196044921875,-0.26956844329833984,-0.029083557426929474,0.22167767584323883
1725631408440149000,8.90114892578125,-0.28509414196014404,0.025171425193548203,0.25888708233833313
1725631408450102000,8.91110205078125,-0.3233115077018738,0.10948377102613449,0.2722622752189636
1725631408460054300,8.92105419921875,-0.38751739263534546,0.1887655407190323,0.25753259658813477
1725631408470007300,8.93100732421875,-0.4712258577346802,0.2653261125087738,0.2710779905319214
1725631408479960300,8.940960205078126,-0.5567343831062317,0.352245032787323,0.30016475915908813
1725631408489913300,8.950913330078125,-0.6156057715415955,0.4580303132534027,0.3649727702140808
1725631408499866400,8.960866455078126,-0.6553395986557007,0.5181959271430969,0.4139975905418396
1725631408509819100,8.970819091796875,-0.6674754023551941,0.5705726146697998,0.4559977352619171
1725631408519771100,8.980771240234375,-0.6699050068855286,0.6089692711830139,0.4887154698371887
1725631408529724200,8.99072412109375,-0.656485378742218,0.6191285252571106,0.5062172412872314
1725631408539678200,9.00067822265625,-0.6421687602996826,0.6779627799987793,0.57259601354599
1725631408549631200,9.01063134765625,-0.6439803838729858,0.7597717046737671,0.644396185874939
1725631408559584300,9.020584228515625,-0.6699115633964539,0.756048858165741,0.6223699450492859
1725631408569537300,9.030537353515625,-0.678072452545166,0.6912658214569092,0.5305726528167725
1725631408579489500,9.040489501953125,-0.6865622997283936,0.6265485882759094,0.4849407374858856
1725631408589442600,9.050442626953124,-0.6907647848129272,0.6294487714767456,0.47602951526641846
1725631408599395300,9.060395263671875,-0.7107430100440979,0.6076415181159973,0.4291751980781555
1725631408609348400,9.070348388671874,-0.6806043982505798,0.5831102132797241,0.3964790403842926
1725631408619301400,9.08030126953125,-0.678418755531311,0.5453910231590271,0.3650566637516022
1725631408629254400,9.09025439453125,-0.6726916432380676,0.4215575158596039,0.3108706772327423
1725631408639207400,9.10020751953125,-0.6043407917022705,0.2001047432422638,0.2305704802274704
1725631408649159400,9.110159423828126,-0.5526567101478577,0.11486868560314178,0.27030351758003235
1725631408659112400,9.120112548828125,-0.5189805030822754,0.15189087390899658,0.37369731068611145
1725631408669065500,9.1300654296875,-0.4909251034259796,0.12281342595815659,0.4072563350200653
1725631408679018500,9.1400185546875,-0.42094123363494873,0.09816480427980423,0.4328154921531677
1725631408688971300,9.14997119140625,-0.3413088917732239,0.08634662628173828,0.4316604733467102
1725631408698924300,9.15992431640625,-0.26745784282684326,0.014053788036108017,0.3823949098587036
1725631408708876300,9.169876220703125,-0.1987031102180481,-0.02467563934624195,0.3733614683151245
1725631408718829300,9.179829345703125,-0.14852088689804077,-0.06202647462487221,0.3530825674533844
1725631408728782300,9.1897822265625,-0.10621274262666702,-0.026892313733696938,0.4051540195941925
1725631408738735400,9.1997353515625,-0.13073192536830902,-0.09805623441934586,0.3392146825790405
1725631408748688400,9.2096884765625,-0.10718514770269394,-0.09773200005292892,0.405974805355072
1725631408758641400,9.219641357421875,-0.09622863680124283,-0.12098672240972519,0.3195571005344391
1725631408768593400,9.229593505859375,-0.13493715226650238,-0.10754281282424927,0.317691832780838
1725631408778546400,9.23954638671875,-0.11958881467580795,-0.06458070129156113,0.29195448756217957
1725631408788499500,9.24949951171875,-0.1467074751853943,-0.09230227768421173,0.269502192735672
1725631408798452500,9.259452392578124,-0.134327232837677,-0.1004992201924324,0.23531225323677063
1725631408808405500,9.269405517578125,-0.07785876095294952,-0.10816013067960739,0.27144521474838257
1725631408818358500,9.279358642578124,-0.006866339594125748,-0.15520834922790527,0.237409770488739
1725631408828311600,9.2893115234375,0.053901635110378265,-0.08583340048789978,0.2705381512641907
1725631408838263300,9.29926318359375,0.0839463546872139,-0.0496748611330986,0.25852811336517334
1725631408848216300,9.30921630859375,0.07920729368925095,-0.06744705885648727,0.22629718482494354
1725631408858169300,9.31916943359375,0.14671443402767181,0.00008298215107060969,0.26858311891555786
1725631408868122400,9.329122314453125,0.16522036492824554,0.08435218781232834,0.32334011793136597
1725631408878075400,9.339075439453126,0.21464410424232483,0.11431221663951874,0.2954797148704529
1725631408888028400,9.3490283203125,0.31811437010765076,0.05724114552140236,0.20347630977630615
1725631408897980400,9.35898046875,0.3943782448768616,-0.01027052104473114,0.09903112798929214
1725631408907933400,9.368933349609375,0.4316963255405426,0.024418944492936134,0.027378760278224945
1725631408917886500,9.378886474609375,0.46044328808784485,0.14071732759475708,-0.01465390995144844
1725631408927839200,9.388839111328124,0.42686209082603455,0.2805202305316925,-0.030467763543128967
1725631408937792300,9.398792236328125,0.3723335862159729,0.3213326334953308,-0.12302059680223465
1725631408947745300,9.408745361328124,0.3447565734386444,0.3617117702960968,-0.27371981739997864
1725631408957698300,9.4186982421875,0.3789805769920349,0.25061213970184326,-0.4338034987449646
1725631408967650300,9.428650390625,0.4304681122303009,0.15071222186088562,-0.5385264754295349
1725631408977603300,9.438603271484375,0.47083792090415955,0.12130346894264221,-0.5840291976928711
1725631408987556400,9.448556396484374,0.5015024542808533,0.14048542082309723,-0.5833828449249268
1725631408997509400,9.45850927734375,0.4670608639717102,0.1852310597896576,-0.565433144569397
1725631409007462100,9.468462158203126,0.40247929096221924,0.23069827258586884,-0.556165874004364
1725631409017415200,9.478415283203125,0.3651055693626404,0.29367193579673767,-0.49604636430740356
1725631409027367400,9.488367431640626,0.3484264612197876,0.3682705760002136,-0.4766758978366852
1725631409037320400,9.498320556640625,0.35223105549812317,0.4245559573173523,-0.508792519569397
1725631409047273500,9.5082734375,0.3861615061759949,0.39834585785865784,-0.579851508140564
1725631409057226500,9.5182265625,0.4267864227294922,0.3546186089515686,-0.6437218189239502
1725631409067179500,9.528179443359376,0.4798702895641327,0.3672526180744171,-0.6367952227592468
1725631409077132500,9.538132568359375,0.5281898379325867,0.38936617970466614,-0.602264940738678
1725631409087084300,9.548084228515625,0.5828100442886353,0.4218194782733917,-0.5308051705360413
1725631409097037300,9.558037353515624,0.5686968564987183,0.40292516350746155,-0.5067746639251709
1725631409106990300,9.567990234375,0.5378478169441223,0.4059453308582306,-0.45890915393829346
1725631409116943400,9.577943359375,0.5639409422874451,0.4533384144306183,-0.39911478757858276
1725631409126896400,9.587896484375,0.5973345637321472,0.42717692255973816,-0.43918415904045105
1725631409136849400,9.597849365234374,0.5935318470001221,0.3894503116607666,-0.5768796801567078
1725631409146802400,9.607802490234375,0.6003129482269287,0.4162406325340271,-0.646425724029541
1725631409156754400,9.61775439453125,0.6161707639694214,0.4582091271877289,-0.6177663803100586
1725631409166707200,9.627707275390625,0.629263162612915,0.4451652467250824,-0.5753518342971802
1725631409176660200,9.63766015625,0.6278301477432251,0.42472922801971436,-0.5403339266777039
1725631409186613200,9.64761328125,0.6277528405189514,0.40335413813591003,-0.5584532618522644
1725631409196566300,9.657566162109376,0.6401658058166504,0.42123299837112427,-0.532703697681427
1725631409206519300,9.667519287109375,0.6488832831382751,0.4077553451061249,-0.5056800842285156
1725631409216471600,9.677471435546876,0.6635804772377014,0.3868519067764282,-0.5485599040985107
1725631409226424600,9.687424560546875,0.6925071477890015,0.395171582698822,-0.6064178943634033
1725631409236377600,9.697377685546876,0.6913158893585205,0.37479308247566223,-0.6687715649604797
1725631409246330400,9.707330322265625,0.6765907406806946,0.4029685854911804,-0.6532514095306396
1725631409256283400,9.717283447265626,0.5975942015647888,0.3868095874786377,-0.5914514660835266
1725631409266236400,9.727236328125,0.4896262288093567,0.35613563656806946,-0.5955633521080017
1725631409276188400,9.7371884765625,0.46146541833877563,0.37393778562545776,-0.5806123614311218
1725631409286141400,9.747141357421874,0.40639376640319824,0.37418511509895325,-0.54420006275177
1725631409296094500,9.757094482421875,0.3658154606819153,0.31544244289398193,-0.5195572972297668
1725631409306047500,9.767047607421874,0.34096989035606384,0.2334480583667755,-0.521344006061554
1725631409316000500,9.77700048828125,0.3119044303894043,0.19537471234798431,-0.6129966974258423
1725631409325953500,9.78695361328125,0.3201295733451843,0.22786109149456024,-0.659866988658905
1725631409335906300,9.79690625,0.29936304688453674,0.2771380841732025,-0.6434374451637268
1725631409345858300,9.8068583984375,0.244380384683609,0.11526476591825485,-0.5019255876541138
1725631409355811300,9.816811279296875,0.0898832231760025,0.07148478925228119,-0.3519640266895294
1725631409365764400,9.826764404296876,-0.020204538479447365,0.08185240626335144,-0.2598183751106262
1725631409375717400,9.83671728515625,-0.09547532349824905,0.17789186537265778,-0.23398812115192413
1725631409385670400,9.84667041015625,-0.2091861218214035,0.039131779223680496,-0.2223098874092102
1725631409395623400,9.85662353515625,-0.26023492217063904,0.05323987454175949,-0.19817952811717987
1725631409405575200,9.8665751953125,-0.28800204396247864,0.16067998111248016,-0.24556222558021545
1725631409415528200,9.876528076171875,-0.276652991771698,-0.038532987236976624,-0.2876870334148407
1725631409425481200,9.886481201171875,-0.3137921392917633,-0.07520218938589096,-0.1830756664276123
1725631409435434200,9.896434326171875,-0.3748088777065277,-0.03415701538324356,-0.061366550624370575
1725631409445387300,9.90638720703125,-0.3909178376197815,-0.12506316602230072,0.0752730518579483
1725631409455340300,9.91634033203125,-0.39528781175613403,-0.23357738554477692,0.18179282546043396
1725631409465293300,9.926293212890625,-0.406471312046051,-0.2698259949684143,0.1602281779050827
1725631409475245600,9.93624560546875,-0.4222082197666168,-0.2777981758117676,0.13855937123298645
1725631409485198600,9.946198486328125,-0.4567972719669342,-0.3765759766101837,0.1348799169063568
1725631409495151400,9.9561513671875,-0.4979199469089508,-0.38333985209465027,0.11127498745918274
1725631409505104400,9.9661044921875,-0.5016729831695557,-0.3517893850803375,0.1461019366979599
1725631409515057400,9.976057373046874,-0.5086102485656738,-0.315217524766922,0.20142458379268646
1725631409525010400,9.986010498046875,-0.5093498229980469,-0.31580618023872375,0.24360135197639465
1725631409534962400,9.99596240234375,-0.4901662766933441,-0.3221389055252075,0.3119623064994812
1725631409544914400,10.00591455078125,-0.4595337212085724,-0.3224162459373474,0.3728775680065155
1725631409554867200,10.0158671875,-0.4250550866127014,-0.3459092974662781,0.3914773464202881
1725631409564820200,10.0258203125,-0.3884550631046295,-0.3932112455368042,0.3847326338291168
1725631409574773200,10.035773193359375,-0.3539673984050751,-0.4246538579463959,0.36083823442459106
1725631409584726300,10.045726318359375,-0.331127792596817,-0.39855101704597473,0.3654966354370117
1725631409594678500,10.055678466796875,-0.3147110044956207,-0.3576565682888031,0.4058072865009308
1725631409604631300,10.06563134765625,-0.31057876348495483,-0.32347163558006287,0.42243286967277527
1725631409614584300,10.075584228515625,-0.2876092493534088,-0.2684518098831177,0.41295334696769714
1725631409624537300,10.085537353515624,-0.27131056785583496,-0.2392112910747528,0.37592610716819763
1725631409634490400,10.095490478515625,-0.2520625591278076,-0.20020130276679993,0.3330760896205902
1725631409644443400,10.105443359375,-0.24245278537273407,-0.1593073457479477,0.277129203081131
1725631409654396400,10.115396484375,-0.2223176807165146,-0.16580146551132202,0.20030899345874786
1725631409664348400,10.125348388671876,-0.18158337473869324,-0.23016180098056793,0.06794510781764984
1725631409674301400,10.135301513671875,-0.13081900775432587,-0.3168008327484131,-0.11242786049842834
1725631409684254500,10.14525439453125,-0.0917140319943428,-0.3522046208381653,-0.2470213621854782
1725631409694207500,10.15520751953125,-0.08482789248228073,-0.2997126579284668,-0.24084869027137756
1725631409704160500,10.165160400390626,-0.11003439873456955,-0.2755005359649658,-0.16879022121429443
1725631409714113500,10.175113525390625,-0.13931825757026672,-0.2862306833267212,-0.09045227617025375
1725631409724065300,10.185065185546875,-0.18456843495368958,-0.2910882532596588,-0.02968398854136467
1725631409734018300,10.195018310546875,-0.23153461515903473,-0.3038373589515686,0.046477094292640686
1725631409743971300,10.204971435546875,-0.2182248830795288,-0.3608677089214325,0.028435247018933296
1725631409753924400,10.21492431640625,-0.15394389629364014,-0.4695683419704437,-0.06266190856695175
1725631409763877400,10.22487744140625,-0.1072775274515152,-0.6117296814918518,-0.22581380605697632
1725631409773830400,10.234830322265625,-0.09185436367988586,-0.6427631974220276,-0.3490699529647827
1725631409783783400,10.244783447265625,-0.10678490251302719,-0.6662590503692627,-0.32685521245002747
1725631409793735200,10.254735107421874,-0.15719561278820038,-0.5692339539527893,-0.22217033803462982
1725631409803688200,10.264688232421875,-0.20771858096122742,-0.5374403595924377,-0.11255224049091339
1725631409813641200,10.27464111328125,-0.2910718023777008,-0.4433876574039459,-0.022116081789135933
1725631409823594200,10.28459423828125,-0.3629145920276642,-0.40493044257164,0.06797705590724945
1725631409833547300,10.29454736328125,-0.39370179176330566,-0.37092241644859314,0.14286407828330994
1725631409843500300,10.304500244140625,-0.3939836919307709,-0.3614068925380707,0.13313955068588257
1725631409853452500,10.31445263671875,-0.35935327410697937,-0.5029845237731934,0.03230907768011093
1725631409863405600,10.324405517578125,-0.3174828290939331,-0.5783201456069946,-0.035950660705566406
1725631409873358600,10.334358642578126,-0.2830883860588074,-0.5427616238594055,-0.011569153517484665
1725631409883311400,10.344311279296875,-0.2866348624229431,-0.47677573561668396,0.04077580198645592
1725631409893264400,10.354264404296876,-0.3441825807094574,-0.3942219913005829,0.08700322359800339
1725631409903217400,10.364217529296875,-0.44404128193855286,-0.3202999532222748,0.1293480098247528
1725631409913169400,10.37416943359375,-0.5620473027229309,-0.24715198576450348,0.20807823538780212
1725631409923122400,10.384122314453125,-0.6571718454360962,-0.18017540872097015,0.2853301465511322
1725631409933075500,10.394075439453125,-0.6991549730300903,-0.1468914896249771,0.41743412613868713
1725631409943028500,10.404028564453125,-0.7151379585266113,-0.10199466347694397,0.5646392703056335
1725631409952981500,10.4139814453125,-0.738542914390564,-0.10595371574163437,0.5707136988639832
1725631409962934500,10.4239345703125,-0.7540679574012756,-0.15779361128807068,0.5433816909790039
1725631409972887300,10.43388720703125,-0.7393451929092407,-0.14175046980381012,0.5797836184501648
1725631409982839300,10.44383935546875,-0.7488005757331848,-0.08697881549596786,0.570803165435791
1725631409992792300,10.453792236328125,-0.7652272582054138,-0.03710899502038956,0.5387144684791565
1725631410002745300,10.463745361328124,-0.7586776614189148,0.03857843577861786,0.5447145700454712
1725631410012698400,10.473698486328125,-0.7200232148170471,0.07399261742830276,0.5366095304489136
1725631410022651400,10.4836513671875,-0.6713862419128418,0.062503881752491,0.4660695791244507
1725631410032604400,10.4936044921875,-0.6276885271072388,0.031377386301755905,0.37259554862976074
1725631410042556200,10.50355615234375,-0.5878828167915344,0.0006464303005486727,0.3173264265060425
1725631410052509200,10.51350927734375,-0.5726913809776306,0.13023585081100464,0.3969523012638092
1725631410062462200,10.523462158203126,-0.601641058921814,0.3175106644630432,0.5090657472610474
1725631410072415200,10.533415283203125,-0.6058523654937744,0.3747297525405884,0.5563930869102478
1725631410082368300,10.5433681640625,-0.5508488416671753,0.350435346364975,0.5932450890541077
1725631410092321300,10.5533212890625,-0.48140156269073486,0.33410829305648804,0.605918288230896
1725631410102274300,10.5632744140625,-0.4510986804962158,0.2787846624851227,0.5360350608825684
1725631410112226600,10.5732265625,-0.4327889084815979,0.1435658484697342,0.42742443084716797
1725631410122179300,10.583179443359375,-0.45477375388145447,0.09494930505752563,0.4194064736366272
1725631410132132400,10.59313232421875,-0.5222025513648987,0.1462087631225586,0.4538254141807556
1725631410142085400,10.60308544921875,-0.5282129049301147,0.19441011548042297,0.5236609578132629
1725631410152038400,10.613038330078124,-0.4884297847747803,0.17102941870689392,0.5665032267570496
1725631410161991400,10.622991455078125,-0.4273238182067871,0.20621976256370544,0.6153642535209656
1725631410171943400,10.632943359375,-0.3627956807613373,0.27877894043922424,0.6531808972358704
1725631410181896400,10.642896484375,-0.2956893742084503,0.23287133872509003,0.5980984568595886
1725631410191849500,10.652849365234376,-0.21761801838874817,0.12996919453144073,0.4624585807323456
1725631410201802500,10.662802490234375,-0.11849990487098694,0.10476870834827423,0.3861542344093323
1725631410211755300,10.67275537109375,-0.06572084873914719,0.08726561069488525,0.2958565652370453
1725631410221708300,10.682708251953125,-0.018141774460673332,0.07507653534412384,0.26213884353637695
1725631410231661300,10.692661376953126,-0.005262727849185467,0.07566535472869873,0.2524271011352539
1725631410241613300,10.70261328125,0.01218610629439354,0.064970962703228,0.22737069427967072
1725631410251566300,10.71256640625,0.10009252279996872,0.06198315694928169,0.19107766449451447
1725631410261519400,10.722519287109375,0.14166368544101715,0.0651218369603157,0.1919485330581665
1725631410271472400,10.732472412109376,0.16423051059246063,0.059097494930028915,0.1946931928396225
1725631410281425400,10.74242529296875,0.1654708832502365,0.06629768759012222,0.20654399693012238
1725631410291378400,10.75237841796875,0.13290521502494812,0.029703455045819283,0.2532563805580139
1725631410301330400,10.762330322265624,0.10281238704919815,0.0015892649535089731,0.24886295199394226
1725631410311283500,10.772283447265625,0.08768323808908463,-0.09927583485841751,0.21608823537826538
1725631410321236500,10.782236572265624,0.10685928165912628,-0.15061338245868683,0.21593749523162842
1725631410331189500,10.792189453125,0.13780948519706726,-0.15101365745067596,0.1621970385313034
1725631410341142500,10.802142578125,0.1942179650068283,-0.20341815054416656,0.11518264561891556
1725631410351095600,10.812095458984375,0.24885936081409454,-0.23226363956928253,0.05020391196012497
1725631410361047300,10.82204736328125,0.312004953622818,-0.27709653973579407,-0.04308394342660904
1725631410371000300,10.832000244140625,0.377646267414093,-0.3424060344696045,-0.13857291638851166
1725631410380953300,10.841953369140626,0.4325454533100128,-0.3223409354686737,-0.18516677618026733
1725631410390906400,10.85190625,0.4332820773124695,-0.21418730914592743,-0.21764720976352692
1725631410400859400,10.861859375,0.4598337709903717,-0.20045922696590424,-0.30245187878608704
1725631410410812400,10.8718125,0.4917416274547577,-0.11807035654783249,-0.24700671434402466
1725631410420764400,10.881764404296876,0.4542008936405182,0.03259185329079628,-0.22600317001342773
1725631410430717400,10.891717529296875,0.3481575548648834,-0.033088091760873795,-0.26002106070518494
1725631410440670500,10.90167041015625,0.3286460041999817,-0.18835143744945526,-0.3819482922554016
1725631410450623200,10.911623291015625,0.4222710132598877,-0.21337716281414032,-0.34862175583839417
1725631410460576300,10.921576171875,0.5351696610450745,-0.11328405886888504,-0.2687261402606964
1725631410470529300,10.931529296875,0.5907426476478577,-0.10056080669164658,-0.2353343516588211
1725631410480482300,10.941482421875,0.6035022139549255,-0.1007794514298439,-0.23851042985916138
1725631410490434300,10.951434326171874,0.6270959377288818,-0.07379709929227829,-0.24654918909072876
1725631410500387300,10.96138720703125,0.6409937739372253,-0.026583781465888023,-0.2680443525314331
1725631410510340400,10.97134033203125,0.6583181619644165,-0.00853633787482977,-0.30499890446662903
1725631410520293400,10.98129345703125,0.6403489708900452,0.0401248037815094,-0.40711328387260437
1725631410530246400,10.991246337890624,0.6812450289726257,-0.005248799920082092,-0.4450702667236328
1725631410540199200,11.00119921875,0.7669161558151245,-0.013996549881994724,-0.4653816521167755
1725631410550152200,11.011152099609374,0.8499606847763062,-0.07227770239114761,-0.4761962294578552
1725631410560105200,11.021105224609375,0.9201291799545288,-0.1251334697008133,-0.44369956851005554
1725631410570058200,11.031058349609374,0.9573209881782532,-0.14903907477855682,-0.3803269863128662
1725631410580011300,11.04101123046875,0.9465546011924744,-0.1214638277888298,-0.282096266746521
1725631410589964000,11.050964111328126,0.8995698094367981,-0.0793619155883789,-0.18644936382770538
1725631410599917000,11.0609169921875,0.8384400010108948,-0.06968171894550323,-0.12114199995994568
1725631410609869300,11.070869384765626,0.8664335608482361,-0.06680923700332642,-0.0666944682598114
1725631410619822300,11.080822265625,0.8610565066337585,-0.021269911900162697,-0.1288614422082901
1725631410629775400,11.090775390625,0.8213261365890503,0.034829575568437576,-0.30522847175598145
1725631410639728400,11.100728271484375,0.7581862807273865,0.1300927847623825,-0.43961983919143677
1725631410649681400,11.110681396484376,0.750536322593689,0.22751681506633759,-0.39954593777656555
1725631410659634400,11.120634521484375,0.7424972057342529,0.25112611055374146,-0.3599649667739868
1725631410669587200,11.130587158203125,0.7837716937065125,0.24837136268615723,-0.36824873089790344
1725631410679539200,11.140539306640624,0.8471335768699646,0.27594003081321716,-0.33015885949134827
1725631410689492200,11.1504921875,0.9196551442146301,0.28348690271377563,-0.2809505760669708
1725631410699445200,11.1604453125,0.9619863033294678,0.2569456100463867,-0.22777895629405975
1725631410709398300,11.170398193359375,0.9501762390136719,0.23133397102355957,-0.24556781351566315
1725631410719351300,11.180351318359374,0.9040276408195496,0.2426339089870453,-0.29704272747039795
1725631410729304300,11.19030419921875,0.8404595851898193,0.2432813197374344,-0.30979153513908386
1725631410739256000,11.200256103515626,0.7251870036125183,0.25122952461242676,-0.2329590767621994
1725631410749209000,11.210208984375,0.5975803136825562,0.294585257768631,-0.15560783445835114
1725631410759162000,11.220162109375,0.4746009111404419,0.3399932086467743,-0.12921138107776642
1725631410769115100,11.230115234375,0.387329638004303,0.44900357723236084,-0.13351531326770782
1725631410779068200,11.240068115234376,0.3121131360530853,0.4551491439342499,-0.21787865459918976
1725631410789021200,11.250021240234375,0.2806026041507721,0.4655860662460327,-0.16063161194324493
1725631410798973400,11.259973388671876,0.24190714955329895,0.4024989902973175,-0.11281296610832214
1725631410808926500,11.269926513671875,0.1968510001897812,0.4390937387943268,-0.12122110277414322
1725631410818879500,11.27987939453125,0.14893844723701477,0.26156631112098694,-0.16628046333789825
1725631410828832300,11.289832275390625,0.051153041422367096,0.33194273710250854,-0.1721103936433792
1725631410838785300,11.299785400390626,0.011173231527209282,0.2913476526737213,-0.15463151037693024
1725631410848738300,11.30973828125,-0.03403525799512863,0.15947802364826202,-0.114617258310318
1725631410858691300,11.31969140625,-0.1365906298160553,0.05897931382060051,-0.06498605757951736
1725631410868643300,11.329643310546874,-0.17298884689807892,0.2731632590293884,0.0083012031391263
1725631410878596400,11.339596435546875,-0.19844962656497955,0.13778410851955414,0.13348309695720673
1725631410888549400,11.34954931640625,-0.2490997463464737,0.2789308428764343,0.22226808965206146
1725631410898502400,11.35950244140625,-0.15414981544017792,0.10609130561351776,0.15184719860553741
1725631410908455400,11.369455322265624,-0.07913576066493988,-0.059430282562971115,-0.014323940500617027
1725631410918408200,11.379408203125,0.004030484240502119,-0.12647271156311035,-0.16354992985725403
1725631410928360200,11.389360107421876,0.07548096776008606,-0.12115863710641861,-0.21651700139045715
1725631410938313200,11.399313232421875,0.09644453227519989,-0.04208923876285553,-0.22054633498191833
1725631410948266200,11.409266357421876,0.08787208050489426,0.0335402749478817,-0.19849668443202972
1725631410958219300,11.41921923828125,0.06277904659509659,0.09081155806779861,-0.1337725669145584
1725631410968172300,11.42917236328125,0.059342771768569946,0.092195063829422,-0.0700545683503151
1725631410978125300,11.439125244140625,0.06823383271694183,0.047955431044101715,0.003914462402462959
1725631410988078300,11.449078369140626,0.08028463274240494,-0.02290142886340618,0.047269124537706375
1725631410998030000,11.459030029296875,0.09246038645505905,-0.091765858232975,0.03140971437096596
1725631411007983000,11.468983154296875,0.10572265833616257,-0.13797304034233093,0.006772278342396021
1725631411017936100,11.47893603515625,0.09677412360906601,-0.1103573739528656,0.004211398772895336
1725631411027889200,11.48888916015625,0.07581504434347153,-0.035829879343509674,0.019581831991672516
1725631411037842200,11.49884228515625,0.0463494211435318,0.023885581642389297,-0.006153893657028675
1725631411047795200,11.508795166015625,0.02236206643283367,0.02631571516394615,-0.050043851137161255
1725631411057747500,11.51874755859375,0.005179755389690399,0.01594436913728714,-0.1085500419139862
1725631411067700200,11.5287001953125,0.005187478847801685,0.01025612372905016,-0.1609000563621521
1725631411077653200,11.5386533203125,-0.010691128671169281,0.03376804292201996,-0.25173142552375793
1725631411087606300,11.548606201171875,-0.07771223783493042,0.08518622815608978,-0.2707216441631317
1725631411097559300,11.558559326171874,-0.15400876104831696,0.19042176008224487,-0.23476338386535645
1725631411107512300,11.56851220703125,-0.22152602672576904,0.24661019444465637,-0.18702329695224762
1725631411117464300,11.57846435546875,-0.2819671034812927,0.2701350450515747,-0.11626016348600388
1725631411127417300,11.588417236328125,-0.326998233795166,0.23552805185317993,-0.07487091422080994
1725631411137370400,11.598370361328126,-0.3663158714771271,0.16752131283283234,-0.08791238814592361
1725631411147323400,11.608323486328125,-0.41386422514915466,0.11242716759443283,-0.11346036195755005
1725631411157276200,11.618276123046876,-0.4530341923236847,0.08132188767194748,-0.12360677868127823
1725631411167229200,11.628229248046875,-0.4576997756958008,0.11504124104976654,-0.1243378147482872
1725631411177182200,11.63818212890625,-0.44890767335891724,0.090980663895607,-0.14030450582504272
1725631411187134200,11.64813427734375,-0.4250284433364868,0.12229011952877045,-0.15795832872390747
1725631411197087200,11.658087158203125,-0.39618387818336487,0.11710035055875778,-0.1690296232700348
1725631411207040300,11.668040283203124,-0.4339190125465393,0.05785113945603371,-0.1982375830411911
1725631411216993300,11.6779931640625,-0.4633397161960602,0.07214652001857758,-0.17992304265499115
1725631411226946300,11.6879462890625,-0.48829594254493713,0.1511683613061905,-0.11155036091804504
1725631411236899000,11.697899169921875,-0.5209001898765564,0.17214569449424744,-0.04692794755101204
1725631411246851300,11.707851318359374,-0.5020045042037964,0.3087061941623688,0.014423560351133347
1725631411256804400,11.717804443359375,-0.4633752405643463,0.3514753580093384,-0.03546519577503204
1725631411266757400,11.72775732421875,-0.40898072719573975,0.3046087622642517,-0.19483700394630432
1725631411276710100,11.737710205078125,-0.4083866775035858,0.2437448352575302,-0.3623785972595215
1725631411286663200,11.7476630859375,-0.4447776973247528,0.1584126204252243,-0.42972007393836975
1725631411296616200,11.7576162109375,-0.4968121647834778,0.17936570942401886,-0.33926209807395935
1725631411306569200,11.7675693359375,-0.5560190081596375,0.26692482829093933,-0.1585325300693512
1725631411316521200,11.777521240234375,-0.5757691264152527,0.32943350076675415,0.03663485497236252
1725631411326474200,11.78747412109375,-0.585518479347229,0.3156907856464386,0.14156392216682434
1725631411336427300,11.79742724609375,-0.5909414291381836,0.28763633966445923,0.14161266386508942
1725631411346380300,11.80738037109375,-0.5857408046722412,0.1184915229678154,0.12284483760595322
1725631411356333300,11.817333251953125,-0.6105383038520813,0.045970309525728226,0.12202963978052139
1725631411366286300,11.827286376953126,-0.6333639621734619,-0.07834871113300323,0.09663773328065872
1725631411376238300,11.83723828125,-0.6336401700973511,-0.11849146336317062,0.15689654648303986
1725631411386191400,11.84719140625,-0.6824654936790466,-0.03597821667790413,0.22634007036685944
1725631411396144000,11.85714404296875,-0.7556087970733643,-0.024645600467920303,0.24325966835021973
1725631411406097200,11.86709716796875,-0.827957034111023,0.07339148223400116,0.35550975799560547
1725631411416050200,11.87705029296875,-0.8972640633583069,0.18213360011577606,0.44636085629463196
1725631411426003200,11.887003173828125,-0.8893164396286011,0.253915935754776,0.4947070777416229
1725631411435955200,11.896955078125,-0.8081619739532471,0.2323596179485321,0.4053281843662262
1725631411445908200,11.906908203125,-0.7094311118125916,0.06310109794139862,0.23124827444553375
1725631411455861200,11.916861328125,-0.682123601436615,-0.0644390881061554,0.15326213836669922
1725631411465814300,11.926814208984375,-0.7266274094581604,0.14092925190925598,0.26312923431396484
1725631411475767000,11.93676708984375,-0.8105535507202148,0.31614387035369873,0.3433803915977478
1725631411485720000,11.946719970703125,-0.8691191077232361,0.3703879415988922,0.29502591490745544
1725631411495672300,11.95667236328125,-0.8588942289352417,0.442367285490036,0.22629693150520325
1725631411505625300,11.966625244140625,-0.8004115223884583,0.4730817675590515,0.12840844690799713
1725631411515578400,11.976578369140626,-0.7514621615409851,0.46574726700782776,0.09057875722646713
1725631411525531400,11.986531494140625,-0.7576007843017578,0.5277834534645081,0.2135811150074005
1725631411535484400,11.996484375,-0.8627686500549316,0.4503966271877289,0.22246888279914856
1725631411545436700,12.006436767578125,-0.8746042847633362,0.40328264236450195,0.2554343044757843
1725631411555389700,12.0163896484375,-0.8285267949104309,0.43015044927597046,0.3972894549369812
1725631411565341700,12.026341796875,-0.7659686207771301,0.3560410737991333,0.4839012920856476
1725631411575294700,12.036294677734375,-0.6746321320533752,0.15277458727359772,0.49281516671180725
1725631411585247700,12.046247802734374,-0.6185544729232788,-0.04143590107560158,0.46053072810173035
1725631411595200800,12.05620068359375,-0.5533819198608398,-0.2395271360874176,0.4020479917526245
1725631411605153800,12.06615380859375,-0.4782387316226959,-0.37446659803390503,0.35191822052001953
1725631411615106800,12.07610693359375,-0.3735851049423218,-0.3918759524822235,0.3859821856021881
1725631411625058600,12.08605859375,-0.29110512137413025,-0.2545417845249176,0.517521858215332
1725631411635011600,12.096011474609375,-0.22629885375499725,-0.16865570843219757,0.5936922430992126
1725631411644964600,12.105964599609376,-0.14965787529945374,-0.18941611051559448,0.6319448351860046
1725631411654917600,12.115917724609375,-0.07041262835264206,-0.19630010426044464,0.6674580574035645
1725631411664870700,12.12587060546875,-0.046203963458538055,-0.23338009417057037,0.666960597038269
1725631411674823700,12.13582373046875,-0.03338800370693207,-0.3485379219055176,0.6278177499771118
1725631411684776700,12.145776611328126,-0.046857208013534546,-0.43487119674682617,0.5780408382415771
1725631411694728700,12.155728759765625,-0.060669638216495514,-0.3567565083503723,0.6488034129142761
1725631411704681700,12.165681640625,-0.06840053200721741,-0.42370089888572693,0.5674222707748413
1725631411714634800,12.175634765625,-0.08330883085727692,-0.4412785768508911,0.5404434204101562
1725631411724587800,12.185587890625,-0.011097218841314316,-0.36847439408302307,0.4873567521572113
1725631411734540800,12.195540771484374,0.08100400865077972,-0.3113521933555603,0.5086130499839783
1725631411744493800,12.205493896484375,0.2140941619873047,-0.2432708889245987,0.5720833539962769
1725631411754445800,12.21544580078125,0.20865650475025177,-0.31465864181518555,0.5668001770973206
1725631411764398800,12.22539892578125,0.2005154937505722,-0.4702013432979584,0.4689095616340637
1725631411774351600,12.2353515625,0.21190054714679718,-0.5731110572814941,0.38986828923225403
1725631411784304600,12.2453046875,0.23363593220710754,-0.676311731338501,0.3027288615703583
1725631411794257700,12.255257568359376,0.2744360864162445,-0.7827149033546448,0.2937023341655731
1725631411804210700,12.265210693359375,0.3400004506111145,-0.6114118695259094,0.3808838427066803
1725631411814162700,12.27516259765625,0.3856469988822937,-0.46841952204704285,0.386918306350708
1725631411824115700,12.28511572265625,0.4623740017414093,-0.45997411012649536,0.3231313228607178
1725631411834068700,12.29506884765625,0.5093880295753479,-0.41332805156707764,0.22741787135601044
1725631411844021800,12.305021728515625,0.510711133480072,-0.39913180470466614,0.05905494466423988
