time,seconds_elapsed,z,y,x
1725891640685035800,0.031035888671875,0,0,0
1725891640703884500,0.049884521484375,0.4573378562927246,-0.05960512161254883,0.7032618522644043
1725891640722733600,0.068733642578125,1.494898796081543,-0.5718075037002563,0.6223849058151245
1725891640741582300,0.087582275390625,1.8189096450805664,-0.46009695529937744,0.38199007511138916
1725891640760431400,0.106431396484375,2.1156044006347656,-0.42565691471099854,0.07580872625112534
1725891640779280400,0.1252802734375,2.02313232421875,-0.5143213868141174,-0.16964659094810486
1725891640798129200,0.144129150390625,1.5988025665283203,-0.35617005825042725,-0.39146602153778076
1725891640816978200,0.162978271484375,1.1507625579833984,0.064658522605896,-0.17463266849517822
1725891640835827200,0.1818271484375,0.8181247711181641,0.39241719245910645,-0.06014657020568848
1725891640854676000,0.200676025390625,0.5296525955200195,0.072715163230896,0.42945802211761475
1725891640873525000,0.21952490234375,0.6099605560302734,-0.21514534950256348,1.1431770324707031
1725891640892374000,0.2383740234375,0.6279497146606445,-0.3831052780151367,0.9449869394302368
1725891640911222800,0.257222900390625,0.8133659362792969,0.23347234725952148,0.35841619968414307
1725891640930071800,0.27607177734375,0.1836261749267578,-0.3232688307762146,0.8231914043426514
1725891640948920600,0.294920654296875,-0.10926055908203125,0.004548966884613037,1.8374390602111816
1725891640967769600,0.31376953125,-0.04809856414794922,0.04855161905288696,2.0872371196746826
1725891640986618400,0.332618408203125,-0.2649421691894531,0.35171496868133545,1.4466660022735596
1725891641005467400,0.35146728515625,-0.4680805206298828,0.4298135042190552,0.8930490016937256
1725891641024316400,0.37031640625,-0.9515247344970703,0.630699872970581,0.6258149147033691
1725891641043165400,0.38916552734375,-1.4893627166748047,0.9502149820327759,0.3770928382873535
1725891641062014200,0.40801416015625,-0.832188606262207,1.1050074100494385,0.027115821838378906
1725891641080863200,0.42686328125,-1.3470754623413086,0.5648553371429443,-0.36519575119018555
1725891641099712000,0.4457119140625,-0.8897209167480469,1.225602388381958,-0.8722929954528809
1725891641118561000,0.46456103515625,0.33272266387939453,1.3658535480499268,-0.4966249465942383
1725891641137410000,0.48341015625,0.13564491271972656,0.9852941036224365,-0.48916149139404297
1725891641156258800,0.5022587890625,-0.3156852722167969,1.1778295040130615,-0.9460067749023438
1725891641175107800,0.52110791015625,0.28762340545654297,-0.12343144416809082,-1.0348684787750244
1725891641193956600,0.53995654296875,0.7382173538208008,0.8388519287109375,-2.0260813236236572
1725891641212805600,0.5588056640625,0.5352859497070312,0.9998550415039062,-2.4502663612365723
1725891641231654400,0.577654296875,0.31206274032592773,1.7671544551849365,-2.4318785667419434
1725891641250503400,0.59650341796875,1.3758602142333984,3.1594126224517822,-1.5763201713562012
1725891641269352400,0.6153525390625,0.7826008796691895,2.5035197734832764,-1.7169742584228516
1725891641288201200,0.634201171875,0.7470245361328125,0.2710702419281006,-0.5334343910217285
1725891641307050200,0.65305029296875,1.7172389030456543,-0.2341926097869873,0.6008882522583008
1725891641325899300,0.671899169921875,1.8771557807922363,-0.07332754135131836,0.7521390914916992
1725891641344748000,0.690748046875,2.13400936126709,0.07674670219421387,-0.09327363967895508
1725891641363597000,0.70959716796875,2.0156311988830566,0.05708909034729004,-1.4649066925048828
1725891641382446000,0.728446044921875,1.0955605506896973,0.02346956729888916,-1.2621231079101562
1725891641401294800,0.747294921875,0.3881540298461914,-0.215356707572937,-0.7381658554077148
1725891641420143900,0.766143798828125,-1.0448246002197266,-0.9240763187408447,-0.9097375869750977
1725891641438992600,0.78499267578125,-1.6057677268981934,-1.0462663173675537,-0.3901376724243164
1725891641457841700,0.803841552734375,-1.4794883728027344,-0.21648943424224854,-0.8792695999145508
1725891641476690700,0.822690673828125,-1.397648811340332,-0.5756744146347046,-0.4747447967529297
1725891641495539500,0.84153955078125,-1.244882583618164,-0.43252134323120117,-0.5888156890869141
1725891641514388500,0.860388427734375,-1.4876508712768555,-0.22704267501831055,-0.43427085876464844
1725891641533237200,0.8792373046875,-2.0065741539001465,0.1183021068572998,-0.2697467803955078
1725891641552086300,0.898086181640625,-1.5544781684875488,0.3135511875152588,0.24962854385375977
1725891641570935000,0.91693505859375,-1.070657730102539,0.9565935134887695,0.8367447853088379
1725891641589784000,0.9357841796875,-0.958564281463623,0.9733555316925049,1.2842731475830078
1725891641608633000,0.954633056640625,-0.2848696708679199,1.0278494358062744,2.129021167755127
1725891641627481900,0.97348193359375,1.453148365020752,1.18505859375,1.2457990646362305
1725891641646331000,0.992330810546875,2.7725462913513184,3.803715705871582,-2.017761707305908
1725891641665180000,1.011179931640625,2.968876838684082,4.337221622467041,-1.7953824996948242
1725891641684028700,1.030028564453125,0.4878201484680176,1.7119174003601074,-1.0451884269714355
1725891641702877700,1.048877685546875,0.8285412788391113,1.9778928756713867,-1.209245204925537
1725891641721726700,1.067726806640625,2.102266311645508,1.165658950805664,-0.10274744033813477
1725891641740575500,1.086575439453125,2.626431941986084,-0.669947624206543,2.3343257904052734
1725891641759424500,1.105424560546875,-1.4452950954437256,-2.571043014526367,0.7027311325073242
1725891641778273300,1.124273193359375,2.6085991859436035,-1.264474868774414,0.7490200996398926
1725891641797122300,1.143122314453125,2.603214740753174,-2.7250540256500244,1.2398743629455566
1725891641815971000,1.16197119140625,1.3624863624572754,-2.18516206741333,2.041292190551758
1725891641834820000,1.180820068359375,0.07326507568359375,-2.026320457458496,0.9834704399108887
1725891641853669000,1.199669189453125,-1.1955361366271973,-1.947713851928711,0.6413249969482422
1725891641872518000,1.218517822265625,-1.0486857891082764,-1.5714974403381348,1.2256145477294922
1725891641891367000,1.237366943359375,-0.343292236328125,-1.313199520111084,2.24068021774292
1725891641910216000,1.2562158203125,-0.547088623046875,-0.48235511779785156,3.1959891319274902
1725891641929064700,1.275064697265625,-0.022964954376220703,-0.5705370903015137,2.6663966178894043
1725891641947913700,1.293913818359375,-0.7265839576721191,-1.7525978088378906,3.223440647125244
1725891641966762800,1.3127626953125,-0.9815468788146973,-1.261972427368164,3.471318244934082
1725891641985611500,1.331611572265625,-6.143113613128662,-2.2578985691070557,0.2462911605834961
1725891642004460500,1.35046044921875,-8.987701416015625,-2.786466121673584,-0.5209407806396484
1725891642023309300,1.369309326171875,3.523507595062256,-3.1827573776245117,-3.4521689414978027
1725891642042158300,1.388158447265625,6.168790817260742,4.431589603424072,-6.103876113891602
1725891642061007000,1.407007080078125,1.6491422653198242,-0.6518759727478027,-3.001668930053711
1725891642079856000,1.425856201171875,0.28252363204956055,-3.419306516647339,0.8250031471252441
1725891642098705200,1.444705078125,-0.16745424270629883,-4.241343975067139,-0.3874177932739258
1725891642117554000,1.463553955078125,-0.19492530822753906,-2.168102741241455,-3.349703073501587
1725891642136403000,1.48240283203125,-0.9865617752075195,1.3599233627319336,-5.788111686706543
1725891642155251700,1.501251708984375,4.4119553565979,-3.301685333251953,-1.593725562095642
1725891642174100700,1.520100830078125,-2.1455554962158203,-3.2359957695007324,-7.554576396942139
1725891642192949800,1.53894970703125,-1.4527041912078857,-6.2435503005981445,-4.519265174865723
1725891642211798800,1.557798828125,-1.8105411529541016,-5.412437915802002,-1.978163480758667
1725891642230647600,1.5766474609375,-1.3985917568206787,-4.609236717224121,-3.597141981124878
1725891642249496600,1.59549658203125,-1.9855270385742188,-3.910353660583496,3.3799777030944824
1725891642268345300,1.614345458984375,-1.288785457611084,1.7606210708618164,3.5848731994628906
1725891642287194400,1.6331943359375,1.2260854244232178,-0.4402937889099121,2.1604466438293457
1725891642306043400,1.65204345703125,2.0328598022460938,-2.3518905639648438,1.6693754196166992
1725891642324892200,1.67089208984375,3.51979923248291,-3.48895263671875,2.6093316078186035
1725891642343741200,1.6897412109375,11.060744285583496,12.633770942687988,22.3773136138916
1725891642362590000,1.70858984375,4.633796215057373,-2.3273863792419434,2.938734531402588
1725891642381439000,1.72743896484375,6.665012836456299,-3.912057399749756,12.71292495727539
1725891642400287700,1.746287841796875,2.445882797241211,-0.8783068656921387,5.799208641052246
1725891642419136800,1.76513671875,-2.5098118782043457,-0.07411813735961914,-1.2714200019836426
1725891642437985800,1.78398583984375,-4.436483383178711,0.6839771270751953,-6.348058700561523
1725891642456834800,1.802834716796875,-6.981964588165283,5.777514457702637,-5.653529167175293
1725891642475683600,1.82168359375,-2.993572235107422,6.4842915534973145,-1.2154479026794434
1725891642494532600,1.84053271484375,-2.4878201484680176,1.5771327018737793,-1.7424695491790771
1725891642513381400,1.85938134765625,-0.16992712020874023,-4.011110782623291,-2.2474520206451416
1725891642532230400,1.87823046875,1.377955436706543,-1.9390277862548828,-0.6748878955841064
1725891642551079400,1.897079345703125,0.28852367401123047,-1.951676845550537,-0.18435168266296387
1725891642569928000,1.915927978515625,-0.6970796585083008,-1.3560314178466797,-2.3791933059692383
1725891642619392800,1.965392822265625,1.220874309539795,-3.4314613342285156,-3.1633946895599365
1725891642638241500,1.984241455078125,2.956678628921509,-4.120914459228516,-2.2115325927734375
1725891642657090600,2.003090576171875,1.0130658149719238,-5.274675369262695,0.39071130752563477
1725891642675939300,2.021939208984375,-1.4009451866149902,-2.833383798599243,1.922414779663086
1725891642694788400,2.040788330078125,-0.574577808380127,3.6190195083618164,2.696422576904297
1725891642713637400,2.059637451171875,-0.8996133804321289,7.924133777618408,1.4023027420043945
1725891642732486100,2.078486083984375,-3.9875431060791016,1.9387540817260742,-0.1673145294189453
1725891642751335200,2.097335205078125,-0.4748682975769043,1.356882095336914,0.20582151412963867
1725891642770184200,2.11618408203125,1.0732669830322266,-0.04092741012573242,3.631679058074951
1725891642789033000,2.135032958984375,3.796112298965454,-1.463259220123291,1.4252634048461914
1725891642807882000,2.153882080078125,4.28664493560791,-1.7968182563781738,1.6247830390930176
1725891642826730800,2.172730712890625,3.2231175899505615,0.08627700805664062,1.6598162651062012
1725891642845579800,2.191579833984375,0.8665690422058105,4.594452857971191,1.450826644897461
1725891642864428800,2.2104287109375,1.401686668395996,2.929605484008789,2.790508270263672
1725891642883277800,2.22927783203125,2.5081939697265625,-1.0321626663208008,-0.20009613037109375
1725891642902126600,2.248126708984375,0.8608145713806152,-0.600379467010498,0.7888774871826172
1725891642920975600,2.2669755859375,1.083791971206665,0.2076559066772461,0.8872971534729004
1725891642939824400,2.285824462890625,0.21600770950317383,1.5729074478149414,-1.6091945171356201
1725891642958673400,2.30467333984375,-2.0271589756011963,0.1567087173461914,-1.1135239601135254
1725891642977522400,2.3235224609375,-7.519946098327637,-1.0577597618103027,-3.5376341342926025
1725891642996371200,2.34237109375,-8.116535186767578,-1.6042571067810059,-4.930910110473633
1725891643015220200,2.36122021484375,-5.747134208679199,0.5451693534851074,-3.633455991744995
1725891643034069200,2.3800693359375,1.3572585582733154,-0.04429340362548828,-0.6930303573608398
1725891643052918000,2.39891796875,3.8114891052246094,1.9516396522521973,3.763465404510498
1725891643071767000,2.41776708984375,3.935683488845825,5.404469013214111,4.422401428222656
1725891643090616000,2.436615966796875,1.4509387016296387,2.944660186767578,5.159880638122559
1725891643109464800,2.45546484375,-1.641711711883545,1.7212042808532715,-0.9593472480773926
1725891643128313900,2.47431396484375,-0.7208957672119141,1.5125584602355957,-1.8139653205871582
1725891643147163000,2.493162841796875,-0.3294863700866699,-1.4973621368408203,-2.0779643058776855
1725891643166011600,2.51201171875,1.8416762351989746,0.5967602729797363,-1.2006282806396484
1725891643184860700,2.530860595703125,0.02975630760192871,3.156472682952881,0.38399410247802734
1725891643203709700,2.549709716796875,0.8128542900085449,2.3978943824768066,1.7451257705688477
1725891643222558500,2.568558349609375,-3.6076955795288086,3.8362388610839844,-0.9355592727661133
1725891643241407500,2.587407470703125,-0.7823243141174316,1.4375815391540527,-0.18067646026611328
1725891643260256500,2.606256591796875,-0.22207963466644287,0.85693359375,-6.703213214874268
1725891643279105300,2.625105224609375,-0.8862196207046509,-0.19780254364013672,-4.4827117919921875
1725891643297954300,2.643954345703125,1.7791261672973633,-2.478595733642578,0.06242704391479492
1725891643316803300,2.66280322265625,1.9167100191116333,0.3625020980834961,0.6752662658691406
1725891643335652000,2.681652099609375,2.7557897567749023,2.2628540992736816,0.8389263153076172
1725891643354501000,2.700501220703125,3.0299437046051025,-1.878178596496582,-1.009483814239502
1725891643373350100,2.71935009765625,1.2134771347045898,-1.4736018180847168,-2.5330915451049805
1725891643392199000,2.738198974609375,2.1325042247772217,-1.1792716979980469,-0.8280973434448242
1725891643411048000,2.7570478515625,2.9490809440612793,-1.676969051361084,0.058419227600097656
1725891643429897000,2.77589697265625,2.6007044315338135,-0.49965572357177734,1.8310599327087402
1725891643448745700,2.794745849609375,1.9647643566131592,0.6237072944641113,1.3116159439086914
1725891643467594800,2.8135947265625,0.5847630500793457,-0.8057951927185059,0.3704829216003418
1725891643486443800,2.83244384765625,-2.0566627979278564,-2.8356218338012695,0.619354248046875
1725891643505292800,2.851292724609375,-6.428000450134277,-5.955578804016113,1.0767340660095215
1725891643524141600,2.8701416015625,-8.323001861572266,-4.4011149406433105,-0.8901925086975098
1725891643542990600,2.888990478515625,-5.608714580535889,-3.8941149711608887,0.8010163307189941
1725891643561839600,2.907839599609375,-1.7173280715942383,-0.26698827743530273,2.8926825523376465
1725891643580688400,2.9266884765625,3.599881649017334,-1.6704211235046387,5.280582427978516
1725891643599537400,2.945537353515625,6.090160846710205,-2.2684946060180664,4.219076156616211
1725891643618386400,2.964386474609375,5.081343173980713,0.6627321243286133,3.0271902084350586
1725891643637235200,2.983235107421875,3.5644335746765137,0.06003713607788086,2.168031692504883
1725891643656084200,3.002084228515625,0.5777682065963745,0.40333032608032227,1.858881950378418
1725891643674933200,3.020933349609375,-0.2356165051460266,-1.108917236328125,0.8236246109008789
1725891643693782000,3.039781982421875,-0.2069087028503418,-4.167572498321533,0.5646018981933594
1725891643712631000,3.058631103515625,0.7724688053131104,-1.2637414932250977,-1.2889518737792969
1725891643731480000,3.07747998046875,-0.7906851768493652,3.149552822113037,1.057471752166748
1725891643750328800,3.096328857421875,-1.2502880096435547,-1.664003849029541,0.18686866760253906
1725891643769177900,3.115177734375,-3.5879101753234863,3.5535202026367188,-3.0862698554992676
1725891643788027000,3.13402685546875,-2.6715149879455566,4.887296199798584,4.982176780700684
1725891643806876000,3.1528759765625,-3.259979486465454,-5.766118049621582,-0.5274167060852051
1725891643825724700,3.171724609375,1.0219836235046387,-1.8594369888305664,-1.3271126747131348
1725891643844573700,3.19057373046875,2.685600757598877,2.206840991973877,1.06315279006958
1725891643863422700,3.209422607421875,3.739668369293213,0.7911272048950195,-1.1239242553710938
1725891643882271500,3.228271484375,1.2449233531951904,5.299749851226807,0.9790158271789551
1725891643901120500,3.24712060546875,1.4657970666885376,-2.903750419616699,0.7008152008056641
1725891643919969500,3.265969482421875,0.08399483561515808,-2.870400905609131,0.43594837188720703
1725891643938818600,3.284818603515625,1.2013065814971924,-1.4152116775512695,-1.6645331382751465
1725891643957667300,3.303667236328125,1.7385525703430176,-5.634636878967285,-0.9979219436645508
1725891643976516400,3.322516357421875,-2.2525482177734375,-2.3888134956359863,1.6977853775024414
1725891643995365400,3.341365478515625,-2.774780511856079,-1.2972455024719238,3.175220489501953
1725891644014214100,3.360214111328125,-0.6492074728012085,-2.430911064147949,0.3633556365966797
1725891644033063200,3.379063232421875,-0.9381259679794312,1.8006606101989746,0.12104225158691406
1725891644051912200,3.397912109375,-1.49267578125,0.453216552734375,0.5903615951538086
1725891644070761200,3.41676123046875,-0.8112629055976868,1.6372308731079102,-0.17240381240844727
1725891644089610000,3.43560986328125,-0.7389520406723022,0.6763896942138672,0.9457945823669434
1725891644108459000,3.454458984375,-1.1196779012680054,0.11122512817382812,-0.5717654228210449
1725891644127308000,3.47330810546875,-1.0746641159057617,1.9938945770263672,0.48989343643188477
1725891644146156800,3.49215673828125,-1.499997854232788,0.8153352737426758,-0.8032197952270508
1725891644165005800,3.511005859375,-0.9124544858932495,2.1399483680725098,-2.209653854370117
1725891644183854800,3.529854736328125,-1.092518925666809,2.42679500579834,-0.023168563842773438
1725891644202704000,3.548703857421875,-1.4681705236434937,2.986168384552002,-0.7261524200439453
1725891644221552600,3.567552734375,-0.9352178573608398,4.202703952789307,-0.18079137802124023
1725891644240401700,3.586401611328125,1.1112521886825562,0.11167335510253906,-0.6130075454711914
1725891644259250700,3.605250732421875,2.404505491256714,0.8392019271850586,-3.5785012245178223
1725891644278099700,3.624099609375,1.3852975368499756,2.373900890350342,-0.8173890113830566
1725891644296948500,3.642948486328125,0.7724767923355103,-2.10684871673584,-0.580632209777832
1725891644315797500,3.661797607421875,0.4557689428329468,2.283486843109131,-0.6344213485717773
1725891644334646500,3.680646484375,0.30146390199661255,0.9404788017272949,-0.7488298416137695
1725891644353495600,3.69949560546875,-0.620376706123352,-0.6390666961669922,-1.4843897819519043
1725891644372344300,3.71834423828125,-0.5045059323310852,-1.222297191619873,0.10831737518310547
1725891644391193300,3.737193359375,-1.9467881917953491,-1.1464948654174805,-1.074841022491455
1725891644410042400,3.75604248046875,-0.5150225758552551,0.6059474945068359,0.5596146583557129
1725891644428891400,3.774891357421875,0.2596195340156555,0.0005946159362792969,0.22522687911987305
1725891644447740200,3.793740234375,0.10490044951438904,0.28041887283325195,-2.6588497161865234
1725891644466589200,3.812589111328125,1.0032185316085815,-0.9341392517089844,-2.6498732566833496
1725891644485438200,3.831438232421875,0.514067530632019,-0.8263411521911621,-4.096534729003906
1725891644504287200,3.850287353515625,-0.27835163474082947,-1.0819549560546875,-4.976811408996582
1725891644523136000,3.869135986328125,0.7710034847259521,-1.998734951019287,-3.1708428859710693
1725891644541985000,3.887985107421875,2.276688814163208,-0.22136878967285156,-1.2735881805419922
1725891644560834000,3.906833984375,1.3509340286254883,-0.7730832099914551,-0.8677420616149902
1725891644579683000,3.92568310546875,6.1253204345703125,0.808192253112793,2.7305116653442383
1725891644598531800,3.94453173828125,4.188661575317383,-2.1278529167175293,20.23053741455078
1725891644617380900,3.963380859375,-6.890982627868652,1.7300176620483398,1.5561904907226562
1725891644636230000,3.98222998046875,-0.5870581269264221,-5.049808502197266,-6.435624122619629
1725891644655079000,4.001078857421875,0.5173752903938293,-1.2920503616333008,2.0730762481689453
1725891644673927700,4.019927734375,-2.7411797046661377,4.522140979766846,1.9674439430236816
1725891644692776700,4.038776611328125,2.9147322177886963,-13.210612297058105,-3.305666208267212
1725891644711625700,4.057625732421875,11.726165771484375,0.18800640106201172,2.9304447174072266
1725891644730474800,4.076474853515625,4.591512680053711,-1.1423230171203613,5.822196006774902
1725891644749323800,4.09532373046875,-2.7269692420959473,-3.057460308074951,-0.08887720108032227
1725891644768172500,4.114172607421875,-1.7918643951416016,-1.6000032424926758,0.452634334564209
1725891644787021600,4.133021484375,-3.7273142337799072,-2.645016670227051,-1.1658921241760254
1725891644805870600,4.15187060546875,-2.497722625732422,-0.17720794677734375,-0.26038694381713867
1725891644824719600,4.1707197265625,-1.0868607759475708,-2.2856860160827637,-1.661496639251709
1725891644843568600,4.189568603515625,-1.4160358905792236,0.28316259384155273,-1.8029375076293945
1725891644862417400,4.20841748046875,-1.3739029169082642,-0.8105454444885254,-1.2447514533996582
1725891644881266400,4.227266357421875,-6.872330188751221,-10.003767013549805,-2.2664523124694824
1725891644900115500,4.246115478515625,1.1946206092834473,6.105795860290527,-3.296948194503784
1725891644918964500,4.264964599609375,12.237711906433105,22.304180145263672,-1.0100231170654297
1725891644937813500,4.2838134765625,8.98130989074707,40.192047119140625,5.747400283813477
1725891644956662300,4.302662353515625,-18.105592727661133,-26.831348419189453,9.11273193359375
1725891644975511300,4.32151123046875,12.187582015991211,-7.894238471984863,-0.6449747085571289
1725891644994360300,4.3403603515625,2.4407076835632324,7.818273544311523,6.609352111816406
1725891645013209300,4.359209228515625,-9.891525268554688,6.622503280639648,17.108211517333984
1725891645032058400,4.378058349609375,11.366114616394043,-2.4138264656066895,-12.087787628173828
1725891645050907400,4.396907470703125,-0.15253597497940063,-4.073795795440674,5.945737838745117
1725891645069756200,4.415756103515625,5.274363040924072,-3.596297264099121,9.800519943237305
1725891645088605200,4.434605224609375,4.267939567565918,-3.544377326965332,3.7431740760803223
1725891645107454200,4.4534541015625,3.1139607429504395,-3.7344160079956055,2.0164074897766113
1725891645126303200,4.47230322265625,0.30550479888916016,-3.00034761428833,1.4852147102355957
1725891645145152000,4.491152099609375,-0.9748885631561279,-4.548245906829834,1.7239443063735962
1725891645164001000,4.5100009765625,-2.3098597526550293,-6.771526336669922,1.2213335037231445
1725891645182850000,4.52885009765625,-2.237013816833496,-5.856745719909668,0.46306300163269043
1725891645201699000,4.547698974609375,-1.449326992034912,-5.947003364562988,1.124841332435608
1725891645220548000,4.566548095703125,-0.9060109853744507,-7.269463062286377,-0.2922412157058716
1725891645239397000,4.585397216796875,-1.1556488275527954,-8.495720863342285,-1.2956180572509766
1725891645258246100,4.60424609375,-1.2123857736587524,-7.154439926147461,-0.9303388595581055
1725891645277095000,4.623094970703125,-1.7612907886505127,-4.8510308265686035,-0.48109960556030273
1725891645295944000,4.64194384765625,-0.9516892433166504,-3.488715171813965,0.49610674381256104
1725891645314793000,4.66079296875,-0.9984791278839111,-2.767899990081787,0.9362442493438721
1725891645333642000,4.67964208984375,0.6701972484588623,-0.768559455871582,2.3229804039001465
1725891645352491000,4.698490966796875,0.5942258834838867,2.730099678039551,2.448751449584961
1725891645371340000,4.717340087890625,0.10824298858642578,5.608325004577637,1.2838091850280762
1725891645390189000,4.73618896484375,-0.28086090087890625,5.236124038696289,-0.6406456232070923
1725891645409037800,4.755037841796875,0.8021759986877441,3.9243545532226562,0.04097294807434082
1725891645427886800,4.773886962890625,0.04354453086853027,4.827118873596191,-1.7632931470870972
1725891645446736000,4.79273583984375,0.591240644454956,5.335811614990234,-0.7246880531311035
1725891645465585000,4.8115849609375,-1.8474725484848022,7.391883850097656,-1.387850046157837
1725891645484434000,4.830433837890625,-2.612989902496338,5.76418399810791,-1.6835169792175293
1725891645503283000,4.849282958984375,-3.1435279846191406,2.849466323852539,-2.333411693572998
1725891645522132000,4.868132080078125,-2.1368746757507324,0.9446868896484375,-2.0241646766662598
1725891645540980700,4.886980712890625,1.0946135520935059,-0.14176368713378906,0.5279390811920166
1725891645559829800,4.905829833984375,-1.25486421585083,0.7727928161621094,-3.8644511699676514
1725891645578678800,4.9246787109375,1.4252009391784668,0.7218198776245117,-2.2591066360473633
1725891645597527800,4.94352783203125,2.5285463333129883,-0.9411439895629883,-2.44626784324646
1725891645616376800,4.962376953125,3.3255152702331543,-1.6496291160583496,-1.3204572200775146
1725891645635225900,4.981225830078125,1.54197096824646,-0.20914840698242188,-1.37344229221344
1725891645654075000,5.000074951171875,1.061890721321106,-0.43453407287597656,-1.0317217111587524
1725891645672923600,5.018923583984375,0.6690620183944702,-0.6068944931030273,0.22111010551452637
1725891645691772700,5.037772705078125,0.20727646350860596,-0.7087268829345703,1.1927013397216797
1725891645710621700,5.05662158203125,0.6245153546333313,-1.3911151885986328,1.4557976722717285
1725891645729470700,5.075470703125,0.8428671360015869,-1.6139841079711914,1.7186803817749023
1725891645748319700,5.09431982421875,0.8139079809188843,-0.910614013671875,2.022286891937256
1725891645767168800,5.113168701171875,1.1564927101135254,1.6759424209594727,3.320601463317871
1725891645786017800,5.132017822265625,-4.331531047821045,-0.38824892044067383,-4.252018928527832
1725891645804866800,5.15086669921875,-3.4004766941070557,-1.6028165817260742,3.0335693359375
1725891645823715800,5.1697158203125,-3.7629480361938477,-0.09783697128295898,2.112234592437744
1725891645842564600,5.188564697265625,-1.4992668628692627,0.16318035125732422,0.10186481475830078
1725891645861413600,5.20741357421875,0.16044855117797852,0.6240687370300293,-0.5483708381652832
1725891645880262700,5.2262626953125,0.8673131465911865,2.8412270545959473,-1.6632823944091797
1725891645899111700,5.245111572265625,1.6494643688201904,1.4657139778137207,-1.3397560119628906
1725891645917960700,5.263960693359375,2.1569786071777344,2.2810139656066895,1.2655572891235352
1725891645936809700,5.282809814453125,0.758014440536499,1.4098386764526367,1.1595373153686523
1725891645955658800,5.30165869140625,2.262279987335205,1.668431043624878,0.776188850402832
1725891645974507500,5.320507568359375,0.9656763672828674,-0.5144022703170776,1.0604114532470703
1725891645993356500,5.3393564453125,1.3220617771148682,-2.3830206394195557,3.891249656677246
1725891646012205600,5.35820556640625,1.488690972328186,-3.1447222232818604,1.8210134506225586
1725891646031054600,5.3770546875,-2.6597087383270264,1.2015312910079956,-1.0363092422485352
1725891646049903600,5.395903564453125,-1.9127757549285889,1.9772453308105469,-2.719017505645752
1725891646068752600,5.414752685546875,-0.6755832433700562,1.8635966777801514,-2.4574837684631348
1725891646087601700,5.4336015625,-0.6876207590103149,1.063448429107666,-0.20557022094726562
1725891646106450700,5.45245068359375,0.6888127326965332,2.7739667892456055,-0.44475650787353516
1725891646125299700,5.4712998046875,-2.0328378677368164,2.73745059967041,1.4575262069702148
1725891646144148700,5.490148681640625,-2.631199836730957,-0.2736074924468994,3.015897750854492
1725891646162997800,5.508997802734375,-2.831699848175049,-5.8118486404418945,4.200105667114258
1725891646181846500,5.527846435546875,1.505947470664978,-1.5488178730010986,2.695241928100586
1725891646200695600,5.546695556640625,1.3002039194107056,0.44878149032592773,1.002950668334961
1725891646219544600,5.565544677734375,1.1843942403793335,-0.1256580352783203,0.28006458282470703
1725891646238393600,5.5843935546875,-0.8371636867523193,-0.3833889961242676,-1.1484270095825195
1725891646257242600,5.60324267578125,-0.7548775672912598,-0.1570444107055664,-0.16092586517333984
1725891646276091600,5.622091552734375,-1.460014820098877,-0.3340890407562256,-1.8868751525878906
1725891646294940700,5.640940673828125,-0.722637414932251,-0.3294074535369873,-1.335132122039795
1725891646313789700,5.659789794921875,0.8537032604217529,-0.540917158126831,1.2684965133666992
1725891646332638700,5.678638671875,0.674940824508667,-0.82733154296875,0.16390323638916016
1725891646351487700,5.69748779296875,0.6225771903991699,-1.1262831687927246,-1.2565946578979492
1725891646370336800,5.716336669921875,0.1981494426727295,-2.4044852256774902,0.2810659408569336
1725891646389185800,5.735185791015625,-2.0998573303222656,-3.2304859161376953,-0.3073720932006836
1725891646408034800,5.754034912109375,1.0601738691329956,-0.13095855712890625,-0.31333160400390625
1725891646426883800,5.7728837890625,0.7184727191925049,0.8924694061279297,-1.4283294677734375
1725891646445732900,5.79173291015625,0.8240031003952026,0.3256087303161621,-0.6331815719604492
1725891646464581600,5.81058154296875,0.20805788040161133,0.5308060646057129,-1.5360174179077148
1725891646483430700,5.8294306640625,1.1333496570587158,-0.6296582221984863,-2.5299582481384277
1725891646502279700,5.84827978515625,0.17230892181396484,-0.9713139533996582,-2.3040013313293457
1725891646521128700,5.867128662109375,-0.6545438766479492,-1.868943691253662,-0.3174734115600586
1725891646539977700,5.885977783203125,0.36782824993133545,-1.636979579925537,-0.047722816467285156
1725891646558826800,5.90482666015625,0.09939289093017578,-1.6824345588684082,0.5872030258178711
1725891646577675800,5.92367578125,-0.12198376655578613,-0.8178915977478027,-0.23075199127197266
1725891646596524800,5.94252490234375,-1.2635729312896729,-0.7148299217224121,-0.44101428985595703
1725891646615373800,5.961373779296875,-2.0951881408691406,-1.370321273803711,-0.35082483291625977
1725891646634222800,5.980222900390625,-1.5890995264053345,-0.8790416717529297,0.012186050415039062
1725891646653072000,5.99907177734375,-1.0544071197509766,1.104172706604004,-0.08517742156982422
1725891646671921000,6.0179208984375,-0.408003568649292,1.9725635051727295,-0.5575704574584961
1725891646690770000,6.03677001953125,-0.07109570503234863,0.8026890754699707,0.26601219177246094
1725891646709619000,6.055618896484375,0.46048545837402344,1.1599130630493164,-0.4622049331665039
1725891646728468000,6.074468017578125,1.0615994930267334,0.5455780029296875,-0.2403421401977539
1725891646747317000,6.09331689453125,0.7148596048355103,1.2331657409667969,-0.42746686935424805
1725891646766166000,6.112166015625,-0.31421297788619995,0.573944091796875,-0.26645374298095703
1725891646785015000,6.13101513671875,-0.3947477340698242,0.11166000366210938,-0.07795953750610352
1725891646803864000,6.149864013671875,0.26409712433815,-0.37304019927978516,-0.20415449142456055
1725891646822712800,6.168712890625,0.7416353225708008,-1.0603156089782715,-0.5374994277954102
1725891646841561900,6.187561767578125,0.49756956100463867,-0.8308548927307129,-0.3270454406738281
1725891646860411100,6.2064111328125,0.08700013160705566,0.06661558151245117,-0.3332343101501465
1725891646879260200,6.22526025390625,0.6235511302947998,0.1343698501586914,0.056542396545410156
1725891646898109000,6.24410888671875,1.0050019025802612,0.042679786682128906,0.02187347412109375
1725891646916958000,6.2629580078125,1.4511091709136963,-0.19603824615478516,0.3594503402709961
1725891646935807000,6.281806884765625,1.3026095628738403,-0.23901033401489258,0.33513832092285156
1725891646954656000,6.300656005859375,0.6899423599243164,0.3062286376953125,-0.4739241600036621
1725891646973505000,6.319505126953125,1.0622620582580566,0.5987629890441895,-0.6435270309448242
1725891646992354000,6.33835400390625,0.8441917896270752,0.5555815696716309,-0.9522843360900879
1725891647011203000,6.357203125,0.3002738952636719,-0.04271984100341797,-1.33152437210083
1725891647030052000,6.376052001953125,0.14675521850585938,-0.6215739250183105,-1.7121167182922363
1725891647048901000,6.394901123046875,0.09370589256286621,-1.1037101745605469,-1.5058159828186035
1725891647067750100,6.413750244140625,-0.6362278461456299,-1.698521614074707,-1.2718849182128906
1725891647086599200,6.43259912109375,-0.17228007316589355,-1.3302245140075684,-1.0650501251220703
1725891647105448200,6.4514482421875,-0.20780324935913086,-0.31106019020080566,-1.201066493988037
1725891647124297200,6.470297119140625,-0.057019710540771484,-0.430649995803833,-1.0728092193603516
1725891647143146200,6.489146240234375,0.3775937557220459,-0.6716887950897217,-0.9881963729858398
1725891647161995300,6.507995361328125,-0.3828856945037842,-0.7584564685821533,-0.3408470153808594
1725891647180844300,6.52684423828125,0.40287303924560547,-0.6503465175628662,0.06400299072265625
1725891647199693300,6.545693359375,0.30521535873413086,-0.5562255382537842,0.05488109588623047
1725891647218542300,6.564542236328125,-0.03827810287475586,-0.6912837028503418,-0.10223865509033203
1725891647237391400,6.583391357421875,0.14331889152526855,-0.30281496047973633,-0.42990970611572266
1725891647256240400,6.602240478515625,-0.08968234062194824,-0.48760509490966797,-0.3111753463745117
1725891647275089400,6.62108935546875,-0.8436884880065918,-0.3294699192047119,-0.4384469985961914
1725891647293938400,6.6399384765625,-1.3432338237762451,0.05072832107543945,-0.8042058944702148
1725891647312787500,6.658787353515625,-1.3224472999572754,0.15540838241577148,-0.8220705986022949
1725891647331636500,6.677636474609375,-0.919893741607666,0.5324184894561768,-0.7239627838134766
1725891647350485500,6.696485595703125,-0.9179582595825195,0.7972571849822998,-0.8354020118713379
1725891647369334500,6.71533447265625,-0.9019134044647217,2.1389763355255127,-1.0508737564086914
1725891647388183600,6.73418359375,-0.7992022037506104,3.0581183433532715,-0.6598148345947266
1725891647407032600,6.753032470703125,0.18974506855010986,3.147759199142456,-0.24778461456298828
1725891647425881600,6.771881591796875,0.4678500294685364,2.244825601577759,-0.030687332153320312
1725891647444730600,6.790730712890625,1.2381099462509155,0.3860330581665039,0.5432939529418945
1725891647463579600,6.80957958984375,1.2847881317138672,-0.8645367622375488,-0.40741586685180664
1725891647482428700,6.8284287109375,0.3774275779724121,-2.6144895553588867,0.49300146102905273
1725891647501277700,6.847277587890625,0.4897933602333069,-3.084348201751709,1.9296040534973145
1725891647520126700,6.866126708984375,-0.6555613279342651,-1.3125834465026855,1.2963080406188965
1725891647538975700,6.884975830078125,0.4039415717124939,-0.8214659690856934,0.2882509231567383
1725891647557824800,6.90382470703125,0.6747843027114868,0.4640383720397949,-3.135831356048584
1725891647576673800,6.922673828125,0.6233487129211426,-1.4390168190002441,-2.831940174102783
1725891647595522800,6.941522705078125,-0.8126527070999146,-1.477278709411621,-2.3324060440063477
1725891647614371800,6.960371826171875,-1.4910997152328491,-1.668379783630371,-1.8584399223327637
1725891647633220900,6.979220947265625,-0.9765723943710327,-2.208632469177246,-1.1731948852539062
1725891647652070000,6.99806982421875,0.5851725935935974,-0.8005924224853516,-1.8755435943603516
1725891647670919000,7.0169189453125,2.347078800201416,-0.6703248023986816,-1.86021089553833
1725891647689768000,7.035767822265625,2.9903199672698975,-0.42236852645874023,-0.8860149383544922
1725891647708617000,7.054616943359375,2.4697213172912598,-2.0367870330810547,0.6646900177001953
1725891647727466000,7.073466064453125,2.0574567317962646,-1.4153532981872559,1.4183144569396973
1725891647746315300,7.092315185546875,1.2076725959777832,-1.0596542358398438,1.321833610534668
1725891647765164000,7.1111640625,0.2148977518081665,0.23546743392944336,0.43770933151245117
1725891647784013000,7.130012939453125,0.06550455093383789,1.2608585357666016,-1.4636006355285645
1725891647802862300,7.1488623046875,0.3305091857910156,0.7685561180114746,-2.1416797637939453
1725891647821711400,7.16771142578125,-1.0695748329162598,-3.521266460418701,-1.7241108417510986
1725891647840560400,7.186560302734375,3.328482151031494,-4.757500648498535,0.17227745056152344
1725891647859409400,7.205409423828125,-1.8075134754180908,-0.4705085754394531,-0.4522824287414551
1725891647878258400,7.224258544921875,-1.7965621948242188,0.5594511032104492,1.6559572219848633
1725891647897107500,7.243107421875,0.3369259834289551,0.5865373611450195,3.6770124435424805
1725891647915956500,7.26195654296875,0.9110236167907715,2.133350372314453,0.9046034812927246
1725891647934805500,7.280805419921875,1.4473702907562256,2.366844654083252,0.24540138244628906
1725891647953654500,7.299654541015625,0.5615513324737549,1.2652316093444824,0.26283693313598633
1725891647972503600,7.318503662109375,0.09552121162414551,-0.5777702331542969,0.8742222785949707
1725891647991352600,7.3373525390625,-0.7913410663604736,-1.3330559730529785,1.5456838607788086
1725891648010201600,7.35620166015625,-0.22784829139709473,-2.268299102783203,1.5429396629333496
1725891648029050600,7.375050537109375,-0.9946699142456055,-1.5950636863708496,1.9612107276916504
1725891648047899600,7.393899658203125,-0.8456330299377441,-1.8582491874694824,-0.821014404296875
1725891648066748700,7.412748779296875,0.12251567840576172,-1.6238484382629395,-0.9520778656005859
1725891648085597700,7.43159765625,0.6497159004211426,-0.8952007293701172,-1.9180591106414795
1725891648104446700,7.45044677734375,-0.12364721298217773,-0.3606410026550293,-0.6600661277770996
1725891648123295700,7.469295654296875,0.4686708450317383,0.1356983184814453,-0.5027003288269043
1725891648142144800,7.488144775390625,-0.014377593994140625,-0.3164839744567871,-0.5535783767700195
1725891648160993800,7.506993896484375,-0.5461225509643555,-0.4087967872619629,-0.402587890625
1725891648179842800,7.5258427734375,-0.20487689971923828,-0.12622356414794922,-0.9008774757385254
1725891648198691800,7.54469189453125,0.47373437881469727,-0.9894647598266602,-0.8519933223724365
1725891648217540900,7.563540771484375,0.17147111892700195,-0.8053784370422363,-0.8518030643463135
1725891648236390000,7.582389892578125,0.6186223030090332,-0.545417308807373,-1.3256416320800781
1725891648255239000,7.601239013671875,0.15369129180908203,-0.4698152542114258,-1.3781306743621826
1725891648274088000,7.620087890625,0.014386177062988281,-0.32425642013549805,-0.48547792434692383
1725891648292937000,7.63893701171875,0.5262680053710938,-0.10636711120605469,-0.8115789890289307
1725891648311786000,7.657785888671875,0.36744117736816406,-0.04160165786743164,-0.6821677684783936
1725891648330635300,7.67663525390625,0.32625389099121094,-0.8059811592102051,-0.5439720153808594
1725891648349484000,7.695484130859375,-0.12149620056152344,-1.275434970855713,-0.06785392761230469
1725891648368333300,7.714333251953125,0.2056722640991211,-0.5882773399353027,1.1048736572265625
1725891648387182300,7.733182373046875,0.4431924819946289,0.18653059005737305,0.4449501037597656
1725891648406031400,7.75203125,-0.38306093215942383,-0.071563720703125,-1.258141040802002
1725891648424880400,7.77088037109375,0.8787522315979004,-0.23996686935424805,-1.307116985321045
1725891648443729400,7.7897294921875,1.8142905235290527,0.807685136795044,-1.772869348526001
1725891648462578400,7.808578369140625,0.08134794235229492,1.4493680000305176,0.5979194641113281
1725891648481427500,7.827427490234375,0.6691040992736816,1.3389067649841309,0.2798786163330078
1725891648500276500,7.8462763671875,0.17446613311767578,4.809457302093506,1.5566926002502441
1725891648519125500,7.86512548828125,2.8890812397003174,0.6327011585235596,-4.237119674682617
1725891648537974500,7.883974609375,1.0446300506591797,1.3899145126342773,-3.652289867401123
1725891648556823600,7.902823486328125,0.8977656364440918,0.31923890113830566,-1.206286907196045
1725891648575672600,7.921672607421875,0.35651254653930664,0.4083542823791504,-1.487837791442871
1725891648594521600,7.940521484375,0.45482444763183594,-1.0018773078918457,-0.6539835929870605
1725891648613370600,7.95937060546875,-0.11714363098144531,-0.9364914894104004,-2.063100814819336
1725891648632219600,7.9782197265625,-0.26011085510253906,-0.8792448043823242,-2.35831618309021
1725891648651068700,7.997068603515625,-0.22194194793701172,-1.34553861618042,-2.377878427505493
1725891648669917700,8.015917724609375,-0.948338508605957,-1.7688679695129395,-1.3150134086608887
1725891648688766700,8.0347666015625,-0.4237055778503418,-3.0251221656799316,-0.9655065536499023
1725891648707615700,8.05361572265625,1.1481924057006836,-2.6305060386657715,-2.82170033454895
1725891648726464800,8.07246484375,-2.1412353515625,0.21153736114501953,-2.6496267318725586
1725891648745313800,8.091313720703125,-1.1752777099609375,-2.1697988510131836,2.8919448852539062
1725891648764163000,8.1101630859375,0.5696392059326172,-2.258974552154541,-0.4495968818664551
1725891648783011800,8.12901171875,0.3448657989501953,1.4225139617919922,0.40564870834350586
1725891648801861000,8.147861083984376,-0.7542428970336914,2.2163727283477783,2.216360092163086
1725891648820710100,8.166710205078125,-0.8207507133483887,4.532792568206787,4.069162368774414
1725891648839559200,8.18555908203125,0.9162764549255371,3.1608223915100098,4.319924831390381
1725891648858408200,8.204408203125,0.5229675769805908,2.4927356243133545,2.3155155181884766
1725891648877257200,8.22325732421875,0.9347133636474609,1.624704360961914,1.8421931266784668
1725891648896106200,8.242106201171875,0.9361004829406738,-0.46678924560546875,0.46222925186157227
1725891648914955300,8.260955322265625,0.15335988998413086,-2.486362934112549,-0.06111288070678711
1725891648933804300,8.27980419921875,-0.1279149055480957,-4.600799560546875,-1.072533130645752
1725891648952653300,8.2986533203125,-0.47534608840942383,-4.760492324829102,-0.8260307312011719
1725891648971502300,8.31750244140625,0.4234585762023926,-1.6810493469238281,-0.8078436851501465
1725891648990351400,8.336351318359375,-0.35181140899658203,-2.3610730171203613,-0.2595710754394531
1725891649009200400,8.355200439453125,-0.23607492446899414,-2.178262233734131,-0.5111141204833984
1725891649028049400,8.37404931640625,0.20876789093017578,-2.4453768730163574,-0.5204391479492188
1725891649046898400,8.3928984375,0.29840612411499023,-1.5125350952148438,-0.29526519775390625
1725891649065747700,8.411747802734375,0.42993736267089844,-0.8743023872375488,-1.285566806793213
1725891649084596700,8.4305966796875,1.2174513339996338,0.3953089714050293,-1.471076488494873
1725891649103445800,8.44944580078125,1.0973026752471924,0.9140839576721191,-1.084911823272705
1725891649122294800,8.468294677734375,0.6171290874481201,0.1195993423461914,-1.0237560272216797
1725891649141143800,8.487143798828125,0.09347057342529297,0.5664806365966797,-1.684687614440918
1725891649159992800,8.505992919921875,-0.14197921752929688,-1.8248438835144043,-0.9590582847595215
1725891649178841900,8.524841796875,-0.6393036842346191,-6.4008259773254395,-0.25806236267089844
1725891649197691000,8.54369091796875,0.572441577911377,-4.995266914367676,-2.2537755966186523
1725891649216540000,8.562539794921875,-0.8438715934753418,0.10699176788330078,-2.160980224609375
1725891649235389000,8.581388916015625,-0.6658201217651367,3.3233914375305176,-1.493194580078125
1725891649254238000,8.600238037109374,-0.2029280662536621,5.72907829284668,1.6730937957763672
1725891649273087000,8.6190869140625,0.1867680549621582,8.66504955291748,4.400630474090576
1725891649291936000,8.63793603515625,0.9316189289093018,6.020218849182129,5.020766258239746
1725891649310785000,8.656784912109375,1.130014419555664,3.3201112747192383,1.9099478721618652
1725891649329634000,8.675634033203124,-0.5611438751220703,2.959597587585449,2.2584781646728516
1725891649348483300,8.6944833984375,-1.6767024993896484,0.8578438758850098,1.9738965034484863
1725891649367332400,8.713332275390625,-1.7659826278686523,-1.726834774017334,1.0217924118041992
1725891649386181400,8.732181396484375,-2.0137505531311035,-5.189793109893799,0.96051025390625
1725891649405030400,8.751030517578124,-0.498992919921875,-4.404705047607422,2.196267604827881
1725891649423879400,8.76987939453125,0.7264199256896973,-4.117059230804443,0.014865398406982422
1725891649442728400,8.788728515625,1.0208606719970703,-3.0918116569519043,-1.4628968238830566
1725891649461577500,8.807577392578125,0.9200267791748047,-2.402470111846924,-1.2204899787902832
1725891649480426500,8.826426513671874,1.736769199371338,-1.3665566444396973,-1.4640865325927734
1725891649499275500,8.845275634765626,1.3599553108215332,-0.297076940536499,-2.124532699584961
1725891649518124500,8.86412451171875,1.0933518409729004,-0.18779563903808594,-1.8545255661010742
1725891649536973600,8.8829736328125,0.7123594284057617,0.2753176689147949,-2.0725016593933105
1725891649555822600,8.901822509765625,-0.0879826545715332,0.03793621063232422,-0.6718320846557617
1725891649574671600,8.920671630859376,0.38388490676879883,-0.3230257034301758,-0.6861233711242676
1725891649593521000,8.93952099609375,1.7740345001220703,-0.025916576385498047,0.32459592819213867
1725891649612370000,8.958369873046875,1.0170140266418457,1.1651864051818848,-0.46368837356567383
1725891649631219000,8.977218994140625,0.9526767730712891,0.8618972301483154,-0.5518183708190918
1725891649650068000,8.99606787109375,-0.2067127227783203,0.60207200050354,-3.449523448944092
1725891649668917000,9.0149169921875,0.5222759246826172,1.2888517379760742,-3.242579221725464
1725891649687766000,9.03376611328125,-0.3211970329284668,1.010307788848877,-2.7578911781311035
1725891649706615000,9.052614990234375,-1.3715429306030273,1.6415252685546875,-0.3911752700805664
1725891649725464000,9.071464111328124,0.7317495346069336,1.1010875701904297,-1.364344596862793
1725891649744313000,9.09031298828125,0.83697509765625,1.7708210945129395,-2.7561097145080566
1725891649763162000,9.109162109375,0.1306443214416504,1.2463831901550293,-3.589419364929199
1725891649782011100,9.12801123046875,-1.2154979705810547,1.2325623035430908,-2.9223151206970215
1725891649800860200,9.146860107421874,-1.3246994018554688,-0.10272550582885742,-1.9358773231506348
1725891649819709200,9.165709228515626,-1.4777131080627441,-2.1630473136901855,-2.065901756286621
1725891649838558200,9.18455810546875,-1.7045068740844727,-3.79644775390625,0.24603605270385742
1725891649857407500,9.203407470703125,-1.7132501602172852,-5.051977634429932,1.63340425491333
1725891649876256500,9.222256591796874,-1.394747257232666,-4.224752902984619,2.8698482513427734
1725891649895105500,9.24110546875,-1.8411965370178223,-4.361764430999756,3.036433219909668
1725891649913954600,9.25995458984375,-1.659388542175293,-4.355119705200195,2.546135425567627
1725891649932803600,9.278803466796875,-0.3846917152404785,-1.6100406646728516,2.6577706336975098
1725891649951652600,9.297652587890624,0.9753093719482422,-0.20769929885864258,-1.2317628860473633
1725891649970501600,9.316501708984376,0.7257084846496582,-0.49219751358032227,-0.4907517433166504
1725891649989350700,9.3353505859375,2.4087636470794678,-1.3070673942565918,-1.6852264404296875
1725891650008199700,9.35419970703125,0.889049768447876,5.412032604217529,-2.0841197967529297
1725891650027048700,9.373048583984374,3.2893381118774414,5.992834568023682,-1.538581371307373
1725891650045897700,9.391897705078126,1.849700927734375,-1.9518847465515137,0.892214298248291
1725891650064746800,9.410746826171875,0.47476720809936523,-3.177234172821045,0.7734551429748535
1725891650083596000,9.429595947265625,-0.6114087104797363,-2.724702835083008,0.7042932510375977
1725891650102445000,9.448445068359375,0.37830209732055664,-1.3935141563415527,-0.39991283416748047
1725891650121294000,9.467294189453124,0.8499035835266113,-1.1314787864685059,-2.733198642730713
1725891650140143000,9.48614306640625,-0.3151559829711914,-0.12963294982910156,-3.8034472465515137
1725891650158992100,9.5049921875,1.1811189651489258,-1.1936140060424805,-2.092805862426758
1725891650177841200,9.523841064453125,1.025770902633667,5.186347007751465,0.789947509765625
1725891650196690200,9.542690185546874,-0.5656018257141113,11.123408317565918,-2.0628914833068848
1725891650215539200,9.561539306640626,0.6182703971862793,5.812036037445068,-0.17914295196533203
1725891650234388200,9.58038818359375,-0.3884139060974121,-4.857075214385986,1.5039892196655273
1725891650253237200,9.5992373046875,-1.3077712059020996,0.4693722724914551,1.608901023864746
1725891650272086300,9.618086181640624,-1.711660385131836,-4.516970634460449,2.9898910522460938
1725891650290935300,9.636935302734376,-1.474313735961914,1.2801523208618164,1.6815862655639648
1725891650309784600,9.65578466796875,0.09997987747192383,0.04048967361450195,1.143202304840088
1725891650328633600,9.674633544921875,-0.8083181381225586,0.3921971321105957,-2.1063737869262695
1725891650347482600,9.693482666015624,-0.8739404678344727,-0.6078166961669922,-1.9616780281066895
1725891650366331600,9.71233154296875,-1.707104206085205,-2.4204840660095215,-0.20369529724121094
1725891650385180700,9.7311806640625,-1.8402886390686035,-1.8963665962219238,-0.12612295150756836
1725891650404029700,9.75002978515625,-1.1609015464782715,-1.816450595855713,-0.049538612365722656
1725891650422878700,9.768878662109374,-1.742288589477539,-3.2025208473205566,1.9093313217163086
1725891650441727700,9.787727783203126,-1.8993191719055176,-4.287797927856445,2.564662456512451
1725891650460576800,9.80657666015625,-1.5612545013427734,-5.610637664794922,2.577153205871582
1725891650479425800,9.82542578125,0.48904848098754883,-5.98015832901001,0.5814700126647949
1725891650498274800,9.84427490234375,2.211397647857666,-5.056849479675293,-0.6258783340454102
1725891650517123800,9.863123779296876,1.9568300247192383,-3.3975188732147217,0.39267873764038086
1725891650535973000,9.88197314453125,1.475344181060791,-1.666252613067627,-0.6953253746032715
1725891650554822100,9.900822265625,1.7402400970458984,-0.19229459762573242,-2.1194941997528076
1725891650573671200,9.919671142578125,1.8904004096984863,-0.393643856048584,-3.0285801887512207
1725891650592520200,9.938520263671874,2.916781425476074,0.014300346374511719,-4.047312259674072
1725891650611369200,9.957369140625,1.027536392211914,0.20977509021759033,-3.536644458770752
1725891650630218200,9.97621826171875,0.999638557434082,-0.23117327690124512,-3.026609420776367
1725891650649067300,9.9950673828125,1.7839703559875488,0.7230424880981445,-3.3663759231567383
1725891650667916300,10.013916259765624,0.9402275085449219,-0.0843733549118042,-3.97829532623291
1725891650686765300,10.032765380859376,0.9007210731506348,0.5340578556060791,-2.7292590141296387
1725891650705614300,10.0516142578125,0.5554437637329102,2.8365070819854736,-0.17721796035766602
1725891650724463400,10.07046337890625,1.8851170539855957,2.8886988162994385,-0.8174352645874023
1725891650743312400,10.0893125,-0.02682971954345703,4.141373157501221,-0.08375406265258789
1725891650762161400,10.108161376953126,0.6209306716918945,3.422341823577881,0.34401369094848633
1725891650781010700,10.1270107421875,0.9577531814575195,7.283425807952881,-0.4370584487915039
1725891650799859700,10.145859619140625,0.5185165405273438,11.321413040161133,-1.7260441780090332
1725891650818708700,10.164708740234374,1.336191177368164,10.546234130859375,-1.5660834312438965
1725891650837557800,10.183557861328126,2.727863311767578,8.469655990600586,-1.4243073463439941
1725891650856406800,10.20240673828125,2.897562026977539,1.137619972229004,-1.9221551418304443
1725891650875255800,10.221255859375,1.4394583702087402,-5.860450744628906,-0.8739528656005859
1725891650894104800,10.240104736328124,2.75527024269104,-8.52234935760498,0.8270816802978516
1725891650912953900,10.258953857421876,-0.9789700508117676,-7.197935104370117,-1.969968557357788
1725891650931803000,10.277802978515625,-1.890434741973877,-4.488466739654541,-1.1152615547180176
1725891650950652000,10.29665185546875,2.9225101470947266,9.213005065917969,-2.5954391956329346
1725891650969501000,10.3155009765625,-1.2298731803894043,-3.5665369033813477,-2.99965238571167
1725891650988350000,10.334349853515626,1.292201280593872,-9.906536102294922,3.274491310119629
1725891651007199000,10.353198974609375,-3.682434558868408,-6.3677144050598145,0.6230325698852539
1725891651026048000,10.372048095703125,-2.820298671722412,-5.985865116119385,0.54296875
1725891651044897300,10.390897216796875,-0.07172060012817383,-8.422567367553711,2.407301425933838
1725891651063746300,10.409746337890626,-0.9249057769775391,-5.174494743347168,0.5533463954925537
1725891651082595300,10.42859521484375,-0.8268089294433594,-2.1178932189941406,-0.4345974922180176
1725891651101444400,10.4474443359375,0.020069122314453125,-1.2093830108642578,-0.6725482940673828
1725891651120293400,10.46629345703125,0.22131061553955078,-2.795689582824707,-1.1856276988983154
1725891651139142400,10.485142333984374,-0.08052396774291992,-3.731740951538086,-1.240180253982544
1725891651157991400,10.503991455078125,-0.025667667388916016,-2.7034354209899902,-0.5877573490142822
1725891651176840400,10.52284033203125,-0.2589554786682129,-2.396892547607422,-0.45795249938964844
1725891651195689500,10.541689453125,-0.1953411102294922,-1.6461849212646484,-0.12798261642456055
1725891651214538500,10.56053857421875,0.8693332672119141,-0.39379119873046875,0.44837474822998047
1725891651233387500,10.579387451171876,1.4075970649719238,0.5366697311401367,1.1624975204467773
1725891651252236500,10.598236572265625,0.802518367767334,1.977046012878418,1.434417724609375
1725891651271085800,10.6170859375,0.9442386627197266,3.6077914237976074,1.667332649230957
1725891651289934800,10.635934814453124,-0.09281301498413086,2.37162446975708,2.151167869567871
1725891651308783900,10.654783935546876,-0.40808820724487305,2.5938398838043213,1.8814282417297363
1725891651327633000,10.6736328125,0.17059040069580078,1.6482510566711426,1.4025020599365234
1725891651346482000,10.69248193359375,0.37336301803588867,0.2617673873901367,0.2798314094543457
1725891651365331000,10.7113310546875,0.7646818161010742,3.536799192428589,0.21169424057006836
1725891651384180000,10.730179931640626,6.933010101318359,34.61812210083008,4.950432300567627
1725891651403029000,10.749029052734375,0.12448263168334961,3.1041078567504883,-0.4842526912689209
1725891651421878000,10.7678779296875,-5.681253433227539,-5.418070316314697,3.0447959899902344
1725891651440727000,10.78672705078125,-5.780472278594971,-15.096208572387695,2.1113574504852295
1725891651459576000,10.805576171875,-0.9151325225830078,-17.573049545288086,0.42777299880981445
1725891651478425000,10.824425048828125,-0.26813220977783203,-11.834842681884766,-0.5629456043243408
1725891651497274000,10.843274169921875,0.6102962493896484,-5.878596782684326,-2.026871681213379
1725891651516123400,10.862123291015624,2.3693132400512695,-3.891134738922119,-1.3389626741409302
1725891651534972400,10.880972412109376,1.0638251304626465,-3.023040294647217,1.0268707275390625
1725891651553821400,10.899821533203125,1.2224574089050293,-2.849367618560791,2.5309338569641113
1725891651572670500,10.91867041015625,5.489435195922852,-6.788625717163086,0.4747161865234375
1725891651591519500,10.93751953125,4.6837663650512695,3.093851327896118,-2.6334645748138428
1725891651610368500,10.956368408203126,1.6907649040222168,11.64018440246582,-3.6204347610473633
1725891651629217500,10.975217529296875,2.9312939643859863,3.9788742065429688,-2.555626153945923
1725891651648066600,10.994066650390625,2.7127108573913574,0.3431994915008545,-3.0566928386688232
1725891651666915600,11.01291552734375,2.4071249961853027,-0.8104887008666992,-3.018939256668091
1725891651685764600,11.0317646484375,2.4599180221557617,-0.017664432525634766,-2.949002265930176
1725891651704613600,11.050613525390625,2.3820385932922363,0.5377044677734375,-2.1325736045837402
1725891651723462700,11.069462646484375,1.9028444290161133,0.8454101085662842,-1.5480015277862549
1725891651742311700,11.088311767578125,1.9633393287658691,1.1333999633789062,-1.37886643409729
1725891651761160700,11.10716064453125,1.806422233581543,1.6893781423568726,-1.7343677282333374
1725891651780009700,11.126009765625,1.421022891998291,1.5588586330413818,-1.1823115348815918
1725891651798859000,11.14485888671875,2.0840296745300293,1.0220186710357666,-0.7097396850585938
1725891651817708000,11.1637080078125,2.4258737564086914,0.3140244483947754,-0.9370989799499512
1725891651836557000,11.18255712890625,2.225496292114258,0.3509547710418701,-1.1264193058013916
1725891651855406000,11.201406005859376,1.7488856315612793,1.3180773258209229,-0.911184549331665
1725891651874255000,11.220255126953125,1.481367588043213,1.776430368423462,-0.6452476978302002
1725891651893104000,11.239104248046875,0.9579405784606934,1.476165771484375,-0.2196805477142334
1725891651911953200,11.257953125,-0.24393224716186523,0.24788475036621094,-0.2855212688446045
1725891651930802200,11.27680224609375,-0.19361305236816406,-1.0716614723205566,0.11446762084960938
1725891651949651200,11.295651123046875,0.03020763397216797,-2.38718843460083,-0.34865665435791016
1725891651968500200,11.314500244140625,-0.4914431571960449,-2.9185943603515625,-0.4437441825866699
1725891651987349200,11.333349365234374,-1.33848237991333,-3.0365982055664062,-0.4892385005950928
1725891652006198300,11.3521982421875,-2.104062557220459,-2.8862414360046387,0.866124153137207
1725891652025047300,11.37104736328125,-2.5167484283447266,-1.7455739974975586,1.687812089920044
1725891652043896300,11.389896240234375,-2.7978076934814453,-0.34642648696899414,2.4156296253204346
1725891652062745300,11.408745361328124,-2.448699951171875,-0.09991645812988281,2.122199058532715
1725891652081594400,11.427594482421876,-1.9059958457946777,-0.09576272964477539,2.586547374725342
1725891652100443400,11.446443359375,-0.7674479484558105,-0.6631221771240234,2.1389448642730713
1725891652119292400,11.46529248046875,-0.8792271614074707,-1.3130793571472168,0.653362512588501
1725891652138141700,11.4841416015625,-1.1875004768371582,-1.7104730606079102,-0.6816549301147461
1725891652156990700,11.50299072265625,-1.1798734664916992,-1.8816642761230469,-1.3007469177246094
1725891652175839700,11.52183984375,-1.1656708717346191,-1.9898896217346191,-0.13951420783996582
1725891652194688800,11.540688720703125,-1.3380670547485352,-2.2793045043945312,-0.24379634857177734
1725891652213537800,11.559537841796875,-1.2048625946044922,-1.576138973236084,-0.22260332107543945
1725891652232386800,11.57838671875,-0.5146627426147461,-0.9124584197998047,-0.42821264266967773
1725891652251235800,11.59723583984375,-0.03135490417480469,-1.1539335250854492,-0.9155490398406982
1725891652270084900,11.6160849609375,0.2537670135498047,-1.335677146911621,-0.56040358543396
1725891652288934000,11.634933837890625,0.44852209091186523,-1.317298412322998,-0.11438131332397461
1725891652307783000,11.653782958984374,0.08206558227539062,-0.9928803443908691,0.48213696479797363
1725891652326632000,11.6726318359375,-0.5704145431518555,-0.5652680397033691,1.1228604316711426
1725891652345481000,11.69148095703125,-1.190556526184082,-0.30226755142211914,1.7779450416564941
1725891652364330000,11.710330078125,-0.8941178321838379,-0.07560396194458008,2.2004029750823975
1725891652383179000,11.729178955078124,-0.18662786483764648,0.6079177856445312,2.214348316192627
1725891652402028000,11.748028076171876,0.07581806182861328,1.1908378601074219,1.6786749362945557
1725891652420877000,11.766876953125,0.44894886016845703,1.2268409729003906,1.4931325912475586
1725891652439726000,11.78572607421875,0.054938316345214844,0.9690661430358887,1.8211712837219238
1725891652458575000,11.8045751953125,-0.27623939514160156,0.3054780960083008,1.5149474143981934
1725891652477424400,11.82342431640625,0.4417238235473633,-0.7509078979492188,0.6541688442230225
1725891652496273200,11.842273193359375,1.499974250793457,-0.8381438255310059,-0.13745474815368652
1725891652515122200,11.8611220703125,1.74090576171875,0.06783819198608398,-0.614529013633728
1725891652533971500,11.879971435546874,1.4006881713867188,-0.9088559150695801,-0.14432942867279053
1725891652552820500,11.898820556640626,0.7742257118225098,-1.3964056968688965,0.18967068195343018
1725891652571669500,11.91766943359375,1.2678437232971191,-0.08438491821289062,0.06288206577301025
1725891652590518500,11.9365185546875,0.9574236869812012,0.4359421730041504,-0.7027929425239563
1725891652609367600,11.955367431640624,0.8206148147583008,-0.2219541072845459,-1.060449481010437
1725891652628216600,11.974216552734376,0.3822031021118164,-1.2850024700164795,-0.6463274955749512
1725891652647065600,11.993065673828125,0.5965356826782227,-1.1543962955474854,0.2930476665496826
1725891652665914600,12.01191455078125,1.3334698677062988,-0.12076330184936523,-0.28710174560546875
1725891652684763600,12.030763671875,1.4654760360717773,0.5128505229949951,-1.135937213897705
1725891652703612700,12.04961279296875,2.4452314376831055,0.637732744216919,-1.3011809587478638
1725891652722461700,12.068461669921875,2.505469799041748,0.8273895978927612,-1.087518334388733
1725891652741310700,12.087310791015625,3.112253189086914,1.268288254737854,-1.084723711013794
1725891652760159700,12.10615966796875,2.6000585556030273,1.7044965028762817,-1.950337529182434
1725891652779008800,12.1250087890625,1.9620800018310547,2.188455581665039,-1.7640143632888794
1725891652797857800,12.14385791015625,2.9548072814941406,2.0329642295837402,-1.7536333799362183
1725891652816706800,12.162706787109375,3.583001136779785,1.7580654621124268,-2.1541428565979004
1725891652835555800,12.181555908203125,3.28263521194458,1.5077869892120361,-2.3580479621887207
1725891652854404900,12.20040478515625,2.606131076812744,2.023266553878784,-2.5002801418304443
1725891652873254000,12.21925390625,1.4362525939941406,2.705848217010498,-2.1243841648101807
1725891652892103000,12.23810302734375,1.3178739547729492,1.5940420627593994,-1.2165329456329346
1725891652910952000,12.256951904296875,1.6814680099487305,0.3579235076904297,-0.15189242362976074
1725891652929801000,12.275801025390624,0.9063215255737305,-1.0796170234680176,0.4377784729003906
1725891652948650000,12.29464990234375,0.45088863372802734,-2.0222082138061523,1.2104425430297852
1725891652967499000,12.3134990234375,-0.1062154769897461,-2.515448570251465,1.2633213996887207
1725891652986348000,12.33234814453125,-0.37924766540527344,-2.6339011192321777,0.8769726753234863
1725891653005197000,12.351197021484374,-0.8316917419433594,-2.6142072677612305,0.7616977691650391
1725891653024046000,12.370046142578126,-0.926551342010498,-2.8877005577087402,0.6445841789245605
1725891653042895000,12.38889501953125,-1.3682265281677246,-2.7936835289001465,-0.29724812507629395
1725891653061744000,12.407744140625,-1.2245869636535645,-2.52347469329834,0.039895057678222656
1725891653080593200,12.42659326171875,-1.3679962158203125,-2.661787509918213,0.4512636661529541
1725891653099442200,12.445442138671876,-1.3248662948608398,-2.3868908882141113,1.647986888885498
1725891653118291200,12.464291259765625,-1.0246119499206543,-2.5637640953063965,1.9656107425689697
1725891653137140500,12.483140380859375,-1.3415889739990234,-2.2957916259765625,0.47409582138061523
1725891653155989200,12.5019892578125,-0.9826459884643555,-2.4777278900146484,-0.2720973491668701
1725891653174838500,12.520838623046876,-0.8027467727661133,-3.1675195693969727,-0.046437978744506836
1725891653193687600,12.5396875,-0.7422680854797363,-3.0136823654174805,0.5724062919616699
1725891653212536300,12.558536376953125,-1.352795124053955,-2.3002023696899414,0.8069674968719482
1725891653231385600,12.577385498046874,-1.0380444526672363,-1.745732307434082,0.9434034824371338
1725891653250234600,12.596234619140626,-0.8523859977722168,-1.3160643577575684,0.3931262493133545
1725891653269083600,12.615083740234375,-0.36836862564086914,-0.6410102844238281,-0.1013634204864502
1725891653287932700,12.6339326171875,0.048828125,0.4053835868835449,-1.069875717163086
1725891653306781700,12.65278173828125,-0.11018562316894531,1.1932587623596191,-1.6657679080963135
1725891653325630700,12.671630615234376,0.3268256187438965,1.2893099784851074,-0.5445802211761475
1725891653344479700,12.690479736328125,-0.08688974380493164,0.8585605621337891,-0.08497929573059082
1725891653363328800,12.709328857421875,-0.45229578018188477,0.8021988868713379,0.04482722282409668
1725891653382177800,12.728177734375,-0.5292057991027832,0.8011269569396973,0.8151814937591553
1725891653401026800,12.74702685546875,0.003956794738769531,0.6702098846435547,1.722243309020996
1725891653419875800,12.765875732421875,-0.3826904296875,0.47689294815063477,1.8372890949249268
1725891653438724900,12.784724853515625,-0.9762988090515137,-0.19951391220092773,1.6363630294799805
1725891653457574000,12.803573974609375,-1.5077323913574219,-0.951636791229248,1.9639036655426025
1725891653476423000,12.8224228515625,-1.1404986381530762,-1.2099385261535645,2.083264112472534
1725891653495272000,12.84127197265625,0.16969680786132812,-0.29706239700317383,1.255964994430542
1725891653514121000,12.860120849609375,0.8400478363037109,0.10016107559204102,0.5349545478820801
1725891653532970000,12.878969970703125,0.4717721939086914,0.11337518692016602,-0.111724853515625
1725891653551819000,12.897819091796874,1.4568185806274414,-0.6842617988586426,-1.0749768018722534
1725891653570668000,12.91666796875,1.527750015258789,-0.24069786071777344,-1.767754316329956
1725891653589517000,12.93551708984375,0.6874475479125977,0.9227471351623535,-2.5190606117248535
1725891653608366000,12.954365966796875,1.3226699829101562,-0.7011961936950684,-1.964443325996399
1725891653627215000,12.973215087890624,1.243398666381836,-1.6884686946868896,-1.8026988506317139
1725891653646064000,12.992064208984376,1.1289758682250977,-1.1669385433197021,-1.250441312789917
1725891653664913200,13.0109130859375,0.21556854248046875,-0.8641223907470703,-0.9998719096183777
1725891653683762200,13.02976220703125,1.1040716171264648,0.32432031631469727,0.13675498962402344
1725891653702611200,13.048611083984374,3.886225700378418,0.35735130310058594,-0.49364256858825684
1725891653721460200,13.067460205078126,2.5997142791748047,1.3983619213104248,-2.3765368461608887
1725891653740309200,13.086309326171875,1.8351936340332031,1.6530805826187134,-1.7309954166412354
1725891653759158300,13.105158203125,4.841480255126953,2.7665224075317383,-0.47265303134918213
1725891653778007300,13.12400732421875,3.111950397491455,2.044355869293213,-2.285332441329956
1725891653796856300,13.142856201171876,0.646458625793457,2.3921804428100586,-2.94545841217041
1725891653815705300,13.161705322265625,2.118237018585205,2.0752463340759277,-0.9055358171463013
1725891653834554400,13.180554443359375,2.817376136779785,1.3707218170166016,-1.6094847917556763
1725891653853403400,13.1994033203125,-0.021528244018554688,1.5440952777862549,-2.2894439697265625
1725891653872252400,13.21825244140625,0.35901975631713867,1.2252864837646484,-1.3411500453948975
1725891653891101400,13.237101318359375,0.23798131942749023,1.5659980773925781,-1.037729263305664
1725891653909950500,13.255950439453125,0.9325542449951172,0.005992412567138672,0.1486072540283203
1725891653928799500,13.274799560546874,2.027024269104004,-1.7849688529968262,-0.7719218730926514
1725891653947648500,13.2936484375,0.9419727325439453,-1.6271018981933594,-0.5997622013092041
1725891653966497500,13.31249755859375,0.9681191444396973,-2.1736063957214355,0.13287115097045898
1725891653985346600,13.3313466796875,1.1378450393676758,-2.6857900619506836,0.6271176338195801
1725891654004195600,13.350195556640625,0.10014820098876953,-2.149487018585205,-1.452728509902954
1725891654023044400,13.36904443359375,-0.7243709564208984,-1.06837797164917,0.19588565826416016
1725891654041893600,13.3878935546875,-2.3174781799316406,-2.500840663909912,0.7479715347290039
1725891654060742700,13.40674267578125,-2.106788158416748,-4.016805648803711,1.433264970779419
1725891654079591400,13.42559130859375,-2.2978010177612305,-4.9486188888549805,2.7137835025787354
1725891654098440400,13.4444404296875,-2.018123149871826,-4.524147987365723,2.146293878555298
1725891654117289500,13.46328955078125,-1.0340557098388672,-3.0220675468444824,1.6113102436065674
1725891654136138500,13.482138427734375,-1.6915349960327148,-1.586352825164795,1.3999159336090088
1725891654154987500,13.500987548828125,-0.8621516227722168,-0.10042762756347656,1.2445454597473145
1725891654173836500,13.51983642578125,-0.9275417327880859,0.34976673126220703,0.6604561805725098
1725891654192685600,13.538685546875,-0.5909762382507324,-0.00400543212890625,0.683199405670166
1725891654211534600,13.55753466796875,-0.5200619697570801,-0.4682474136352539,-0.47788357734680176
1725891654230383600,13.576383544921875,-0.06428384780883789,-0.013278007507324219,-1.1111905574798584
1725891654249232600,13.595232666015624,0.5497288703918457,0.5488219261169434,-0.8332769870758057
1725891654268081700,13.61408154296875,0.2777395248413086,0.07749319076538086,-0.9829998016357422
1725891654286930700,13.6329306640625,-0.10875320434570312,-0.6659560203552246,-0.010176420211791992
1725891654305779700,13.65177978515625,0.0024805068969726562,-1.2296667098999023,0.2909073829650879
1725891654324628700,13.670628662109374,-0.46538543701171875,-0.7070326805114746,0.2058243751525879
1725891654343477800,13.689477783203126,-0.41063547134399414,-0.1986994743347168,1.2272231578826904
1725891654362326800,13.708326904296875,0.1700892448425293,-0.6338601112365723,1.107456922531128
1725891654381175800,13.72717578125,-0.3684854507446289,-0.5081386566162109,1.53513765335083
1725891654400024800,13.74602490234375,-0.7281088829040527,-0.7056045532226562,2.1573917865753174
1725891654418873900,13.764873779296876,0.16902828216552734,-1.1183104515075684,2.0096547603607178
1725891654437723000,13.783722900390625,0.8989424705505371,-1.0768065452575684,1.3447887897491455
1725891654456572000,13.802572021484375,0.9887876510620117,-0.9478569030761719,1.3877367973327637
1725891654475421000,13.8214208984375,0.6749143600463867,-1.2755050659179688,1.6616802215576172
1725891654494270000,13.84027001953125,0.7360043525695801,-1.665041446685791,1.5718793869018555
1725891654513119000,13.859118896484375,1.2875337600708008,-0.9530234336853027,0.830930233001709
1725891654531968000,13.877968017578125,0.9510493278503418,0.15914344787597656,-0.2649562358856201
1725891654550817000,13.896817138671874,0.9162936210632324,1.0795514583587646,-0.7118781805038452
1725891654569666000,13.915666015625,0.30243873596191406,2.4415459632873535,-1.4719525575637817
1725891654588515000,13.93451513671875,-0.3735532760620117,0.782780647277832,-0.7362734079360962
1725891654607364000,13.953364013671875,1.1630549430847168,-1.585294246673584,-0.10805976390838623
1725891654626213000,13.972213134765624,2.531667709350586,-1.6714348793029785,-0.6037160158157349
1725891654645062100,13.991062255859376,2.2816457748413086,0.1369175910949707,-0.8479074835777283
1725891654663911000,14.009910888671875,1.8877615928649902,0.42711806297302246,-0.41882503032684326
1725891654682760000,14.028760009765625,1.8606934547424316,0.6472127437591553,-0.9145448803901672
1725891654701609000,14.04760888671875,3.1612892150878906,1.2292693853378296,-0.5625411868095398
1725891654720458000,14.0664580078125,4.463232040405273,1.732012152671814,-0.6816367506980896
1725891654739307000,14.08530712890625,3.02603816986084,2.2443161010742188,-1.7900054454803467
1725891654758156000,14.104156005859375,1.9503874778747559,2.0410947799682617,-1.522430419921875
1725891654777005000,14.123005126953124,1.9713830947875977,1.854601263999939,-1.4257982969284058
1725891654795854000,14.14185400390625,1.2122507095336914,2.1916544437408447,-1.003536343574524
1725891654814703000,14.160703125,1.6337690353393555,1.6734325885772705,-0.9756399393081665
1725891654833552100,14.17955224609375,2.1642050743103027,1.8960447311401367,-1.7873178720474243
1725891654852401200,14.198401123046875,1.441235065460205,1.7134485244750977,-2.1245391368865967
1725891654871250200,14.217250244140626,1.251065731048584,1.4811794757843018,-0.5218825340270996
1725891654890099200,14.23609912109375,1.262413501739502,0.42290258407592773,0.7176287174224854
1725891654908948200,14.2549482421875,1.677900791168213,-0.8905854225158691,0.7428097724914551
1725891654927797200,14.27379736328125,0.9910216331481934,-2.133802890777588,0.4070732593536377
1725891654946646300,14.292646240234374,0.7859234809875488,-2.6306614875793457,1.271726369857788
1725891654965495300,14.311495361328125,0.4996771812438965,-2.566628932952881,1.5637240409851074
1725891654984344300,14.33034423828125,-0.5824141502380371,-1.8182659149169922,0.9110002517700195
1725891655003193300,14.349193359375,-1.7328906059265137,-2.541290760040283,1.218541145324707
1725891655022042000,14.3680419921875,-1.7546772956848145,-4.024945259094238,1.6777806282043457
1725891655040891100,14.38689111328125,-1.1825122833251953,-3.2087268829345703,1.2149498462677002
1725891655059740200,14.405740234375,-0.8817634582519531,-1.576465129852295,0.04657149314880371
1725891655078589200,14.424589111328125,-1.1034927368164062,-1.3425264358520508,0.33246278762817383
1725891655097438200,14.443438232421874,-0.4589805603027344,-1.9238991737365723,1.5746707916259766
1725891655116287200,14.462287353515626,-0.8881740570068359,-3.2074923515319824,1.0089116096496582
1725891655135136300,14.48113623046875,-2.0374317169189453,-4.195573329925537,0.6800727844238281
1725891655153985300,14.4999853515625,-2.449125289916992,-3.9373984336853027,0.8551301956176758
1725891655172834300,14.518834228515624,-1.9004158973693848,-2.783877372741699,2.0268640518188477
1725891655191683300,14.537683349609376,-2.0194945335388184,-2.2282066345214844,0.8292021751403809
1725891655210532400,14.556532470703125,-0.5191245079040527,-0.7126822471618652,1.811736822128296
1725891655229381400,14.57538134765625,0.7605419158935547,0.6907238960266113,3.256089687347412
1725891655248230400,14.59423046875,0.6233444213867188,0.793818473815918,3.3198206424713135
1725891655267079400,14.613079345703126,1.7970967292785645,1.045809268951416,3.3366429805755615
1725891655285928400,14.631928466796875,3.3834147453308105,1.04644775390625,0.9942460060119629
1725891655304777200,14.650777099609375,3.2181639671325684,1.7629151344299316,0.390735387802124
1725891655323626200,14.669626220703124,0.9146819114685059,1.743969440460205,0.6531798839569092
1725891655342475300,14.688475341796876,-1.0869665145874023,1.3860769271850586,-0.06758880615234375
1725891655361324300,14.70732421875,-0.5966219902038574,0.672630786895752,-0.1334986686706543
1725891655380173300,14.72617333984375,0.08059263229370117,-0.11149406433105469,0.06526041030883789
1725891655399022300,14.745022216796874,0.9881939888000488,-0.1718759536743164,1.3946032524108887
1725891655417871400,14.763871337890626,0.7019543647766113,0.3907346725463867,1.5647697448730469
1725891655436720400,14.782720458984375,-0.786531925201416,0.5782012939453125,1.277503490447998
1725891655455569400,14.8015693359375,-0.6732397079467773,-0.8714079856872559,1.5446038246154785
1725891655474418400,14.82041845703125,1.1260318756103516,-1.874342918395996,0.38875603675842285
1725891655493267500,14.839267333984376,2.098644733428955,-2.0137453079223633,0.06156492233276367
1725891655512116200,14.8581162109375,1.8432846069335938,0.13040971755981445,-0.2013159990310669
1725891655530965200,14.87696533203125,1.5815858840942383,2.58038067817688,-2.032322883605957
1725891655549814300,14.895814208984374,0.9429235458374023,1.5549931526184082,-2.667811155319214
1725891655568663300,14.914663330078126,1.3723206520080566,-1.739130973815918,-1.3878499269485474
1725891655587512300,14.93351220703125,0.17338085174560547,-2.447854518890381,-0.3778034448623657
1725891655606361300,14.952361328125,0.29984092712402344,-2.2973859310150146,0.8056410551071167
1725891655625210400,14.97121044921875,1.6582775115966797,-1.308286190032959,-0.046779632568359375
1725891655644059400,14.990059326171876,1.5540351867675781,0.869896411895752,-1.0599822998046875
1725891655662908400,15.008908447265625,0.9627323150634766,1.8999230861663818,-1.1813993453979492
1725891655681757400,15.02775732421875,0.7862520217895508,1.0052971839904785,-0.31025969982147217
1725891655700606500,15.0466064453125,2.4190001487731934,1.0241127014160156,-0.7238831520080566
1725891655719455200,15.065455322265626,3.1841888427734375,1.5297012329101562,-1.8083407878875732
1725891655738304300,15.08430419921875,3.280785083770752,2.5121865272521973,-3.1713831424713135
1725891655757153300,15.1031533203125,1.7530741691589355,3.8493080139160156,-2.980226516723633
1725891655776002300,15.122002197265624,0.9430885314941406,3.1289875507354736,-2.6476621627807617
1725891655794851300,15.140851318359376,2.4214930534362793,1.991194486618042,-1.6995400190353394
1725891655813700400,15.159700439453125,2.697387218475342,0.9468386173248291,-0.8404347896575928
1725891655832549400,15.17854931640625,1.691460132598877,1.014416217803955,0.054573774337768555
1725891655851398400,15.1973984375,0.9867815971374512,0.5288867950439453,0.21909356117248535
1725891655870247400,15.216247314453126,0.34927892684936523,-0.003871917724609375,-0.39372777938842773
1725891655889096400,15.235096435546875,0.16584491729736328,-0.7159585952758789,1.0271100997924805
1725891655907945500,15.253945556640625,0.5357704162597656,-2.743466377258301,1.8897719383239746
1725891655926794200,15.272794189453125,-0.2933521270751953,-3.4704766273498535,1.3790254592895508
1725891655945643300,15.291643310546876,-0.6058893203735352,-3.2639718055725098,1.257946252822876
1725891655964492300,15.3104921875,-0.875673770904541,-2.9356536865234375,0.9677388668060303
1725891655983341300,15.32934130859375,-1.5825262069702148,-2.025926113128662,1.0102789402008057
1725891656002190300,15.3481904296875,-2.1917381286621094,-1.6006402969360352,0.5189716815948486
1725891656021039400,15.367039306640624,-1.9142203330993652,-1.863171100616455,1.0437397956848145
1725891656039888400,15.385888427734375,-1.398740291595459,-3.4150280952453613,2.5564157962799072
1725891656058737400,15.4047373046875,-1.2760024070739746,-3.3594107627868652,1.9894564151763916
1725891656077586200,15.423586181640625,-0.5630636215209961,-1.0137248039245605,1.3461029529571533
1725891656096435200,15.442435302734374,-0.33832216262817383,-0.44953060150146484,0.7579250335693359
1725891656115284200,15.4612841796875,-0.771613597869873,-0.6169829368591309,-0.09732794761657715
1725891656134133200,15.48013330078125,-0.8019609451293945,-0.6802902221679688,-0.4573092460632324
1725891656152982300,15.498982177734375,-0.5075230598449707,-0.9058213233947754,-0.12503886222839355
1725891656171831300,15.517831298828124,-0.29989147186279297,-1.5436763763427734,-1.4094247817993164
1725891656190680300,15.536680419921876,-0.22603130340576172,-0.7067484855651855,-0.7142243385314941
1725891656209529300,15.555529296875,0.17435121536254883,-0.5791358947753906,-0.041597843170166016
1725891656228378400,15.57437841796875,-0.3068704605102539,-0.7386436462402344,0.8332436084747314
1725891656247227400,15.593227294921874,-0.04140758514404297,-0.7044692039489746,1.9583282470703125
1725891656266076200,15.612076171875,-0.3934140205383301,-1.0890755653381348,1.5892705917358398
1725891656284925200,15.63092529296875,-0.6967110633850098,-0.549537181854248,0.6368899345397949
1725891656303774200,15.649774169921875,0.10993766784667969,0.24046659469604492,0.15358448028564453
1725891656322623200,15.668623291015624,0.49521589279174805,0.570404052734375,0.19583916664123535
1725891656341472300,15.68747216796875,0.04262733459472656,-0.17527437210083008,1.1729390621185303
1725891656360321300,15.7063212890625,-0.8125123977661133,-1.3997540473937988,1.5593297481536865
1725891656379170300,15.72517041015625,-0.46508359909057617,-1.8680658340454102,1.3468282222747803
1725891656398019300,15.744019287109374,0.6869997978210449,-1.280409336090088,1.3247385025024414
1725891656416868000,15.7628681640625,0.8610448837280273,-1.221102237701416,1.4076919555664062
1725891656435717000,15.781717041015625,0.9298968315124512,-1.4215950965881348,0.8785865306854248
1725891656454566100,15.800566162109375,0.2800731658935547,-1.104759693145752,0.3005506992340088
1725891656473415200,15.819415283203124,0.3649311065673828,-0.8973712921142578,0.636005163192749
1725891656492264200,15.83826416015625,1.5200586318969727,-0.5654282569885254,-0.38132572174072266
1725891656511113200,15.85711328125,1.825918197631836,0.1665940284729004,-1.5904511213302612
1725891656529962200,15.875962158203125,2.2418642044067383,0.9316530227661133,-2.734955310821533
1725891656548811000,15.89481103515625,2.1056370735168457,1.2851107120513916,-3.242518901824951
1725891656567660000,15.913659912109376,2.2556381225585938,0.8343183994293213,-2.855384349822998
1725891656586509000,15.932509033203125,2.565481662750244,0.6957569122314453,-1.792750597000122
1725891656605358000,15.951358154296875,3.3136696815490723,0.7402899265289307,-1.7061973810195923
1725891656624207000,15.97020703125,3.7960543632507324,1.913688063621521,-1.4618760347366333
1725891656643056000,15.98905615234375,3.2410082817077637,2.511892557144165,-2.1712663173675537
1725891656661905200,16.0079052734375,1.7512116432189941,2.8555421829223633,-2.719470500946045
1725891656680754000,16.02675390625,0.7802772521972656,2.6802358627319336,-1.9412111043930054
1725891656699603000,16.04560302734375,0.8826313018798828,1.576501727104187,-0.41582679748535156
1725891656718452000,16.064451904296874,0.9156084060668945,0.7837274074554443,-0.3527357578277588
1725891656737301000,16.083301025390625,0.7624602317810059,0.7470407485961914,0.013064861297607422
1725891656756150000,16.10214990234375,0.7938051223754883,1.562899112701416,-0.23389840126037598
1725891656774999000,16.1209990234375,0.9030170440673828,2.0427944660186768,-0.43105030059814453
1725891656793847800,16.139847900390624,0.4603729248046875,1.796929121017456,-0.6610209941864014
1725891656812696800,16.15869677734375,0.6231813430786133,0.4473886489868164,-0.6077563762664795
1725891656831545900,16.1775458984375,0.8679027557373047,-1.1211986541748047,-0.7027146816253662
1725891656850395000,16.196394775390626,0.8526630401611328,-3.336543560028076,-0.5532548427581787
1725891656869244000,16.215243896484374,0.9059290885925293,-4.847682476043701,-0.1961231231689453
1725891656888093000,16.234093017578125,0.596156120300293,-4.838616847991943,0.3551511764526367
1725891656906941700,16.252941650390625,-0.5177998542785645,-2.6695237159729004,0.07535886764526367
1725891656925790700,16.271790771484376,-0.8388247489929199,-1.112396240234375,0.8734924793243408
1725891656944639700,16.2906396484375,-1.5774974822998047,-0.9472603797912598,1.479332447052002
1725891656963488800,16.30948876953125,-1.219250202178955,-1.171156406402588,2.135223627090454
1725891656982337800,16.328337890625,-1.4006800651550293,-2.205386161804199,1.5167417526245117
1725891657001186800,16.347186767578126,-1.5988435745239258,-2.7194080352783203,0.9236619472503662
1725891657020035800,16.366035888671874,-2.012068748474121,-1.944108486175537,1.0757360458374023
1725891657038884600,16.384884521484373,-1.0489354133605957,-0.9246830940246582,1.3887302875518799
1725891657057733600,16.403733642578125,-0.3493514060974121,-0.44294071197509766,1.0546693801879883
1725891657076582700,16.422582763671876,0.1511383056640625,-0.5447807312011719,1.0223722457885742
1725891657095431700,16.441431640625,0.026762008666992188,-0.5175166130065918,1.0350663661956787
1725891657114280700,16.46028076171875,-0.3238081932067871,-0.0632777214050293,0.3901519775390625
1725891657133129700,16.479129638671875,-0.38871049880981445,0.0000457763671875,0.6732721328735352
1725891657151978500,16.497978515625,-0.28299903869628906,-0.6361346244812012,0.9256556034088135
1725891657170827500,16.51682763671875,0.0007939338684082031,-0.6338539123535156,0.5614359378814697
1725891657189676500,16.535676513671874,0.22827577590942383,0.21786212921142578,0.1973884105682373
1725891657208525600,16.554525634765625,-0.17307615280151367,0.30185747146606445,0.15862107276916504
1725891657227374600,16.57337451171875,-0.2758016586303711,-0.2467198371887207,0.7614305019378662
1725891657246223400,16.592223388671876,0.15891313552856445,-0.7370829582214355,0.8072619438171387
1725891657265072400,16.611072265625,0.13061809539794922,-0.736269474029541,0.9461736679077148
1725891657283921400,16.62992138671875,-0.5522599220275879,-0.7272629737854004,1.3536584377288818
1725891657302770400,16.6487705078125,-1.1609129905700684,-1.5816841125488281,1.80686354637146
1725891657321619500,16.667619384765626,-0.740567684173584,-2.8323140144348145,2.256528615951538
1725891657340468500,16.686468505859374,0.7588653564453125,-3.491447925567627,1.9784440994262695
1725891657359317500,16.7053173828125,1.3700008392333984,-2.3334617614746094,1.751298189163208
1725891657378166300,16.724166259765624,1.247734546661377,-0.654442310333252,1.4879238605499268
1725891657397015300,16.743015380859376,1.2315568923950195,0.36293840408325195,0.3415863513946533
1725891657415864300,16.7618642578125,2.2233376502990723,0.8793051242828369,-0.3156815767288208
1725891657434713300,16.78071337890625,1.7710785865783691,2.2739858627319336,-1.2640963792800903
1725891657453562000,16.79956201171875,2.086033344268799,1.5578114986419678,-1.490612268447876
1725891657472411100,16.8184111328125,1.706690788269043,0.8851466178894043,-1.8243792057037354
1725891657491260200,16.83726025390625,1.667449951171875,-0.17621064186096191,-1.7292993068695068
1725891657510109200,16.856109130859377,1.1982197761535645,-0.8997998237609863,-1.266162395477295
1725891657528958200,16.874958251953124,1.0330352783203125,-0.10254383087158203,-0.6136032342910767
1725891657547807200,16.89380712890625,2.6096549034118652,0.6750612258911133,-1.7201967239379883
1725891657566656000,16.912656005859375,3.4244790077209473,1.3063106536865234,-1.4621918201446533
1725891657585505000,16.931505126953127,1.873021125793457,1.0440733432769775,-1.0981171131134033
1725891657604354000,16.95035400390625,2.6668314933776855,1.235255241394043,-0.7639496326446533
1725891657623203000,16.969203125,2.7564148902893066,1.6187736988067627,-1.484749674797058
1725891657642051800,16.9880517578125,2.034440517425537,2.4940507411956787,-2.0376522541046143
1725891657660900900,17.00690087890625,0.8595213890075684,2.51932954788208,-1.7705323696136475
1725891657679750000,17.02575,1.9120426177978516,1.4569804668426514,-0.6279489994049072
1725891657698599000,17.044598876953124,1.757347583770752,1.1223609447479248,-0.6565406322479248
1725891657717448000,17.063447998046875,1.1475043296813965,1.3003723621368408,-0.39559316635131836
1725891657736297000,17.082296875,0.48929738998413086,1.0780529975891113,-0.38031744956970215
1725891657755145700,17.101145751953126,0.22543573379516602,0.27526187896728516,-0.30344152450561523
1725891657773994800,17.119994873046874,0.5194025039672852,-0.7446818351745605,-0.15691232681274414
1725891657792843800,17.13884375,0.8719229698181152,-1.4799795150756836,-0.019852161407470703
1725891657811692800,17.15769287109375,-0.021692276000976562,-1.7405900955200195,-0.04125237464904785
1725891657830541800,17.176541748046876,-0.5077142715454102,-2.0094428062438965,0.9567859172821045
1725891657849390600,17.195390625,-0.5100903511047363,-3.1246519088745117,1.3932461738586426
1725891657868239600,17.214239501953124,-1.2945971488952637,-3.4382262229919434,1.8114268779754639
1725891657887088600,17.233088623046875,-1.6776394844055176,-2.5079312324523926,1.870868444442749
1725891657905937700,17.251937744140626,-1.8698387145996094,-1.5141706466674805,0.8771665096282959
1725891657924786400,17.270786376953126,-1.5197839736938477,-1.5340666770935059,0.9587666988372803
1725891657943635500,17.289635498046874,-1.4282965660095215,-1.9359707832336426,1.70339035987854
1725891657962484500,17.308484375,-0.9705877304077148,-1.9872746467590332,1.7629804611206055
1725891657981333500,17.32733349609375,-0.6665425300598145,-1.6022629737854004,1.1571588516235352
1725891658000182500,17.3461826171875,-0.3166847229003906,-1.3787837028503418,1.1023492813110352
1725891658019031300,17.36503125,-1.1457386016845703,-1.1933255195617676,0.3505384922027588
1725891658037880300,17.38388037109375,-0.8105607032775879,-0.7135725021362305,0.611248254776001
1725891658056729300,17.402729248046874,-0.3437929153442383,-0.1583704948425293,0.02244400978088379
1725891658075578400,17.421578369140626,0.4129810333251953,0.41219615936279297,-0.3234066963195801
1725891658094427400,17.440427490234374,0.537999153137207,0.0669546127319336,-0.10952925682067871
1725891658113276200,17.459276123046877,0.09879446029663086,-0.21663951873779297,0.7426269054412842
1725891658132125200,17.478125244140625,-0.09022140502929688,-0.6967453956604004,1.0858714580535889
1725891658150974200,17.49697412109375,-0.5160884857177734,-0.7568321228027344,1.5609426498413086
1725891658169823200,17.5158232421875,-0.5355229377746582,-0.970156192779541,0.9988710880279541
1725891658188672000,17.534672119140627,-0.5448226928710938,-0.6538119316101074,0.7900357246398926
1725891658207521000,17.55352099609375,-0.2370615005493164,-0.389650821685791,1.6541399955749512
1725891658226370000,17.5723701171875,0.3492770195007324,-0.7911314964294434,1.8702754974365234
1725891658245219000,17.591218994140625,0.5364513397216797,-0.9903430938720703,1.4661204814910889
1725891658264067800,17.61006787109375,0.24548625946044922,-1.1484389305114746,1.7591702938079834
1725891658282916900,17.628916748046876,0.2137770652770996,-2.0752525329589844,1.7297344207763672
1725891658301766000,17.647765869140624,0.6987051963806152,-2.526291847229004,1.5948894023895264
1725891658320615000,17.666614990234375,0.8270969390869141,-1.6799468994140625,1.740431785583496
1725891658339464000,17.6854638671875,1.9429035186767578,-1.0154504776000977,0.6702299118041992
1725891658358312700,17.704312744140626,1.8039531707763672,1.1167857646942139,-0.490358829498291
1725891658377161700,17.72316162109375,1.2701973915100098,2.1140706539154053,-1.5108153820037842
1725891658396010800,17.7420107421875,0.6018743515014648,1.311279535293579,-2.3611040115356445
1725891658414859800,17.76085986328125,0.29001903533935547,-0.3800520896911621,-1.6476651430130005
1725891658433708500,17.77970849609375,1.1100330352783203,-0.9718453884124756,-0.35787880420684814
1725891658452557600,17.7985576171875,1.1283912658691406,-0.8131067752838135,-0.032918572425842285
1725891658471406600,17.817406494140624,1.9228386878967285,0.259915828704834,-0.2492506504058838
1725891658490255600,17.836255615234375,2.937877655029297,1.7220195531845093,-0.2744419574737549
1725891658509104400,17.8551044921875,4.57774019241333,2.1846113204956055,-0.5957109928131104
1725891658527953400,17.873953369140626,3.454620838165283,2.5795462131500244,-1.6793012619018555
1725891658546802400,17.892802490234374,2.845211982727051,2.309813976287842,-1.860596776008606
1725891658565651500,17.9116513671875,2.1391797065734863,2.416771411895752,-1.9948136806488037
1725891658584500500,17.93050048828125,1.8522238731384277,2.013634443283081,-1.2897361516952515
1725891658603349200,17.949349365234376,1.4342889785766602,1.5517449378967285,-1.170017957687378
1725891658622198300,17.9681982421875,1.4444270133972168,1.3518640995025635,-0.9417552947998047
1725891658641047300,17.98704736328125,1.3976497650146484,1.2251715660095215,-0.735598087310791
1725891658659896000,18.00589599609375,1.6162071228027344,1.2294254302978516,-0.8967227935791016
1725891658678745000,18.0247451171875,0.9448308944702148,0.8671534061431885,-1.0701606273651123
1725891658697594000,18.043593994140625,0.4122962951660156,0.47553062438964844,-0.4884634017944336
1725891658716443100,18.062443115234377,1.033705234527588,-0.5764212608337402,0.6128818988800049
1725891658735292000,18.0812919921875,1.384383201599121,-2.0252599716186523,0.6652069091796875
1725891658754141000,18.100140869140624,0.7032456398010254,-3.0147809982299805,0.21857714653015137
1725891658772990000,18.118989990234375,0.03285551071166992,-2.765564441680908,0.8399202823638916
1725891658791839000,18.1378388671875,-0.3515439033508301,-2.2539758682250977,1.0193817615509033
1725891658810687700,18.156687744140626,-1.2101993560791016,-1.788078784942627,1.1743195056915283
1725891658829536800,18.175536865234374,-1.7224092483520508,-2.220339298248291,2.5350234508514404
1725891658848385800,18.1943857421875,-2.0544300079345703,-2.641695499420166,2.7914321422576904
1725891658867234800,18.21323486328125,-1.4726805686950684,-2.487363815307617,2.1710572242736816
1725891658886083600,18.23208349609375,-1.147681713104248,-2.071371555328369,1.2471327781677246
1725891658904932600,18.2509326171875,-1.0581064224243164,-1.5600056648254395,0.6565215587615967
1725891658923781600,18.26978173828125,-0.9891114234924316,-1.2195897102355957,0.9572091102600098
1725891658942630700,18.288630615234375,-0.5738663673400879,-1.6538500785827637,1.0056500434875488
1725891658961479400,18.3074794921875,-0.6549415588378906,-0.7960371971130371,0.021757841110229492
1725891658980328400,18.326328369140626,-0.17846059799194336,-0.14911174774169922,-0.09901309013366699
1725891658999177500,18.345177490234374,-0.07172346115112305,-0.08006477355957031,-0.8096537590026855
1725891659018026500,18.364026611328125,-0.1513843536376953,-0.22745704650878906,-0.7471482753753662
1725891659036875300,18.382875244140624,-0.4540438652038574,-0.5038342475891113,0.08907055854797363
1725891659055724300,18.401724365234376,-0.5289068222045898,-0.7883553504943848,0.601677417755127
1725891659074573300,18.4205732421875,-0.1622791290283203,-0.8508996963500977,0.8214097023010254
1725891659093422000,18.439422119140627,-0.043625831604003906,-0.5204944610595703,1.3857438564300537
1725891659112271000,18.45827099609375,-1.0307531356811523,-0.621891975402832,1.4005239009857178
1725891659131120000,18.4771201171875,-1.2835798263549805,-0.7927846908569336,1.926520824432373
1725891659149969200,18.49596923828125,0.05498552322387695,-0.518132209777832,0.8295688629150391
1725891659168818000,18.51481787109375,-0.28027772903442383,0.05003833770751953,0.8931989669799805
1725891659187667000,18.5336669921875,0.1301431655883789,-0.7682557106018066,2.1666409969329834
1725891659206516000,18.552515869140624,-0.3992762565612793,-2.117504119873047,2.3655805587768555
1725891659225365000,18.571364990234375,0.6366510391235352,-2.139284133911133,2.472179889678955
1725891659244213800,18.5902138671875,0.9071674346923828,-1.567209243774414,1.8680319786071777
1725891659263062800,18.609062744140626,1.0255317687988281,-1.529975414276123,2.0956103801727295
1725891659281911800,18.627911865234374,1.2592239379882812,-1.581197738647461,1.0057880878448486
1725891659300760600,18.646760498046874,1.340550422668457,-0.6912412643432617,-0.10255956649780273
1725891659319609600,18.665609619140625,1.6209306716918945,2.1287693977355957,-1.145984411239624
1725891659338458600,18.684458740234376,1.7879199981689453,2.5979466438293457,-1.657384991645813
1725891659357307600,18.7033076171875,1.901717185974121,1.3752086162567139,-2.214998245239258
1725891659376156400,18.722156494140624,0.9884042739868164,0.20156216621398926,-1.5063602924346924
1725891659395005400,18.74100537109375,1.9306602478027344,-0.863210916519165,-0.0647047758102417
1725891659413854500,18.7598544921875,1.741753101348877,-0.4587695598602295,-0.18711096048355103
1725891659432703200,18.778703125,2.6062679290771484,0.7331035137176514,-0.8779364228248596
1725891659451552300,18.79755224609375,3.355443000793457,2.0433568954467773,-1.5894516706466675
1725891659470401300,18.8164013671875,2.1812219619750977,1.2883306741714478,-0.6835359334945679
1725891659489250000,18.83525,2.268338203430176,1.0812257528305054,-0.5586305856704712
1725891659508099000,18.85409912109375,2.1690773963928223,1.836710810661316,-1.2176567316055298
1725891659526948000,18.872947998046875,1.4895238876342773,2.2606661319732666,-1.3876620531082153
1725891659545797000,18.891797119140627,2.063323497772217,1.4319109916687012,-0.8815954923629761
1725891659564646000,18.91064599609375,2.1977972984313965,1.8480303287506104,-1.203991174697876
1725891659583495000,18.929494873046874,1.8719873428344727,1.853442907333374,-1.2475476264953613
1725891659602344000,18.948343994140625,1.2718472480773926,1.9850599765777588,-1.4147443771362305
1725891659621192700,18.967192626953125,1.0454277992248535,1.8913328647613525,-0.2574577331542969
1725891659640041700,18.986041748046876,1.9470438957214355,0.6297540664672852,0.2402503490447998
1725891659658890800,19.004890869140624,0.5570783615112305,-0.46709108352661133,-0.4210774898529053
1725891659677739500,19.023739501953123,0.8262672424316406,-1.2678265571594238,0.22628450393676758
1725891659696588500,19.042588623046875,0.2871394157409668,-2.5505104064941406,0.15366816520690918
1725891659715437600,19.0614375,-0.5025243759155273,-2.904590606689453,0.9286079406738281
1725891659734286300,19.080286376953126,-0.8264245986938477,-3.136448383331299,1.3327300548553467
1725891659753135400,19.09913525390625,-1.0098066329956055,-2.73549747467041,1.8933708667755127
1725891659771984400,19.117984375,-1.2685461044311523,-1.9050402641296387,1.2811729907989502
1725891659790833400,19.13683349609375,-1.3225502967834473,-1.5078158378601074,0.5151984691619873
1725891659809682200,19.15568212890625,-1.243147850036621,-1.6791553497314453,0.3891868591308594
1725891659828531200,19.17453125,-1.1355743408203125,-1.9669995307922363,1.5428359508514404
1725891659847380200,19.193380126953127,-0.9625973701477051,-2.8215088844299316,2.276204824447632
1725891659866229000,19.21222900390625,-1.0948176383972168,-2.702141284942627,1.7923672199249268
1725891659885078000,19.231078125,-0.9285006523132324,-1.497060775756836,1.007934808731079
1725891659903927000,19.249927001953125,-0.7360339164733887,-0.7368941307067871,0.7424700260162354
1725891659922775800,19.26877587890625,-1.2754554748535156,-0.8863615989685059,-0.3420581817626953
1725891659941624800,19.287624755859376,-1.2147927284240723,-0.9121208190917969,0.32361721992492676
1725891659960473900,19.306473876953124,-0.7383394241333008,-0.5307326316833496,0.45373058319091797
1725891659979322600,19.325322509765623,-0.6663827896118164,-0.043888092041015625,-0.34870362281799316
1725891659998171600,19.344171630859375,0.5035042762756348,0.09119462966918945,-0.3478837013244629
1725891660017020700,19.363020751953126,1.1963982582092285,-0.11758279800415039,-0.12649226188659668
1725891660035869700,19.38186962890625,0.41992998123168945,-0.39433717727661133,-0.13176989555358887
1725891660054718500,19.400718505859373,-1.0865511894226074,-0.4478616714477539,0.4721717834472656
1725891660073567500,19.4195673828125,-1.5215678215026855,-0.7682032585144043,1.271327257156372
1725891660092416500,19.43841650390625,-1.60896635055542,-1.5335297584533691,1.5175573825836182
1725891660111265300,19.457265380859376,-0.5429720878601074,-1.6708064079284668,1.5459222793579102
1725891660130114300,19.4761142578125,0.8469247817993164,-0.9019145965576172,0.7825949192047119
1725891660148963300,19.49496337890625,0.7872500419616699,0.30144309997558594,1.1698691844940186
1725891660167812000,19.51381201171875,0.5982460975646973,-0.4757232666015625,1.5592188835144043
1725891660186661000,19.5326611328125,-0.31687450408935547,-1.975968837738037,1.1727724075317383
1725891660205510000,19.551510009765625,0.5343847274780273,-2.423140525817871,1.1250619888305664
1725891660224359000,19.57035888671875,1.0868029594421387,-1.076341152191162,0.7493207454681396
1725891660243208000,19.5892080078125,0.8850650787353516,0.2595701217651367,-0.45893406867980957
1725891660262056700,19.608056640625,0.6087827682495117,1.4106364250183105,-0.8360669612884521
1725891660280905700,19.62690576171875,1.1714506149291992,1.197746992111206,-0.947646975517273
1725891660299754800,19.645754638671875,1.8678169250488281,-0.00598907470703125,-1.0085606575012207
1725891660318603500,19.664603515625,1.645371437072754,-0.38448357582092285,-1.0828320980072021
1725891660337452500,19.68345263671875,0.9902796745300293,-0.22852087020874023,-1.7694026231765747
1725891660356301600,19.702301513671873,-0.5788173675537109,-0.32003045082092285,-0.9186599254608154
1725891660375150300,19.721150390625,2.553018569946289,-0.5927398204803467,0.2763495445251465
1725891660393999400,19.739999267578124,4.541836261749268,1.5026218891143799,-2.001816987991333
1725891660412848400,19.758848388671876,3.371344566345215,2.115762710571289,-1.9005848169326782
1725891660431697200,19.777697265625,3.7898921966552734,1.971336841583252,-1.9460006952285767
1725891660450546200,19.796546142578126,2.605266571044922,2.1021811962127686,-2.741525411605835
1725891660469395200,19.815395263671874,0.922215461730957,2.330698251724243,-1.7120966911315918
1725891660488244000,19.834243896484374,2.1846470832824707,1.7189234495162964,-1.0092839002609253
1725891660507093000,19.853093017578125,1.2453689575195312,1.9106820821762085,-2.2017288208007812
1725891660525942000,19.87194189453125,0.6825742721557617,1.1588823795318604,-1.6888970136642456
1725891660544790800,19.890790771484376,0.9250760078430176,1.1415314674377441,-1.7301379442214966
1725891660563639800,19.909639892578124,-0.6023769378662109,2.2472147941589355,-0.8609693050384521
1725891660582488600,19.928488525390627,0.3217201232910156,1.467987298965454,0.35913944244384766
1725891660601337600,19.947337646484375,0.9001879692077637,-0.3181591033935547,-0.06567025184631348
1725891660620186600,19.9661865234375,0.7336750030517578,-1.1798934936523438,-0.9512476921081543
1725891660639035400,19.985035400390625,1.243323802947998,-1.3225383758544922,-0.5941524505615234
1725891660657884400,20.003884521484373,0.3116154670715332,-1.8850455284118652,-0.23709559440612793
1725891660676733400,20.0227333984375,-0.791259765625,-1.7427148818969727,0.28360629081726074
1725891660695582200,20.041582275390624,-0.8426375389099121,-2.443714141845703,1.6077334880828857
1725891660714431200,20.06043115234375,-1.1211624145507812,-3.0960512161254883,1.9681806564331055
1725891660733280300,20.0792802734375,-1.3389768600463867,-1.8913664817810059,1.9971578121185303
1725891660752129000,20.09812890625,-1.5936150550842285,-1.5698928833007812,0.5080676078796387
1725891660770978000,20.11697802734375,-1.4007935523986816,-2.0347838401794434,1.578423261642456
1725891660789827000,20.1358271484375,-1.500962257385254,-2.161437511444092,2.11049747467041
1725891660808675800,20.15467578125,-1.0525431632995605,-2.142181873321533,1.970931053161621
1725891660827524900,20.17352490234375,-1.6919159889221191,-2.4879746437072754,0.7707295417785645
1725891660846373600,20.19237353515625,-1.2208061218261719,-1.8536534309387207,0.9882259368896484
1725891660865222700,20.21122265625,-1.1362686157226562,-0.3719353675842285,-0.022861957550048828
1725891660884071700,20.23007177734375,-0.6545515060424805,0.22558307647705078,-0.5137152671813965
1725891660902920400,20.24892041015625,-0.06985712051391602,-0.025342464447021484,-0.13336634635925293
1725891660921769500,20.26776953125,0.5464057922363281,0.15265417098999023,-0.07868146896362305
1725891660940618500,20.286618408203125,0.45903539657592773,0.3826165199279785,0.16463375091552734
1725891660959467300,20.30546728515625,0.250241756439209,0.3120260238647461,-0.7687864303588867
1725891660978316300,20.32431640625,0.49895668029785156,-0.03675508499145508,1.299818515777588
1725891660997165000,20.3431650390625,-0.19369268417358398,-1.5245246887207031,1.3442020416259766
1725891661016014000,20.36201416015625,-0.9731659889221191,-1.7546072006225586,0.42151331901550293
1725891661034863000,20.380863037109375,-0.6925759315490723,-0.17330455780029297,0.5161807537078857
1725891661053712000,20.3997119140625,0.14647340774536133,-0.2579989433288574,1.554398775100708
1725891661072561000,20.418560791015626,-0.36577701568603516,-1.235940933227539,1.507782220840454
1725891661091409700,20.43740966796875,-0.29840564727783203,-1.7561063766479492,0.675973653793335
1725891661110258700,20.4562587890625,-0.1513671875,-1.3053507804870605,0.5756819248199463
1725891661129107700,20.475107666015624,-0.13751220703125,-1.4741473197937012,1.0349888801574707
1725891661147956500,20.49395654296875,0.2351078987121582,-2.032278537750244,0.9472825527191162
1725891661166805500,20.512805419921875,0.1178278923034668,-1.2251958847045898,1.5373921394348145
1725891661185654500,20.531654541015627,0.44523143768310547,-0.06012678146362305,1.626110315322876
1725891661204503300,20.55050341796875,2.48140287399292,-0.1806025505065918,0.5999443531036377
1725891661223352300,20.569352294921874,2.0742712020874023,1.139162540435791,-1.5679007768630981
1725891661242201000,20.588201171875,0.4810142517089844,2.608837604522705,-2.6085073947906494
1725891661261050000,20.607050048828125,1.0008559226989746,0.7781760692596436,-1.1133731603622437
1725891661279899000,20.62589892578125,1.4483180046081543,-0.7233903408050537,-0.3959205150604248
1725891661298748000,20.644747802734376,0.8483028411865234,-0.08563756942749023,-0.6178262233734131
1725891661317597000,20.663596923828123,1.7293181419372559,0.8074793815612793,-0.6340755224227905
1725891661336445700,20.68244580078125,2.0613579750061035,0.721480131149292,-0.8476390838623047
1725891661355294700,20.701294677734374,2.641849994659424,1.6245843172073364,-1.0488494634628296
1725891661374143700,20.720143798828126,2.503929615020752,1.8180452585220337,-1.175251841545105
1725891661392992500,20.738992431640625,2.651012897491455,1.0958750247955322,-0.6603080034255981
1725891661411841500,20.757841552734376,2.5318942070007324,1.7821639776229858,-1.1731452941894531
1725891661430690300,20.776690185546876,2.093367099761963,1.3674557209014893,-1.66410231590271
1725891661449539300,20.795539306640624,0.9332213401794434,2.0741539001464844,-2.023256301879883
1725891661468388000,20.81438818359375,1.232619285583496,2.3824944496154785,0.019888877868652344
1725891661487237000,20.833237060546875,2.1188502311706543,1.7450683116912842,-0.8563828468322754
1725891661506086100,20.852086181640626,0.8314504623413086,2.0428619384765625,-1.8764129877090454
1725891661524935000,20.870934814453125,0.8672113418579102,2.105552911758423,-1.792394995689392
1725891661543784000,20.889783935546873,1.0891871452331543,1.7718796730041504,-1.1263034343719482
1725891661562632700,20.9086328125,1.1944732666015625,0.5292859077453613,-0.5505948066711426
1725891661581481700,20.927481689453124,1.1245112419128418,-1.0561003684997559,0.298478364944458
1725891661600330800,20.946330810546876,0.2754073143005371,-2.128297805786133,0.04884767532348633
1725891661619179500,20.965179443359375,-0.056878089904785156,-2.838414192199707,0.6954467296600342
1725891661638028500,20.984028564453126,-0.570652961730957,-3.8882412910461426,1.1496050357818604
1725891661656877300,21.002877197265626,-1.1882500648498535,-3.7381038665771484,1.4244489669799805
1725891661675726300,21.021726318359374,-1.649261474609375,-2.8713183403015137,1.0736207962036133
1725891661694575400,21.040575439453125,-1.7487578392028809,-2.211423873901367,0.14348626136779785
1725891661713424100,21.059424072265625,-0.8800539970397949,-1.5986328125,0.598224401473999
1725891661732273200,21.078273193359376,-1.3364710807800293,-1.1982316970825195,1.2438950538635254
1725891661751122000,21.097121826171875,-1.2526373863220215,-1.266589641571045,2.6397905349731445
1725891661769971000,21.115970947265627,-1.4591164588928223,-1.9437994956970215,2.3705456256866455
1725891661788819700,21.13481982421875,-0.34716272354125977,-1.5361943244934082,1.6438045501708984
1725891661807668700,21.153668701171874,-0.6443700790405273,-0.7474880218505859,-0.5016353130340576
1725891661826517800,21.172517822265625,-0.3645486831665039,0.09495353698730469,0.14171051979064941
1725891661845366500,21.191366455078125,-0.7796893119812012,-0.6205000877380371,-0.06519150733947754
1725891661864215600,21.210215576171876,-0.8774933815002441,-1.1604413986206055,0.17803645133972168
1725891661883064300,21.229064208984376,-0.7030119895935059,-1.1509819030761719,0.5282378196716309
1725891661901913300,21.247913330078124,-0.42580270767211914,-0.6631293296813965,-0.14274978637695312
1725891661920762000,21.26676220703125,0.3142256736755371,0.0442347526550293,0.7701680660247803
1725891661939611100,21.285611083984374,0.263216495513916,-0.28865718841552734,0.40682053565979004
1725891661958460200,21.304460205078126,-0.22242069244384766,0.22425413131713867,-0.27910876274108887
1725891661977309000,21.323308837890625,-0.3913130760192871,0.22694969177246094,0.12109613418579102
1725891661996158000,21.342157958984377,-0.10513734817504883,-0.7428956031799316,0.022232532501220703
1725891662015006700,21.3610068359375,-0.30086326599121094,-0.9474472999572754,0.3520054817199707
1725891662033855700,21.379855712890624,-0.14314794540405273,-1.0553927421569824,1.1285860538482666
1725891662052704500,21.39870458984375,-1.3883838653564453,-1.38118314743042,1.7200372219085693
1725891662071553500,21.417553466796875,-0.9766378402709961,-2.1687769889831543,2.1530027389526367
1725891662090402300,21.43640234375,-0.574531078338623,-2.9175972938537598,2.348961353302002
1725891662109251300,21.455251220703126,0.8505673408508301,-2.8072543144226074,0.9994451999664307
1725891662128100000,21.47410009765625,0.16638851165771484,-0.7551937103271484,0.39626407623291016
1725891662146949000,21.49294921875,1.4796786308288574,-0.6085948944091797,0.3268866539001465
1725891662165798000,21.5117978515625,1.3308448791503906,1.0615568161010742,-1.2765400409698486
1725891662184647000,21.53064697265625,1.3477411270141602,2.6379988193511963,-1.9451946020126343
1725891662203496000,21.549495849609375,2.094998359680176,1.765906572341919,-1.5825979709625244
1725891662222344700,21.5683447265625,2.126352310180664,1.4166066646575928,-1.1360470056533813
1725891662241193700,21.58719384765625,1.6568384170532227,1.0409622192382812,-1.480163335800171
1725891662260042500,21.60604248046875,0.8033685684204102,0.17099881172180176,-0.7912254333496094
1725891662278891500,21.6248916015625,2.1705827713012695,-0.8037817478179932,-0.6942417621612549
1725891662297740300,21.643740234375,3.1275687217712402,0.9109482765197754,-2.0693013668060303
1725891662316589300,21.66258935546875,2.0066022872924805,1.9515774250030518,-2.337008237838745
1725891662335438000,21.68143798828125,1.7902336120605469,1.1081104278564453,-1.6710288524627686
1725891662354287000,21.700287109375,2.345386505126953,1.0866310596466064,-1.8616383075714111
1725891662373136000,21.719135986328126,1.8147187232971191,1.358400583267212,-1.9085750579833984
1725891662391985000,21.73798486328125,1.6410765647888184,1.854622483253479,-2.368939161300659
1725891662410833700,21.756833740234374,1.0487513542175293,2.0303103923797607,-2.7700183391571045
1725891662429682700,21.7756826171875,0.8912005424499512,1.1595046520233154,-1.8030297756195068
1725891662448531700,21.79453173828125,1.9755825996398926,1.0983257293701172,-1.3282694816589355
1725891662467380500,21.81338037109375,0.9517526626586914,2.0832207202911377,-1.7701560258865356
1725891662486229500,21.8322294921875,0.30556774139404297,2.069955825805664,-1.4876179695129395
1725891662505078300,21.851078369140627,0.34485721588134766,0.8516154289245605,-0.6625826358795166
1725891662523927300,21.86992724609375,0.23500823974609375,-0.5640950202941895,-0.003955364227294922
1725891662542776000,21.888776123046874,-0.023280620574951172,-1.4678163528442383,0.9542713165283203
1725891662561625000,21.907625,-0.23117303848266602,-3.1075801849365234,0.5980625152587891
1725891662580473900,21.926473876953125,-0.8022985458374023,-3.2760238647460938,0.25013089179992676
1725891662599323000,21.945322998046876,-0.5922970771789551,-2.8604602813720703,0.3935978412628174
1725891662618171600,21.964171630859376,-1.393052101135254,-2.613130569458008,-0.08916640281677246
1725891662637020700,21.983020751953124,-2.171182632446289,-2.2419352531433105,0.4786698818206787
1725891662655869400,22.001869384765627,-2.302847385406494,-2.622396945953369,1.6245169639587402
1725891662674718500,22.020718505859374,-2.2853188514709473,-2.7495598793029785,1.4737565517425537
1725891662693567200,22.039567138671874,-1.4980859756469727,-2.0351953506469727,1.4726531505584717
1725891662712416300,22.058416259765625,-0.8479099273681641,-1.759209156036377,1.0692481994628906
1725891662731265000,22.07726513671875,-0.8237347602844238,-1.1514596939086914,0.11912703514099121
1725891662750114000,22.096114013671876,-1.1041555404663086,-0.6016178131103516,0.2586326599121094
1725891662768963000,22.114963134765624,-1.0161457061767578,-0.1640625,0.4691963195800781
1725891662787811800,22.133811767578123,-0.8540105819702148,-0.35379648208618164,1.0514194965362549
1725891662806660600,22.15266064453125,-1.0027446746826172,-0.38822126388549805,0.36113786697387695
1725891662825509600,22.171509521484374,-0.9180912971496582,-0.018355846405029297,0.4834311008453369
1725891662844358700,22.190358642578126,-0.910891056060791,-0.37990617752075195,0.3662564754486084
1725891662863207400,22.20920751953125,-0.4371967315673828,-0.849266529083252,0.16880464553833008
1725891662882056400,22.228056396484376,0.5995669364929199,-0.3841681480407715,-0.12692737579345703
1725891662900905200,22.2469052734375,0.1536698341369629,-0.04415416717529297,-0.35279226303100586
1725891662919754000,22.26575390625,-0.14127111434936523,0.08036994934082031,0.2844579219818115
1725891662938603000,22.28460302734375,-0.4550361633300781,-0.5188126564025879,0.5369901657104492
1725891662957452000,22.3034521484375,-0.3644752502441406,-1.2542195320129395,0.8171391487121582
1725891662976300800,22.32230078125,-0.4629707336425781,-1.7303528785705566,1.5810167789459229
1725891662995149800,22.34114990234375,-0.2831416130065918,-1.851548194885254,1.7736880779266357
1725891663013998600,22.35999853515625,0.23467206954956055,-1.5241694450378418,1.918318510055542
1725891663032847400,22.378847412109376,-0.044287681579589844,-1.5398683547973633,1.7789411544799805
1725891663051696400,22.3976962890625,0.6878290176391602,-2.117663860321045,1.4921813011169434
1725891663070545400,22.41654541015625,0.742560863494873,-1.3725700378417969,1.2060644626617432
1725891663089394200,22.435394287109375,0.7647075653076172,-0.0514683723449707,1.1628797054290771
1725891663108243000,22.454242919921874,1.5914297103881836,0.5321569442749023,0.6161041259765625
1725891663127092000,22.473092041015626,1.0944571495056152,2.144455909729004,-0.8778106570243835
1725891663145941000,22.49194091796875,2.0127744674682617,1.8993608951568604,-1.8113584518432617
1725891663164789800,22.510789794921877,1.5800724029541016,1.2246546745300293,-2.2467312812805176
1725891663183638500,22.529638427734376,1.2180190086364746,-0.2154982089996338,-1.0630593299865723
1725891663202487600,22.548487548828124,1.5230460166931152,-0.42271852493286133,-0.6383301019668579
1725891663221336300,22.56733642578125,1.123842716217041,0.41704535484313965,-0.8440665006637573
1725891663240185300,22.586185302734375,3.90858793258667,0.37534070014953613,-1.2163574695587158
1725891663259034000,22.6050341796875,3.978255271911621,0.9881982803344727,-1.076648235321045
1725891663277883100,22.623883056640626,2.2311949729919434,1.2769628763198853,-0.903914213180542
1725891663296732000,22.64273193359375,2.6421704292297363,1.5391771793365479,-1.4660977125167847
1725891663315581000,22.661580810546877,1.8193187713623047,1.6445952653884888,-1.3362503051757812
1725891663334429700,22.6804296875,2.141343593597412,1.6690819263458252,-1.0308607816696167
1725891663353278700,22.69927880859375,2.0252609252929688,2.348313093185425,-1.5535881519317627
1725891663372127500,22.71812744140625,1.2049307823181152,2.47265625,-2.0708134174346924
1725891663390976500,22.7369765625,1.221611499786377,2.263047218322754,-1.1831245422363281
1725891663409825300,22.7558251953125,2.1817221641540527,1.6460120677947998,-0.3044257164001465
1725891663428674300,22.77467431640625,0.9106664657592773,1.4305610656738281,-0.7462241649627686
1725891663447523000,22.793523193359373,0.252474308013916,0.9171853065490723,0.1859455108642578
1725891663466372000,22.8123720703125,1.43666410446167,-0.5400938987731934,0.5259077548980713
1725891663485220900,22.831220947265624,0.9980440139770508,-1.1584997177124023,0.3209800720214844
1725891663504070000,22.85006982421875,0.5553240776062012,-2.02716064453125,0.3808121681213379
1725891663522918700,22.868918701171875,-0.021665096282958984,-2.476349353790283,0.8534882068634033
1725891663541767400,22.887767333984375,-0.7885246276855469,-2.639033794403076,0.9027729034423828
1725891663560616400,22.906616455078126,-1.285484790802002,-2.7089738845825195,1.8142812252044678
1725891663579465200,22.92546533203125,-1.6665000915527344,-2.7188010215759277,2.4434924125671387
1725891663598314200,22.944314208984373,-1.9740524291992188,-2.1035375595092773,1.7978978157043457
1725891663617163000,22.9631630859375,-1.2761549949645996,-1.610372543334961,1.1422996520996094
1725891663636012000,22.982011962890624,-0.8780746459960938,-1.726243019104004,0.6605441570281982
1725891663654860800,23.00086083984375,-0.6962137222290039,-1.4952969551086426,0.6547727584838867
1725891663673709800,23.019709716796875,-0.6293482780456543,-1.406156063079834,1.292203664779663
1725891663692558600,23.03855859375,-0.4599752426147461,-1.6720776557922363,1.248795986175537
1725891663711407600,23.05740771484375,-0.7835073471069336,-1.3729944229125977,0.3540835380554199
1725891663730256400,23.07625634765625,-0.2950873374938965,-0.3572874069213867,0.4536921977996826
1725891663749105400,23.09510546875,-0.3522758483886719,0.018917560577392578,-0.6626722812652588
1725891663767954200,23.1139541015625,-0.35886049270629883,0.2160172462463379,-0.516878604888916
1725891663786803000,23.132802978515624,-0.27286720275878906,-0.4445762634277344,0.017844676971435547
1725891663805652000,23.15165185546875,-0.4994821548461914,-0.7940735816955566,0.41971731185913086
1725891663824500700,23.170500732421875,-0.4381752014160156,-0.8407797813415527,1.3436779975891113
1725891663843349800,23.189349853515626,-0.48045921325683594,-0.9067282676696777,1.219275951385498
1725891663862198500,23.208198486328126,-0.41992664337158203,-0.7350339889526367,0.9360268115997314
1725891663881047600,23.227047607421873,-0.4094362258911133,-0.6647233963012695,1.0989599227905273
1725891663899896300,23.245896240234377,-0.552915096282959,-0.7727341651916504,1.1511714458465576
1725891663918745300,23.264745361328124,-0.24036455154418945,-0.5544261932373047,0.9162797927856445
1725891663937594000,23.283593994140624,0.30079030990600586,-0.22959184646606445,0.7404830455780029
1725891663956443100,23.302443115234375,0.9932618141174316,-0.21002864837646484,0.7166731357574463
1725891663975292000,23.3212919921875,0.46737241744995117,-0.40755128860473633,0.7810814380645752
1725891663994140700,23.340140625,-0.4011855125427246,-1.1182117462158203,1.7573306560516357
1725891664012989700,23.35898974609375,0.07152223587036133,-2.3765573501586914,2.1870131492614746
1725891664031838500,23.37783837890625,0.23430252075195312,-1.8758149147033691,2.0227038860321045
1725891664050687500,23.3966875,0.588681697845459,-0.6008648872375488,1.7708964347839355
1725891664069536300,23.415536376953124,1.4943108558654785,-0.08301877975463867,1.13780677318573
1725891664088385000,23.434385009765624,0.7359285354614258,1.368168830871582,0.03898966312408447
1725891664107234000,23.453234130859375,1.0299711227416992,1.1854548454284668,-0.7972692251205444
1725891664126082800,23.472082763671875,1.0350160598754883,0.779024600982666,-1.422218918800354
1725891664144931800,23.490931884765626,1.2132925987243652,-0.35648345947265625,-1.3107737302780151
1725891664163780600,23.509780517578125,1.273240089416504,-0.547433614730835,-1.0267508029937744
1725891664182629600,23.528629638671877,1.9681830406188965,0.15546321868896484,-0.5779285430908203
1725891664201478400,23.547478515625,2.5232996940612793,0.7401528358459473,-1.042675256729126
1725891664220327200,23.5663271484375,4.001097679138184,0.8574588298797607,-0.9840596914291382
1725891664239176200,23.58517626953125,3.785515785217285,1.941430687904358,-1.6208568811416626
1725891664258025000,23.60402490234375,2.6084814071655273,2.1287753582000732,-1.7663925886154175
1725891664276874000,23.6228740234375,2.3824524879455566,1.6154747009277344,-1.6655519008636475
1725891664295722800,23.64172265625,2.407353401184082,1.356084942817688,-0.8683236837387085
