time,seconds_elapsed,z,y,x
1725891640703884500,0.049884521484375,-0.09040798991918564,-1.4561488628387451,-1.1981348991394043
1725891640722733600,0.068733642578125,-0.2559523284435272,-0.706923246383667,-1.2033272981643677
1725891640741582300,0.087582275390625,-0.5882627964019775,-1.0835213661193848,-0.9198859930038452
1725891640760431400,0.106431396484375,-0.6224712133407593,-2.0941972732543945,-0.38140869140625
1725891640779280400,0.1252802734375,-0.5681042671203613,-2.704756498336792,0.23312127590179443
1725891640798129200,0.144129150390625,-0.47097674012184143,-2.4686572551727295,0.5718457698822021
1725891640816978200,0.162978271484375,-0.22846342623233795,-1.5538872480392456,0.6521745324134827
1725891640835827200,0.1818271484375,0.06383536756038666,-0.42653632164001465,0.5000692009925842
1725891640854676000,0.200676025390625,0.1893680840730667,-0.02458730712532997,0.06452259421348572
1725891640873525000,0.21952490234375,0.039706211537122726,-0.2860374450683594,-0.41439539194107056
1725891640892374000,0.2383740234375,-0.03481929376721382,-0.5346593856811523,-0.7063887715339661
1725891640911222800,0.257222900390625,-0.003359756199643016,-0.6091849207878113,-0.6621010899543762
1725891640930071800,0.27607177734375,-0.14721840620040894,-0.5334376692771912,-0.5310705900192261
1725891640948920600,0.294920654296875,-0.34727662801742554,-0.0383317656815052,-0.20731224119663239
1725891640967769600,0.31376953125,-0.7293725609779358,0.0694858655333519,0.14912736415863037
1725891640986618400,0.332618408203125,-1.2147046327590942,-0.11194097250699997,0.47410741448402405
1725891641005467400,0.35146728515625,-1.5796962976455688,-0.45158177614212036,0.7270054221153259
1725891641024316400,0.37031640625,-1.628870964050293,-0.5102248191833496,0.9750165343284607
1725891641043165400,0.38916552734375,-1.461493968963623,-0.47357290983200073,1.078558087348938
1725891641062014200,0.40801416015625,-1.1365139484405518,-0.8168789148330688,0.6854666471481323
1725891641080863200,0.42686328125,-0.9239329695701599,-0.8959859013557434,-0.07658717036247253
1725891641099712000,0.4457119140625,-0.7293725609779358,-0.911562979221344,-0.47090038657188416
1725891641118561000,0.46456103515625,-0.5067123174667358,-1.2573124170303345,-0.3181841969490051
1725891641137410000,0.48341015625,-0.5674933791160583,-1.586874008178711,0.0910952091217041
1725891641156258800,0.5022587890625,-0.7889318466186523,-1.9326233863830566,0.4047742784023285
1725891641175107800,0.52110791015625,-1.117577075958252,-2.9940009117126465,0.36506807804107666
1725891641193956600,0.53995654296875,-1.268460750579834,-4.08225679397583,0.2190713882446289
1725891641212805600,0.5588056640625,-1.156672477722168,-4.899899005889893,-0.3765217661857605
1725891641231654400,0.577654296875,-0.618806004524231,-4.24352502822876,-1.1813361644744873
1725891641250503400,0.59650341796875,0.2528980076313019,-3.408472776412964,-1.6993494033813477
1725891641269352400,0.6153525390625,0.952643632888794,-2.178802013397217,-1.806250810623169
1725891641288201200,0.634201171875,1.2192860841751099,-0.7640390992164612,-1.7851759195327759
1725891641307050200,0.65305029296875,1.0470222234725952,-0.08109229803085327,-1.5225040912628174
1725891641325899300,0.671899169921875,0.5558869242668152,0.2808450758457184,-0.8917862176895142
1725891641344748000,0.690748046875,0.15821397304534912,0.291229784488678,-0.06925679743289948
1725891641363597000,0.70959716796875,0.0021380267571657896,-0.2903134822845459,0.5678751468658447
1725891641382446000,0.728446044921875,-0.02871064469218254,-0.7289143800735474,0.950581967830658
1725891641401294800,0.747294921875,0.04001164436340332,-0.9986112117767334,1.0125846862792969
1725891641420143900,0.766143798828125,0.09193515032529831,-0.6281217336654663,0.7386118769645691
1725891641438992600,0.78499267578125,0.3399462401866913,-0.21212279796600342,0.3742310404777527
1725891641457841700,0.803841552734375,0.5500837564468384,0.3013090491294861,0.26916229724884033
1725891641476690700,0.822690673828125,0.7159335017204285,0.5093085169792175,0.4618901312351227
1725891641495539500,0.84153955078125,0.7348703145980835,0.5279398560523987,0.866893470287323
1725891641514388500,0.860388427734375,0.6997455954551697,0.5487092733383179,1.2954151630401611
1725891641533237200,0.8792373046875,0.6887500286102295,0.921336829662323,1.6197843551635742
1725891641552086300,0.898086181640625,0.6291907429695129,1.1210895776748657,1.7505093812942505
1725891641570935000,0.91693505859375,0.4318813979625702,1.1403318643569946,1.7129411697387695
1725891641589784000,0.9357841796875,0.034208428114652634,1.3119847774505615,1.6860631704330444
1725891641608633000,0.954633056640625,-0.6310232877731323,1.098182201385498,1.9178863763809204
1725891641627481900,0.97348193359375,-1.3661991357803345,0.44089165329933167,2.161926746368408
1725891641646331000,0.992330810546875,-1.8270965814590454,-0.09544762223958969,2.420628070831299
1725891641665180000,1.011179931640625,-1.3154972791671753,-1.3449715375900269,2.454836368560791
1725891641684028700,1.030028564453125,-0.8924734592437744,-1.5890120267868042,2.3131158351898193
1725891641702877700,1.048877685546875,-0.537255585193634,-1.5456405878067017,1.8787909746170044
1725891641721726700,1.067726806640625,-0.13775001466274261,-2.3648102283477783,1.1536945104599
1725891641740575500,1.086575439453125,-0.040317077189683914,-2.880380153656006,0.9050725102424622
1725891641759424500,1.105424560546875,-0.17867794632911682,-0.08872810751199722,0.923398494720459
1725891641778273300,1.124273193359375,-0.4156934916973114,0.4992292523384094,1.078863501548767
1725891641797122300,1.143122314453125,-0.8188642263412476,0.5707004070281982,1.627725601196289
1725891641815971000,1.16197119140625,-1.5570943355560303,0.5178605914115906,2.128329277038574
1725891641834820000,1.180820068359375,-1.3628393411636353,0.4280634820461273,1.8949788808822632
1725891641853669000,1.199669189453125,-0.7696896195411682,0.6259836554527283,0.9649372696876526
1725891641872518000,1.218517822265625,-0.31490078568458557,0.9210313558578491,0.06757691502571106
1725891641891367000,1.237366943359375,-0.02932151034474373,1.2997674942016602,-0.17402009665966034
1725891641910216000,1.2562158203125,0.14172062277793884,1.3049598932266235,-0.26137375831604004
1725891641929064700,1.275064697265625,0.3802633285522461,0.726470947265625,-0.5784125924110413
1725891641947913700,1.293913818359375,0.1441640853881836,0.3474293351173401,-1.3936116695404053
1725891641966762800,1.3127626953125,-0.07941242307424545,-0.0746782198548317,-2.6092326641082764
1725891641985611500,1.331611572265625,0.1542433500289917,1.7792963981628418,-3.6709156036376953
1725891642004460500,1.35046044921875,0.37140578031539917,5.521759510040283,-4.231078624725342
1725891642023309300,1.369309326171875,-0.14752385020256042,4.619817733764648,-4.214279651641846
1725891642042158300,1.388158447265625,-0.39767298102378845,1.62199866771698,-1.382005214691162
1725891642061007000,1.407007080078125,-1.4043781757354736,0.5480984449386597,2.2941789627075195
1725891642079856000,1.425856201171875,-3.163363218307495,0.5728384256362915,4.851564407348633
1725891642098705200,1.444705078125,-4.0588908195495605,1.955836296081543,6.660945892333984
1725891642117554000,1.463553955078125,-3.3719735145568848,2.9151995182037354,8.08975887298584
1725891642136403000,1.48240283203125,-0.46975502371788025,3.341277599334717,9.146554946899414
1725891642155251700,1.501251708984375,2.3200645446777344,-2.539823055267334,8.701233863830566
1725891642174100700,1.520100830078125,3.306000232696533,-2.1076362133026123,8.034475326538086
1725891642192949800,1.53894970703125,2.2079708576202393,-1.5581632852554321,7.560444355010986
1725891642211798800,1.557798828125,1.2333359718322754,0.16569706797599792,7.360996723175049
1725891642230647600,1.5766474609375,2.2763876914978027,2.811047077178955,6.34665584564209
1725891642249496600,1.59549658203125,3.166112184524536,1.6540690660476685,4.115472316741943
1725891642268345300,1.614345458984375,3.5243842601776123,-0.23258677124977112,2.597778797149658
1725891642287194400,1.6331943359375,3.127322196960449,-0.1003345400094986,2.5617377758026123
1725891642306043400,1.65204345703125,2.1468842029571533,0.37980517745018005,2.1011457443237305
1725891642324892200,1.67089208984375,1.0946696996688843,0.512668251991272,1.2483785152435303
1725891642343741200,1.6897412109375,-2.179260015487671,1.0829105377197266,1.968282699584961
1725891642362590000,1.70858984375,-1.112079381942749,-3.5086545944213867,0.1573740392923355
1725891642381439000,1.72743896484375,-0.5601630210876465,-2.495229959487915,0.8235220909118652
1725891642400287700,1.746287841796875,0.03023780696094036,-4.051407814025879,2.253861904144287
1725891642419136800,1.76513671875,-0.11026109009981155,-2.7374377250671387,3.6857290267944336
1725891642437985800,1.78398583984375,-0.9795216917991638,-1.8229732513427734,3.823478937149048
1725891642456834800,1.802834716796875,-1.1349867582321167,-1.4818052053451538,2.7486624717712402
1725891642475683600,1.82168359375,-0.20402882993221283,-0.5377137064933777,1.0147227048873901
1725891642494532600,1.84053271484375,0.5656607747077942,0.4964803457260132,-1.269911527633667
1725891642513381400,1.85938134765625,0.05833758786320686,1.0630574226379395,-2.7213263511657715
1725891642532230400,1.87823046875,-0.29565855860710144,1.0841323137283325,-2.8618252277374268
1725891642551079400,1.897079345703125,-0.23854269087314606,0.7945823669433594,-1.768988013267517
1725891642569928000,1.915927978515625,0.17134757339954376,1.0123556852340698,0.029703300446271896
1725891642619392800,1.965392822265625,0.06597339361906052,0.6388118267059326,1.3671917915344238
1725891642638241500,1.984241455078125,-0.03787361457943916,0.4995346665382385,1.25479257106781
1725891642657090600,2.003090576171875,0.6640099883079529,0.23625195026397705,0.8748347163200378
1725891642675939300,2.021939208984375,2.274860382080078,0.310166597366333,0.106366828083992
1725891642694788400,2.040788330078125,3.347538948059082,-0.735023021697998,-0.5185478329658508
1725891642713637400,2.059637451171875,0.7831286191940308,-0.03558287397027016,0.13629920780658722
1725891642732486100,2.078486083984375,-2.0415101051330566,-0.449138343334198,-1.0402263402938843
1725891642751335200,2.097335205078125,-0.6591231226921082,0.17455461621284485,-1.722562313079834
1725891642770184200,2.11618408203125,1.2565488815307617,0.5196931958198547,-1.4232386350631714
1725891642789033000,2.135032958984375,0.5381718873977661,0.3620901107788086,-0.5967385172843933
1725891642807882000,2.153882080078125,-0.48502662777900696,-0.08261945843696594,-0.5026653409004211
1725891642826730800,2.172730712890625,-0.1692095398902893,-0.39965829253196716,-0.8019890785217285
1725891642845579800,2.191579833984375,0.29443681240081787,0.005955931730568409,-0.8465822339057922
1725891642864428800,2.2104287109375,0.7996219992637634,0.5563451051712036,-1.6187152862548828
1725891642883277800,2.22927783203125,0.9266818761825562,0.7689260244369507,-2.6632940769195557
1725891642902126600,2.248126708984375,0.46059203147888184,0.15867212414741516,-2.9925501346588135
1725891642920975600,2.2669755859375,0.22968515753746033,-0.2860374450683594,-2.1568872928619385
1725891642939824400,2.285824462890625,0.62857985496521,-0.4595230221748352,-1.4397319555282593
1725891642958673400,2.30467333984375,0.8888082504272461,-0.16752967238426208,-1.8551199436187744
1725891642977522400,2.3235224609375,0.7855721116065979,0.29184064269065857,-2.8282275199890137
1725891642996371200,2.34237109375,0.46608981490135193,-0.10705405473709106,-2.731710910797119
1725891643015220200,2.36122021484375,0.16249002516269684,-0.8352048993110657,-0.8349757790565491
1725891643034069200,2.3800693359375,0.25534147024154663,-1.3196206092834473,1.2609012126922607
1725891643052918000,2.39891796875,0.583375871181488,-1.0948224067687988,2.096564292907715
1725891643071767000,2.41776708984375,0.7721330523490906,-0.030085090547800064,1.5730531215667725
1725891643090616000,2.436615966796875,0.5338957905769348,0.49892380833625793,-0.04512763395905495
1725891643109464800,2.45546484375,0.4618137776851654,1.0187697410583496,-2.307159900665283
1725891643128313900,2.47431396484375,0.43371400237083435,1.4396555423736572,-2.9204680919647217
1725891643147163000,2.493162841796875,0.2724456787109375,1.3706278800964355,-1.6064980030059814
1725891643166011600,2.51201171875,0.19303326308727264,0.360868364572525,1.209588646888733
1725891643184860700,2.530860595703125,0.07513637095689774,0.07864884287118912,3.0281331539154053
1725891643203709700,2.549709716796875,-0.05925388261675835,0.616209864616394,2.340299367904663
1725891643222558500,2.568558349609375,0.38301220536231995,2.0474660396575928,-0.29069527983665466
1725891643241407500,2.587407470703125,0.9236275553703308,3.081660032272339,-2.659018039703369
1725891643260256500,2.606256591796875,0.5827649831771851,2.4622433185577393,-2.379852771759033
1725891643279105300,2.625105224609375,0.011606430634856224,1.4903573989868164,0.04344775900244713
1725891643297954300,2.643954345703125,0.10323614627122879,0.3523162603378296,1.4814234972000122
1725891643316803300,2.66280322265625,0.2822195291519165,0.8281798958778381,1.2010365724563599
1725891643335652000,2.681652099609375,0.11728604137897491,1.1220059394836426,0.4453967809677124
1725891643354501000,2.700501220703125,-0.043371398001909256,1.2997674942016602,-0.3200167715549469
1725891643373350100,2.71935009765625,-0.14782927930355072,1.2429571151733398,-0.5533671379089355
1725891643392199000,2.738198974609375,-0.21502439677715302,0.6534726023674011,-0.058566659688949585
1725891643411048000,2.7570478515625,-0.535728394985199,0.27229297161102295,0.4661661982536316
1725891643429897000,2.77589697265625,-1.6682716608047485,-0.3196350038051605,0.9908990263938904
1725891643448745700,2.794745849609375,-1.536935806274414,0.1971566081047058,0.5932260751724243
1725891643467594800,2.8135947265625,-0.3964512348175049,0.7701478004455566,-0.9895246028900146
1725891643486443800,2.83244384765625,-0.4153880476951599,0.8239038586616516,-1.686521291732788
1725891643505292800,2.851292724609375,-1.4043781757354736,0.5490147471427917,-0.9858593940734863
1725891643524141600,2.8701416015625,-1.8173227310180664,-0.3568977415561676,0.1417969912290573
1725891643542990600,2.888990478515625,-1.5412118434906006,-1.1369720697402954,1.411173939704895
1725891643561839600,2.907839599609375,-0.41416633129119873,-1.501658320426941,1.7508147954940796
1725891643580688400,2.9266884765625,0.6524035930633545,-1.0697768926620483,1.199814796447754
1725891643599537400,2.945537353515625,1.018311619758606,-0.3006981909275055,-0.23571744561195374
1725891643618386400,2.964386474609375,0.389120876789093,0.3199404180049896,-0.5332086086273193
1725891643637235200,2.983235107421875,-0.19303326308727264,0.0102319847792387,-0.7867174744606018
1725891643656084200,3.002084228515625,-0.1380554437637329,0.06276635825634003,-1.169118881225586
1725891643674933200,3.020933349609375,0.2009745091199875,0.022449281066656113,-1.3193916082382202
1725891643693782000,3.039781982421875,0.3909534513950348,-0.029474224895238876,-1.3285545110702515
1725891643712631000,3.058631103515625,0.5143481492996216,0.10797034949064255,-0.7952696084976196
1725891643731480000,3.07747998046875,0.5668824911117554,-0.2487746775150299,0.3977493345737457
1725891643750328800,3.096328857421875,0.4770853817462921,0.09269873052835464,0.3165042996406555
1725891643769177900,3.115177734375,0.43921178579330444,0.5361865758895874,-0.1404225379228592
1725891643788027000,3.13402685546875,-0.30604326725006104,-0.23167046904563904,0.9285908341407776
1725891643806876000,3.1528759765625,-0.7122683525085449,0.7292198538780212,0.08498656004667282
1725891643825724700,3.171724609375,-0.1740964651107788,0.9088140726089478,-0.8386409878730774
1725891643844573700,3.19057373046875,0.09346231073141098,0.26129740476608276,1.0489312410354614
1725891643863422700,3.209422607421875,0.6304124593734741,0.5716167092323303,1.3024400472640991
1725891643882271500,3.228271484375,1.0677915811538696,0.7762564420700073,0.004963276442140341
1725891643901120500,3.24712060546875,1.0146464109420776,1.3480257987976074,-2.558225393295288
1725891643919969500,3.265969482421875,0.3500255048274994,1.6229150295257568,-3.8092763423919678
1725891643938818600,3.284818603515625,-0.20219624042510986,1.1183407306671143,-1.9662973880767822
1725891643957667300,3.303667236328125,0.15210533142089844,0.11591159552335739,-0.6071232557296753
1725891643976516400,3.322516357421875,0.555276095867157,-0.6971494555473328,-0.2063959389925003
1725891643995365400,3.341365478515625,0.3848448097705841,-0.5578722357749939,-0.026190826669335365
1725891644014214100,3.360214111328125,-0.12400554865598679,-0.09239330142736435,-0.6456077098846436
1725891644033063200,3.379063232421875,-0.3329212963581085,-0.35384342074394226,-0.7286853194236755
1725891644051912200,3.397912109375,-0.012217295356094837,-0.1980729103088379,-0.538706362247467
1725891644070761200,3.41676123046875,0.38789913058280945,-0.09850194305181503,-0.43058329820632935
1725891644089610000,3.43560986328125,0.19303326308727264,-0.14920371770858765,-0.10315979272127151
1725891644108459000,3.454458984375,-0.11545344442129135,0.06887500733137131,-0.3151298761367798
1725891644127308000,3.47330810546875,-0.021991131827235222,-0.012370011769235134,-0.5411498546600342
1725891644146156800,3.49215673828125,-0.07452550530433655,-0.029474224895238876,-0.3206276595592499
1725891644165005800,3.511005859375,0.07513637095689774,0.013897174037992954,-0.17890702188014984
1725891644183854800,3.529854736328125,0.021380268037319183,-0.41126471757888794,0.19982914626598358
1725891644202704000,3.548703857421875,-0.0824667438864708,-0.17974695563316345,0.30856308341026306
1725891644221552600,3.567552734375,-0.1233946830034256,-0.049021899700164795,0.2774089574813843
1725891644240401700,3.586401611328125,-0.07635809481143951,0.11774418503046036,0.021456625312566757
1725891644259250700,3.605250732421875,0.1698204129934311,0.18127411603927612,0.1118646115064621
1725891644278099700,3.624099609375,0.07880155742168427,-0.3764454126358032,1.3787981271743774
1725891644296948500,3.642948486328125,0.10079269111156464,-0.14431680738925934,1.0116684436798096
1725891644315797500,3.661797607421875,0.20402882993221283,0.07803797721862793,0.673249363899231
1725891644334646500,3.680646484375,-0.043982263654470444,-0.030085090547800064,0.9670752882957458
1725891644353495600,3.69949560546875,-0.13194678723812103,0.10186170041561127,0.6097193956375122
1725891644372344300,3.71834423828125,-0.1331685185432434,-0.01359174121171236,0.43745553493499756
1725891644391193300,3.737193359375,-0.24801109731197357,-0.01359174121171236,0.7178424596786499
1725891644410042400,3.75604248046875,-0.3072649836540222,-0.15225805342197418,1.6390265226364136
1725891644428891400,3.774891357421875,-0.0922405794262886,0.0902552679181099,1.7361540794372559
1725891644447740200,3.793740234375,0.14782927930355072,0.4964803457260132,1.2034800052642822
1725891644466589200,3.812589111328125,-0.01588248461484909,0.5820014476776123,0.8314633369445801
1725891644485438200,3.831438232421875,-0.25534147024154663,0.578336238861084,0.9579123258590698
1725891644504287200,3.850287353515625,-0.2877173125743866,0.3199404180049896,1.3952915668487549
1725891644523136000,3.869135986328125,-0.12278381735086441,0.5514581799507141,1.4185043573379517
1725891644541985000,3.887985107421875,0.1185077652335167,0.5771145224571228,0.9658535718917847
1725891644560834000,3.906833984375,0.2883281707763672,0.5557342171669006,0.7123447060585022
1725891644579683000,3.92568310546875,0.6090322136878967,0.12263110280036926,0.7538834810256958
1725891644598531800,3.94453173828125,0.32559093832969666,-2.6720752716064453,1.4453824758529663
1725891644617380900,3.963380859375,0.8484911918640137,1.4647010564804077,1.0196096897125244
1725891644636230000,3.98222998046875,0.4214966893196106,1.4164427518844604,-1.6822452545166016
1725891644655079000,4.001078857421875,-1.1160500049591064,-0.560315728187561,-1.3597086668014526
1725891644673927700,4.019927734375,-0.9034690260887146,-0.9036217331886292,1.0086140632629395
1725891644692776700,4.038776611328125,0.7953459620475769,0.7860302329063416,-1.555185317993164
1725891644711625700,4.057625732421875,0.8857539296150208,0.4751000702381134,-2.5930445194244385
1725891644730474800,4.076474853515625,-0.4324922561645508,-0.23594652116298676,0.04650207981467247
1725891644749323800,4.09532373046875,-0.4929678738117218,0.3767508566379547,-1.1575124263763428
1725891644768172500,4.114172607421875,-0.4361574649810791,0.4402807950973511,-2.6376378536224365
1725891644787021600,4.133021484375,-0.5626064538955688,0.11407899856567383,-2.4024548530578613
1725891644805870600,4.15187060546875,-0.4312705397605896,-0.8810197114944458,-0.8587995171546936
1725891644824719600,4.1707197265625,-0.04764745384454727,-1.0465641021728516,-0.3181841969490051
1725891644843568600,4.189568603515625,-0.06047561392188072,-0.5468766689300537,-0.37865981459617615
1725891644862417400,4.20841748046875,-0.43921178579330444,-0.36972591280937195,-0.5771908760070801
1725891644881266400,4.227266357421875,-0.583375871181488,0.3309359848499298,-2.75675630569458
1725891644900115500,4.246115478515625,-0.9828814268112183,0.5093085169792175,-0.2424369603395462
1725891644918964500,4.264964599609375,-1.0757328271865845,-1.7667737007141113,6.561985969543457
1725891644937813500,4.2838134765625,0.268169641494751,0.4793761372566223,11.813590049743652
1725891644956662300,4.302662353515625,-2.2168283462524414,-1.1846195459365845,0.36476263403892517
1725891644975511300,4.32151123046875,-2.360992431640625,2.6393940448760986,-8.5874605178833
1725891644994360300,4.3403603515625,-2.026238441467285,-1.428965449333191,-7.396274566650391
1725891645013209300,4.359209228515625,-1.193018913269043,0.8764382600784302,1.3574179410934448
1725891645032058400,4.378058349609375,-0.3860665261745453,3.0498950481414795,4.632874965667725
1725891645050907400,4.396907470703125,-0.9694424271583557,-2.450331449508667,0.3678169548511505
1725891645069756200,4.415756103515625,-3.2314746379852295,-1.8779510259628296,-3.9839837551116943
1725891645088605200,4.434605224609375,-4.740921497344971,0.5850557684898376,-6.246016025543213
1725891645107454200,4.4534541015625,-5.138594627380371,0.5422952175140381,-6.010833263397217
1725891645126303200,4.47230322265625,-4.315759658813477,0.3303251266479492,-3.4867398738861084
1725891645145152000,4.491152099609375,-2.788597822189331,0.3413206934928894,-0.1605810821056366
1725891645164001000,4.5100009765625,-1.1129956245422363,-0.4344775676727295,1.653076410293579
1725891645182850000,4.52885009765625,0.5259546041488647,-0.5542070865631104,2.364733934402466
1725891645201699000,4.547698974609375,1.4813470840454102,0.7420479655265808,2.342742681503296
1725891645220548000,4.566548095703125,1.6450588703155518,2.0053162574768066,1.4160609245300293
1725891645239397000,4.585397216796875,1.2107340097427368,2.536768674850464,0.17722713947296143
1725891645258246100,4.60424609375,0.6517927050590515,2.779892921447754,-0.7616720199584961
1725891645277095000,4.623094970703125,0.17348559200763702,3.464672327041626,-1.1269692182540894
1725891645295944000,4.64194384765625,-0.21807873249053955,3.8653995990753174,-1.112308382987976
1725891645314793000,4.66079296875,-0.6206386089324951,3.5672976970672607,-0.871016800403595
1725891645333642000,4.67964208984375,-0.7324268817901611,2.5917465686798096,-0.4177551567554474
1725891645352491000,4.698490966796875,-0.07269290834665298,0.8110756874084473,0.003741546766832471
1725891645371340000,4.717340087890625,1.046411395072937,-0.17974695563316345,0.46433359384536743
1725891645390189000,4.73618896484375,2.492328405380249,-0.5438223481178284,0.2456440031528473
1725891645409037800,4.755037841796875,3.3041675090789795,-1.5749621391296387,-0.6462185978889465
1725891645427886800,4.773886962890625,4.248564720153809,-1.8614577054977417,-1.1452951431274414
1725891645446736000,4.79273583984375,4.445262908935547,-1.3574942350387573,-0.7415134906768799
1725891645465585000,4.8115849609375,2.956585645675659,-0.7790052890777588,0.4673879146575928
1725891645484434000,4.830433837890625,1.092226266860962,-0.585972011089325,1.5455642938613892
1725891645503283000,4.849282958984375,-0.5393936038017273,-0.45707955956459045,1.8241186141967773
1725891645522132000,4.868132080078125,-2.137415885925293,0.22647811472415924,1.7624212503433228
1725891645540980700,4.886980712890625,-3.5026986598968506,-0.8449786901473999,1.9841651916503906
1725891645559829800,4.905829833984375,-3.561952590942383,-3.8131706714630127,2.6817727088928223
1725891645578678800,4.9246787109375,-2.3677117824554443,-0.8651372194290161,3.756894826889038
1725891645597527800,4.94352783203125,-1.4886775016784668,-0.6916516423225403,4.414185047149658
1725891645616376800,4.962376953125,-0.6200277805328369,0.002901607658714056,4.038503646850586
1725891645635225900,4.981225830078125,0.2522871494293213,0.4653262495994568,2.962770462036133
1725891645654075000,5.000074951171875,1.0567960739135742,0.6565269231796265,1.2236385345458984
1725891645672923600,5.018923583984375,1.4477494955062866,0.6968439817428589,-0.5460367798805237
1725891645691772700,5.037772705078125,1.7617340087890625,0.3993528485298157,-1.962632179260254
1725891645710621700,5.05662158203125,2.4104723930358887,-0.47174033522605896,-3.0310347080230713
1725891645729470700,5.075470703125,3.3512041568756104,-1.4735585451126099,-3.894186496734619
1725891645748319700,5.09431982421875,4.366461277008057,-2.154062032699585,-4.45618200302124
1725891645767168800,5.113168701171875,5.621788501739502,-3.0104942321777344,-4.483060359954834
1725891645786017800,5.132017822265625,6.088489055633545,-1.3874266147613525,-3.665112257003784
1725891645804866800,5.15086669921875,3.786139965057373,-1.2469277381896973,-2.6315290927886963
1725891645823715800,5.1697158203125,0.9083559513092041,-0.623845636844635,-2.3523638248443604
1725891645842564600,5.188564697265625,-0.3536907136440277,-0.24755294620990753,-2.6706244945526123
1725891645861413600,5.20741357421875,0.31520622968673706,-0.6910407543182373,-2.8783185482025146
1725891645880262700,5.2262626953125,1.9596542119979858,-0.5639809370040894,-3.001713275909424
1725891645899111700,5.245111572265625,3.4636032581329346,-1.1339176893234253,-3.3028695583343506
1725891645917960700,5.263960693359375,4.154491424560547,-2.1858267784118652,-3.3615124225616455
1725891645936809700,5.282809814453125,4.588205337524414,-3.789346933364868,-2.0976333618164062
1725891645955658800,5.30165869140625,4.62119197845459,-3.851044178009033,0.1527925580739975
1725891645974507500,5.320507568359375,3.894873857498169,-3.1986405849456787,2.18330717086792
1725891645993356500,5.3393564453125,2.3548836708068848,-0.5774199366569519,3.631667375564575
1725891646012205600,5.35820556640625,1.8124357461929321,-1.3397791385650635,3.039128541946411
1725891646031054600,5.3770546875,1.25715970993042,-1.3593268394470215,1.836946725845337
1725891646049903600,5.395903564453125,1.398269534111023,-1.9091051816940308,1.430721640586853
1725891646068752600,5.414752685546875,1.977980136871338,-2.3733623027801514,1.45698881149292
1725891646087601700,5.4336015625,2.7794346809387207,-2.3257148265838623,1.5675554275512695
1725891646106450700,5.45245068359375,3.5998260974884033,-2.400851249694824,1.9004766941070557
1725891646125299700,5.4712998046875,3.657858371734619,-1.908494234085083,2.0672428607940674
1725891646144148700,5.490148681640625,3.5998260974884033,-1.5022692680358887,1.450269341468811
1725891646162997800,5.508997802734375,2.2259912490844727,-0.614682674407959,0.3531562089920044
1725891646181846500,5.527846435546875,0.49418962001800537,0.25579962134361267,-0.3725511431694031
1725891646200695600,5.546695556640625,0.14172062277793884,-0.5798633694648743,-0.09216422587633133
1725891646219544600,5.565544677734375,-0.1331685185432434,-1.7777692079544067,0.9328668713569641
1725891646238393600,5.5843935546875,0.07024945318698883,-0.9726494550704956,1.358028769493103
1725891646257242600,5.60324267578125,0.4196641147136688,-0.6317868828773499,1.0580941438674927
1725891646276091600,5.622091552734375,0.749531090259552,-0.34834563732147217,0.49487683176994324
1725891646294940700,5.640940673828125,0.5564978122711182,-0.19929464161396027,0.3274998664855957
1725891646313789700,5.659789794921875,0.5051851868629456,-0.40698865056037903,0.9799034595489502
1725891646332638700,5.678638671875,0.6304124593734741,-0.27259841561317444,1.4838669300079346
1725891646351487700,5.69748779296875,1.2150100469589233,-0.6311760544776917,1.8259512186050415
1725891646370336800,5.716336669921875,1.1557561159133911,-1.0001384019851685,2.298760414123535
1725891646389185800,5.735185791015625,0.4630354940891266,-0.735023021697998,1.9004766941070557
1725891646408034800,5.754034912109375,-0.2571740746498108,-0.4448622763156891,1.3091596364974976
1725891646426883800,5.7728837890625,-0.5222893953323364,0.15012001991271973,0.7795398235321045
1725891646445732900,5.79173291015625,-0.7275399565696716,0.4793761372566223,0.31955865025520325
1725891646464581600,5.81058154296875,-0.8943060636520386,1.1922553777694702,0.022067490965127945
1725891646483430700,5.8294306640625,-0.26511532068252563,1.1965314149856567,-0.2534325122833252
1725891646502279700,5.84827978515625,0.6139190793037415,-0.1773035079240799,0.03917170315980911
1725891646521128700,5.867128662109375,0.6096430420875549,-0.6268999576568604,0.4716639816761017
1725891646539977700,5.885977783203125,0.6542361974716187,-0.8199332356452942,0.7428879141807556
1725891646558826800,5.90482666015625,0.6731730103492737,-0.8590285778045654,0.8259655237197876
1725891646577675800,5.92367578125,0.5613847374916077,-0.4967857897281647,0.8070287108421326
1725891646596524800,5.94252490234375,0.46486809849739075,0.06337722390890121,0.8204677700996399
1725891646615373800,5.961373779296875,0.6108647584915161,0.8532254099845886,0.9957859516143799
1725891646634222800,5.980222900390625,0.6334667801856995,1.106123447418213,1.3616939783096313
1725891646653072000,5.99907177734375,0.38789913058280945,0.7206677198410034,1.7007238864898682
1725891646671921000,6.0179208984375,0.1795942485332489,0.09392046183347702,1.8473314046859741
1725891646690770000,6.03677001953125,0.1954767256975174,-0.09361502528190613,1.9652283191680908
1725891646709619000,6.055618896484375,0.24862197041511536,-0.1003345400094986,1.578550934791565
1725891646728468000,6.074468017578125,0.17837251722812653,0.064598947763443,1.1381174325942993
1725891646747317000,6.09331689453125,-0.053756099194288254,-0.039858926087617874,0.6512582302093506
1725891646766166000,6.112166015625,0.09162971377372742,-0.045967575162649155,0.4869355857372284
1725891646785015000,6.13101513671875,0.09101885557174683,0.3364337682723999,0.3268890082836151
1725891646803864000,6.149864013671875,-0.07880155742168427,0.2808450758457184,0.17172935605049133
1725891646822712800,6.168712890625,-0.27550002932548523,-0.05451968312263489,0.17111849784851074
1725891646841561900,6.187561767578125,-0.5192350745201111,-0.3825540542602539,0.2505309283733368
1725891646860411100,6.2064111328125,-0.6908880472183228,-0.3410152494907379,-0.08483384549617767
1725891646879260200,6.22526025390625,-0.6615665555000305,-0.212733656167984,-0.5185478329658508
1725891646898109000,6.24410888671875,-0.48441576957702637,-0.4332558512687683,-0.7066941857337952
1725891646916958000,6.2629580078125,-0.38667741417884827,-0.799774706363678,-0.8587995171546936
1725891646935807000,6.281806884765625,-0.5717694163322449,-1.2078323364257812,-0.9229403138160706
1725891646954656000,6.300656005859375,-0.7568614482879639,-1.417969822883606,-1.0609958171844482
1725891646973505000,6.319505126953125,-0.7012727856636047,-1.4301871061325073,-1.1190279722213745
1725891646992354000,6.33835400390625,-0.5809323787689209,-1.5193734169006348,-0.9388228058815002
1725891647011203000,6.357203125,-0.5748237371444702,-1.3238966464996338,-0.8612430095672607
1725891647030052000,6.376052001953125,-0.7281508445739746,-1.0221295356750488,-0.8771254420280457
1725891647048901000,6.394901123046875,-0.8985821008682251,-0.8388700485229492,-0.7567850947380066
1725891647067750100,6.413750244140625,-1.0525200366973877,-0.3868301212787628,-0.5808560252189636
1725891647086599200,6.43259912109375,-1.0604612827301025,-0.1259908676147461,-0.28641921281814575
1725891647105448200,6.4514482421875,-0.9230166673660278,-0.09972367435693741,-0.1398116797208786
1725891647124297200,6.470297119140625,-0.84177166223526,-0.0013744457392022014,-0.10560324788093567
1725891647143146200,6.489146240234375,-0.657290518283844,0.06337722390890121,-0.019471315667033195
1725891647161995300,6.507995361328125,-0.3854556679725647,0.249690979719162,-0.05917752534151077
1725891647180844300,6.52684423828125,-0.24434591829776764,0.3816377818584442,-0.12820523977279663
1725891647199693300,6.545693359375,-0.0616973415017128,0.28267768025398254,-0.023747367784380913
1725891647218542300,6.564542236328125,0.1081230640411377,0.1715002804994583,-0.05306887626647949
1725891647237391400,6.583391357421875,0.2522871494293213,0.13362666964530945,-0.0939968153834343
1725891647256240400,6.602240478515625,0.41416633129119873,0.13851359486579895,-0.12087486684322357
1725891647275089400,6.62108935546875,0.5247328281402588,0.23014330863952637,-0.0029779658652842045
1725891647293938400,6.6399384765625,0.6304124593734741,0.4494437575340271,0.2242637276649475
1725891647312787500,6.658787353515625,0.7562506198883057,0.680350661277771,0.48937904834747314
1725891647331636500,6.677636474609375,0.8594867587089539,0.7463240623474121,0.7386118769645691
1725891647350485500,6.696485595703125,0.9498947262763977,0.864831805229187,0.9566906094551086
1725891647369334500,6.71533447265625,1.1435388326644897,0.9729548692703247,1.0501528978347778
1725891647388183600,6.73418359375,1.406821608543396,1.180648922920227,1.0971895456314087
1725891647407032600,6.753032470703125,1.4617993831634521,0.948520302772522,1.236466646194458
1725891647425881600,6.771881591796875,1.3848304748535156,0.7432697415351868,1.2334123849868774
1725891647444730600,6.790730712890625,1.1264346837997437,0.39996370673179626,1.0092250108718872
1725891647463579600,6.80957958984375,1.0971131324768066,-0.0032070400193333626,0.58039790391922
1725891647482428700,6.8284287109375,0.8210022449493408,0.09392046183347702,0.22243113815784454
1725891647501277700,6.847277587890625,0.21258094906806946,0.16844595968723297,0.12347104400396347
1725891647520126700,6.866126708984375,0.11239911615848541,0.4396699368953705,-0.020693045109510422
1725891647538975700,6.884975830078125,0.14721840620040894,0.008399390615522861,0.07338013499975204
1725891647557824800,6.90382470703125,0.9016364216804504,-0.263435423374176,0.05627591907978058
1725891647576673800,6.922673828125,1.0482439994812012,-1.106428861618042,0.18516838550567627
1725891647595522800,6.941522705078125,0.916297197341919,-1.0331250429153442,0.1680641770362854
1725891647614371800,6.960371826171875,0.9132428169250488,-0.26221370697021484,-0.010919207707047462
1725891647633220900,6.979220947265625,0.7953459620475769,0.4390590488910675,-0.09460768103599548
1725891647652070000,6.99806982421875,0.657290518283844,0.7249437570571899,-0.09705114364624023
1725891647670919000,7.0169189453125,0.8857539296150208,0.43600472807884216,-0.3566686809062958
1725891647689768000,7.035767822265625,1.284037709236145,-0.1156061589717865,-0.7378482818603516
1725891647708617000,7.054616943359375,1.3286309242248535,0.12751802802085876,-1.3126720190048218
1725891647727466000,7.073466064453125,1.1404845714569092,0.21426081657409668,-1.5429680347442627
1725891647746315300,7.092315185546875,1.284037709236145,0.06582067906856537,-1.5533528327941895
1725891647765164000,7.1111640625,1.508836030960083,-0.4448622763156891,-1.3963605165481567
1725891647784013000,7.130012939453125,2.1722352504730225,-0.6708822250366211,-1.3926953077316284
1725891647802862300,7.1488623046875,3.1813838481903076,-0.337350070476532,-1.5386919975280762
1725891647821711400,7.16771142578125,2.8484625816345215,0.6357575058937073,-1.1697297096252441
1725891647840560400,7.186560302734375,1.757457971572876,0.698676586151123,-1.3389391899108887
1725891647859409400,7.205409423828125,1.0122029781341553,0.9515746235847473,-0.8630755543708801
1725891647878258400,7.224258544921875,0.8142827749252319,0.5648971796035767,-0.2638172209262848
1725891647897107500,7.243107421875,-0.07819069176912308,0.11285726726055145,-0.19784383475780487
1725891647915956500,7.26195654296875,-0.12217295914888382,-0.31291547417640686,-0.21555891633033752
1725891647934805500,7.280805419921875,-0.1997527778148651,-0.7136427760124207,-0.42569640278816223
1725891647953654500,7.299654541015625,-0.4740310609340668,-0.9433279633522034,-0.6816487312316895
1725891647972503600,7.318503662109375,-0.5656607747077942,-0.7582359313964844,-0.8673516511917114
1725891647991352600,7.3373525390625,-1.0836740732192993,-1.6189444065093994,-0.8673516511917114
1725891648010201600,7.35620166015625,-1.3848304748535156,-2.305556297302246,-0.909501314163208
1725891648029050600,7.375050537109375,-1.6310089826583862,-2.1143558025360107,-0.9565379023551941
1725891648047899600,7.393899658203125,-1.3121376037597656,-1.4008656740188599,-1.020067811012268
1725891648066748700,7.412748779296875,-1.3665045499801636,-1.726456642150879,-1.1452951431274414
1725891648085597700,7.43159765625,-1.1991275548934937,-1.8883357048034668,-0.9608139395713806
1725891648104446700,7.45044677734375,-0.9187406301498413,-1.6684244871139526,-0.8832340836524963
1725891648123295700,7.469295654296875,-0.7800742983818054,-1.16079580783844,-0.9522618055343628
1725891648142144800,7.488144775390625,-0.45448338985443115,-0.6708822250366211,-1.0438915491104126
1725891648160993800,7.506993896484375,-0.472198486328125,-0.37583455443382263,-1.177670955657959
1725891648179842800,7.5258427734375,-0.4159989058971405,-0.366060733795166,-1.104978084564209
1725891648198691800,7.54469189453125,-0.2767217457294464,-0.49800750613212585,-1.1159735918045044
1725891648217540900,7.563540771484375,-0.08002328872680664,-0.4228711426258087,-1.036561131477356
1725891648236390000,7.582389892578125,0.01588248461484909,-0.40026915073394775,-0.8930079340934753
1725891648255239000,7.601239013671875,0.0054977829568088055,-0.29764387011528015,-0.8722385764122009
1725891648274088000,7.620087890625,-0.10690133273601532,-0.3092502951622009,-0.8142064213752747
1725891648292937000,7.63893701171875,-0.12644900381565094,-0.21395538747310638,-0.6370556354522705
1725891648311786000,7.657785888671875,-0.1545487940311432,-0.058795735239982605,-0.558254063129425
1725891648330635300,7.67663525390625,-0.12950333952903748,-0.06979130208492279,-0.4574613571166992
1725891648349484000,7.695484130859375,-0.2730565667152405,0.12935061752796173,-0.3505600392818451
1725891648368333300,7.714333251953125,-0.23823726177215576,-0.04108065739274025,-0.2980256676673889
1725891648387182300,7.733182373046875,-0.32009315490722656,0.5337430834770203,-0.4745655655860901
1725891648406031400,7.75203125,-0.5491674542427063,1.3223695755004883,-0.7726675868034363
1725891648424880400,7.77088037109375,-0.8271108865737915,1.908188819885254,-0.8978948593139648
1725891648443729400,7.7897294921875,-0.9266818761825562,1.2667808532714844,-0.6645445227622986
1725891648462578400,7.808578369140625,-0.8124501705169678,0.670576810836792,-0.2894735336303711
1725891648481427500,7.827427490234375,-0.833219587802887,0.5477929711341858,-0.04940368980169296
1725891648500276500,7.8462763671875,-2.0323472023010254,0.4634936451911926,-0.1037706509232521
1725891648519125500,7.86512548828125,-1.0134246349334717,-0.0899498388171196,0.2554178237915039
1725891648537974500,7.883974609375,-0.10079269111156464,0.009010255336761475,0.44234246015548706
1725891648556823600,7.902823486328125,0.2809978127479553,-0.3318522870540619,0.701349139213562
1725891648575672600,7.921672607421875,0.4318813979625702,-0.11133010685443878,0.5932260751724243
1725891648594521600,7.940521484375,0.6731730103492737,-0.09728021919727325,0.4869355857372284
1725891648613370600,7.95937060546875,0.778241753578186,-0.04169152304530144,0.42218393087387085
1725891648632219600,7.9782197265625,0.9309579133987427,0.17883066833019257,0.3568213880062103
1725891648651068700,7.997068603515625,1.1417062282562256,0.36025750637054443,0.4087449014186859
1725891648669917700,8.015917724609375,1.4984513521194458,0.6046034097671509,0.5370265245437622
1725891648688766700,8.0347666015625,1.8191553354263306,1.0877974033355713,0.5791761875152588
1725891648707615700,8.05361572265625,2.5210390090942383,1.2105813026428223,0.9744057059288025
1725891648726464800,8.07246484375,2.2528693675994873,3.7181811332702637,0.6005564332008362
1725891648745313800,8.091313720703125,0.9419534802436829,2.9991934299468994,-0.07261654734611511
1725891648764163000,8.1101630859375,-0.8833104968070984,1.1586577892303467,-0.04696023091673851
1725891648783011800,8.12901171875,-1.265711784362793,1.4127775430679321,-0.2632063627243042
1725891648801861000,8.147861083984376,-0.6615665555000305,1.9423972368240356,-0.30657777190208435
1725891648820710100,8.166710205078125,-0.3591884970664978,2.0993895530700684,-0.3242928385734558
1725891648839559200,8.18555908203125,0.2926042377948761,0.7756455540657043,-0.03413207083940506
1725891648858408200,8.204408203125,0.5656607747077942,-0.0001527161948615685,0.07399099320173264
1725891648877257200,8.22325732421875,0.09407317638397217,-0.14248420298099518,0.13080142438411713
1725891648896106200,8.242106201171875,-0.000610864779446274,-0.33857181668281555,0.33483025431632996
1725891648914955300,8.260955322265625,0.01954767294228077,-0.35934120416641235,0.5694023370742798
1725891648933804300,8.27980419921875,0.03481929376721382,0.031612250953912735,0.61827152967453
1725891648952653300,8.2986533203125,-0.07757982611656189,0.3217730224132538,0.49976375699043274
1725891648971502300,8.31750244140625,-0.17287473380565643,0.2582430839538574,0.3378845751285553
1725891648990351400,8.336351318359375,-0.23762640357017517,0.16966769099235535,0.06421715766191483
1725891649009200400,8.355200439453125,-0.3066541254520416,0.11591159552335739,-0.0683404952287674
1725891649028049400,8.37404931640625,-0.3133736252784729,0.05971203371882439,-0.23632831871509552
1725891649046898400,8.3928984375,-0.3659079968929291,-0.06123919412493706,-0.3615556061267853
1725891649065747700,8.411747802734375,-0.3402516841888428,0.034666575491428375,-0.4330267608165741
1725891649084596700,8.4305966796875,-0.21991132199764252,0.21181736886501312,-0.4336376488208771
1725891649103445800,8.44944580078125,-0.23457208275794983,-0.026419902220368385,-0.2015090137720108
1725891649122294800,8.468294677734375,-0.3280344009399414,-0.33918267488479614,0.03061959706246853
1725891649141143800,8.487143798828125,-0.33597561717033386,-0.4686860144138336,0.025732679292559624
1725891649159992800,8.505992919921875,-0.12950333952903748,-0.5248855352401733,-0.45990481972694397
1725891649178841900,8.524841796875,-0.370184063911438,-0.3630063831806183,-0.9015600681304932
1725891649197691000,8.54369091796875,-1.0690133571624756,-0.13942988216876984,-1.2033272981643677
1725891649216540000,8.562539794921875,-0.12156209349632263,0.6968439817428589,-0.8484148383140564
1725891649235389000,8.581388916015625,0.7079922556877136,0.4445568323135376,-0.1856265366077423
1725891649254238000,8.600238037109374,1.0079269409179688,-0.27259841561317444,0.607886791229248
1725891649273087000,8.6190869140625,0.33719736337661743,-0.5297724604606628,0.3012326955795288
1725891649291936000,8.63793603515625,-0.430659681558609,-1.4564543962478638,-0.03657552972435951
1725891649310785000,8.656784912109375,0.012217295356094837,-1.4161372184753418,-0.3108538091182709
1725891649329634000,8.675634033203124,0.3439168632030487,-1.1656826734542847,-0.6504946351051331
1725891649348483300,8.6944833984375,0.5137372612953186,-0.809548556804657,-0.8343649506568909
1725891649367332400,8.713332275390625,0.10323614627122879,-0.9934188723564148,-0.5637518167495728
1725891649386181400,8.732181396484375,-0.3915643095970154,-1.253036379814148,-0.17890702188014984
1725891649405030400,8.751030517578124,-0.5845975875854492,-1.029459834098816,-0.29069527983665466
1725891649423879400,8.76987939453125,-0.7709113359451294,-0.4839576184749603,-0.5570323467254639
1725891649442728400,8.788728515625,-1.0641264915466309,-0.26160284876823425,-0.7201332449913025
1725891649461577500,8.807577392578125,-1.2522728443145752,-0.03558287397027016,-0.61201012134552
1725891649480426500,8.826426513671874,-1.2870920896530151,0.1262962967157364,-0.3652207851409912
1725891649499275500,8.845275634765626,-1.2186752557754517,0.2698495090007782,-0.24671301245689392
1725891649518124500,8.86412451171875,-1.1038326025009155,0.33276858925819397,-0.1807396113872528
1725891649536973600,8.8829736328125,-0.7116574645042419,0.5086976289749146,-0.023136503994464874
1725891649555822600,8.901822509765625,-0.35185810923576355,0.8135191798210144,-0.026801692321896553
1725891649574671600,8.920671630859376,-0.12950333952903748,0.5899426341056824,0.08437569439411163
1725891649593521000,8.93952099609375,0.007941242307424545,0.20693044364452362,0.1992182731628418
1725891649612370000,8.958369873046875,0.25045454502105713,-0.030085090547800064,0.2193768173456192
1725891649631219000,8.977218994140625,0.5821541547775269,0.45677414536476135,0.1014799103140831
1725891649650068000,8.99606787109375,0.7446441650390625,0.011453714221715927,0.20593778789043427
1725891649668917000,9.0149169921875,0.3964512348175049,-0.3923279047012329,0.3177260458469391
1725891649687766000,9.03376611328125,0.2761108875274658,-0.6000219583511353,0.5235874652862549
1725891649706615000,9.052614990234375,-0.002443459117785096,-0.388662725687027,0.6115520000457764
1725891649725464000,9.071464111328124,0.40805765986442566,-0.3116937577724457,0.5938369035720825
1725891649744313000,9.09031298828125,1.0415244102478027,-0.5688678026199341,0.474718302488327
1725891649763162000,9.109162109375,1.3347395658493042,-0.8645263910293579,0.5376373529434204
1725891649782011100,9.12801123046875,1.527161955833435,-0.7154753804206848,0.5834522247314453
1725891649800860200,9.146860107421874,1.5570943355560303,-0.16447533667087555,0.3940841555595398
1725891649819709200,9.165709228515626,1.2596031427383423,-0.0013744457392022014,0.4710530936717987
1725891649838558200,9.18455810546875,0.915075421333313,0.2234237939119339,0.32016950845718384
1725891649857407500,9.203407470703125,0.4166097939014435,0.3614792227745056,0.1582903414964676
1725891649876256500,9.222256591796874,-0.04764745384454727,0.6815723776817322,-0.025579962879419327
1725891649895105500,9.24110546875,-0.5760455131530762,0.8831577301025391,-0.24121522903442383
1725891649913954600,9.25995458984375,-0.9407317638397217,1.4036145210266113,-0.530154287815094
1725891649932803600,9.278803466796875,-1.028085470199585,1.9167410135269165,-0.5539780259132385
1725891649951652600,9.297652587890624,-0.4422661066055298,1.881921648979187,-0.36399903893470764
1725891649970501600,9.316501708984376,-0.28954991698265076,2.1256566047668457,-0.2638172209262848
1725891649989350700,9.3353505859375,-0.3848448097705841,1.8513784408569336,0.041615162044763565
1725891650008199700,9.35419970703125,-0.2663370370864868,1.0798561573028564,0.36476263403892517
1725891650027048700,9.373048583984374,0.1233946830034256,-0.01908952370285988,0.7850375771522522
1725891650045897700,9.391897705078126,-0.07574722915887833,-0.04841103404760361,0.691575288772583
1725891650064746800,9.410746826171875,0.43432486057281494,-1.1552979946136475,0.5413025617599487
1725891650083596000,9.429595947265625,1.0091485977172852,-1.1968368291854858,0.45883581042289734
1725891650102445000,9.448445068359375,1.2877029180526733,-1.1308634281158447,0.6604211926460266
1725891650121294000,9.467294189453124,1.4947861433029175,-1.151021957397461,1.086804747581482
1725891650140143000,9.48614306640625,0.4569268524646759,-0.0025961752980947495,0.16073378920555115
1725891650158992100,9.5049921875,-0.5784889459609985,0.5911644101142883,-0.9113339185714722
1725891650177841200,9.523841064453125,-0.16004657745361328,-0.6934842467308044,-0.9944115281105042
1725891650196690200,9.542690185546874,0.545502245426178,-1.7747149467468262,-0.7989347577095032
1725891650215539200,9.561539306640626,0.555276095867157,-1.9982913732528687,-0.23938263952732086
1725891650234388200,9.58038818359375,-0.0360410213470459,-1.8333579301834106,0.6494256258010864
1725891650253237200,9.5992373046875,0.14172062277793884,-1.4662281274795532,-0.12881611287593842
1725891650272086300,9.618086181640624,0.4612029194831848,-1.0386228561401367,-0.602847158908844
1725891650290935300,9.636935302734376,0.583375871181488,-0.6586649417877197,-1.1501820087432861
1725891650309784600,9.65578466796875,0.26389357447624207,-0.5969675779342651,-0.9986875653266907
1725891650328633600,9.674633544921875,-0.2309068888425827,-0.5597048401832581,-0.8245911002159119
1725891650347482600,9.693482666015624,-0.5015199780464172,-0.44241881370544434,-1.3560434579849243
1725891650366331600,9.71233154296875,-0.6774490475654602,0.1207985132932663,-1.5832850933074951
1725891650385180700,9.7311806640625,-0.861319363117218,0.4195113778114319,-1.5460224151611328
1725891650404029700,9.75002978515625,-0.7806851863861084,-0.0038179049734026194,-1.6052762269973755
1725891650422878700,9.768878662109374,-0.5076286196708679,-0.20601414144039154,-1.4330123662948608
1725891650441727700,9.787727783203126,-0.44898560643196106,-0.6745474338531494,-1.4134647846221924
1725891650460576800,9.80657666015625,-0.6615665555000305,-0.5065596103668213,-1.5967241525650024
1725891650479425800,9.82542578125,-0.84177166223526,-0.5493201613426208,-1.657199740409851
1725891650498274800,9.84427490234375,-0.9016364216804504,-0.9561560750007629,-1.5429680347442627
1725891650517123800,9.863123779296876,-0.952949047088623,-0.9579886794090271,-1.235092282295227
1725891650535973000,9.88197314453125,-0.9498947262763977,-0.7270817756652832,-0.9253838062286377
1725891650554822100,9.900822265625,-0.8936951756477356,-0.6580541133880615,-0.807486891746521
1725891650573671200,9.919671142578125,-0.832608699798584,-0.47784897685050964,-0.8025999665260315
1725891650592520200,9.938520263671874,-0.6029235124588013,-0.23961171507835388,-0.5063305497169495
1725891650611369200,9.957369140625,-0.3738492429256439,-0.16386447846889496,-0.23999349772930145
1725891650630218200,9.97621826171875,-0.30604326725006104,-0.09666935354471207,-0.08605557680130005
1725891650649067300,9.9950673828125,-0.1893680840730667,0.1000291109085083,0.1521816849708557
1725891650667916300,10.013916259765624,-0.1178968995809555,0.4500546157360077,0.3433823585510254
1725891650686765300,10.032765380859376,-0.02932151034474373,0.8807142972946167,0.5571850538253784
1725891650705614300,10.0516142578125,-0.10567960888147354,1.1769837141036987,0.7917571067810059
1725891650724463400,10.07046337890625,0.17653992772102356,1.2563961744308472,0.978070855140686
1725891650743312400,10.0893125,0.7409789562225342,1.243567943572998,1.1210132837295532
1725891650762161400,10.108161376953126,0.9193515181541443,1.2026400566101074,1.0971895456314087
1725891650781010700,10.1270107421875,1.230892539024353,0.7524327039718628,1.0458768606185913
1725891650799859700,10.145859619140625,2.067777395248413,0.8177952170372009,1.0214422941207886
1725891650818708700,10.164708740234374,2.4190244674682617,0.4341721534729004,1.190040946006775
1725891650837557800,10.183557861328126,2.1355831623077393,0.12324196845293045,1.5302926301956177
1725891650856406800,10.20240673828125,1.6077960729599,-0.02153298258781433,1.809457778930664
1725891650875255800,10.221255859375,1.3371829986572266,0.1153007298707962,1.3781872987747192
1725891650894104800,10.240104736328124,0.972496747970581,0.15928299725055695,1.7508147954940796
1725891650912953900,10.258953857421876,1.0793980360031128,-0.18280129134655,2.2944843769073486
1725891650931803000,10.277802978515625,1.3451242446899414,-0.005039634648710489,2.7416374683380127
1725891650950652000,10.29665185546875,1.3017528057098389,0.5148062705993652,2.9639923572540283
1725891650969501000,10.3155009765625,1.656665325164795,1.0053306818008423,3.206505537033081
1725891650988350000,10.334349853515626,1.2131774425506592,0.2179260104894638,3.03302001953125
1725891651007199000,10.353198974609375,1.1771364212036133,-0.25121814012527466,2.188804864883423
1725891651026048000,10.372048095703125,1.2651009559631348,0.2124282270669937,1.0440442562103271
1725891651044897300,10.390897216796875,0.8466585874557495,0.17821979522705078,0.5694023370742798
1725891651063746300,10.409746337890626,0.6817250847816467,-0.05329795181751251,0.20288346707820892
1725891651082595300,10.42859521484375,0.3634645342826843,-0.023976443335413933,-0.22105668485164642
1725891651101444400,10.4474443359375,0.020158538594841957,0.3455967605113983,-0.5411498546600342
1725891651120293400,10.46629345703125,-0.17043127119541168,0.6217076182365417,-0.8190932869911194
1725891651139142400,10.485142333984374,-0.2626718580722809,0.5765036344528198,-1.2473095655441284
1725891651157991400,10.503991455078125,-0.21685700118541718,0.48792824149131775,-1.623602271080017
1725891651176840400,10.52284033203125,-0.07880155742168427,0.734106719493866,-1.8765002489089966
1725891651195689500,10.541689453125,0.01893680728971958,0.7878628373146057,-2.1074070930480957
1725891651214538500,10.56053857421875,0.07941242307424545,0.6638572812080383,-2.0622031688690186
1725891651233387500,10.579387451171876,0.10079269111156464,0.5441278219223022,-1.7488294839859009
1725891651252236500,10.598236572265625,0.0513126403093338,0.17333288490772247,-1.48371422290802
1725891651271085800,10.6170859375,-0.0030543238390237093,-0.10094540566205978,-1.13002347946167
1725891651289934800,10.635934814453124,-0.10079269111156464,-0.22250749170780182,-1.0640500783920288
1725891651308783900,10.654783935546876,-0.1185077652335167,-0.23472478985786438,-1.0909281969070435
1725891651327633000,10.6736328125,-0.04764745384454727,-0.6385064125061035,-0.9840267896652222
1725891651346482000,10.69248193359375,-0.13622283935546875,-0.8834632039070129,-1.046334981918335
1725891651365331000,10.7113310546875,-0.011606430634856224,-0.662330150604248,-1.5154792070388794
1725891651384180000,10.730179931640626,0.35246896743774414,-1.2121084928512573,-1.5667917728424072
1725891651403029000,10.749029052734375,0.4917461574077606,-1.7649410963058472,-0.9308815598487854
1725891651421878000,10.7678779296875,0.17287473380565643,-1.4808889627456665,-1.123304009437561
1725891651440727000,10.78672705078125,-0.10995566099882126,-0.6659952998161316,-1.0066287517547607
1725891651459576000,10.805576171875,-0.143553227186203,-0.9958623051643372,-1.2650245428085327
1725891651478425000,10.824425048828125,-0.7269290685653687,-1.3629920482635498,-1.4788272380828857
1725891651497274000,10.843274169921875,-1.1068869829177856,-0.9830341339111328,-1.602221965789795
1725891651516123400,10.862123291015624,-1.1630865335464478,-0.9133955836296082,-1.4647773504257202
1725891651534972400,10.880972412109376,-1.1319323778152466,-0.994029700756073,-1.20271635055542
1725891651553821400,10.899821533203125,-1.1710277795791626,-0.9066760540008545,-0.9876919984817505
1725891651572670500,10.91867041015625,-1.6297872066497803,-1.3605486154556274,-1.3768128156661987
1725891651591519500,10.93751953125,-1.5430444478988647,-1.9909610748291016,-1.5936698913574219
1725891651610368500,10.956368408203126,-0.9865466356277466,-0.9879210591316223,-0.8777363300323486
1725891651629217500,10.975217529296875,-0.5412262082099915,-0.15592323243618011,-0.6633228063583374
1725891651648066600,10.994066650390625,-0.2877173125743866,0.04993819445371628,-0.651105523109436
1725891651666915600,11.01291552734375,-0.1081230640411377,0.2393062710762024,-0.6022363305091858
1725891651685764600,11.0317646484375,0.05558869615197182,0.45738500356674194,-0.40553784370422363
1725891651704613600,11.050613525390625,0.22418737411499023,0.7194460034370422,-0.12026400119066238
1725891651723462700,11.069462646484375,0.3903425931930542,0.7786998748779297,0.0862082913517952
1725891651742311700,11.088311767578125,0.5112938284873962,0.8452841639518738,0.31406086683273315
1725891651761160700,11.10716064453125,0.6536253094673157,0.9527963399887085,0.5907825827598572
1725891651780009700,11.126009765625,0.7819069027900696,1.0743584632873535,0.8400154113769531
1725891651798859000,11.14485888671875,0.860708475112915,1.226463794708252,1.0849722623825073
1725891651817708000,11.1637080078125,0.9468404054641724,1.205694317817688,1.2828923463821411
1725891651836557000,11.18255712890625,1.0079269409179688,1.1580469608306885,1.4643192291259766
1725891651855406000,11.201406005859376,1.0671807527542114,1.1085668802261353,1.6286418437957764
1725891651874255000,11.220255126953125,1.1068869829177856,1.1409426927566528,1.77586030960083
1725891651893104000,11.239104248046875,1.1343759298324585,0.9454659819602966,1.8998658657073975
1725891651911953200,11.257953125,1.094058871269226,0.8605557680130005,2.0006585121154785
1725891651930802200,11.27680224609375,1.0665699243545532,0.7738129496574402,2.0397539138793945
1725891651949651200,11.295651123046875,1.125823736190796,0.6968439817428589,1.9792782068252563
1725891651968500200,11.314500244140625,1.0836740732192993,0.48304131627082825,1.8980332612991333
1725891651987349200,11.333349365234374,0.9663881063461304,0.38102689385414124,1.8644356727600098
1725891652006198300,11.3521982421875,0.8222240209579468,0.45188722014427185,1.8882594108581543
1725891652025047300,11.37104736328125,0.6200277805328369,0.5484038591384888,1.9279656410217285
1725891652043896300,11.389896240234375,0.4404335021972656,0.6265945434570312,1.820453405380249
1725891652062745300,11.408745361328124,0.24862197041511536,0.5948295593261719,1.57060968875885
1725891652081594400,11.427594482421876,0.1380554437637329,0.4030180275440216,1.274340271949768
1725891652100443400,11.446443359375,0.026878049597144127,0.17638720571994781,1.0220531225204468
1725891652119292400,11.46529248046875,-0.07757982611656189,0.057268574833869934,0.8192460536956787
1725891652138141700,11.4841416015625,-0.16187916696071625,0.060933761298656464,0.5382482409477234
1725891652156990700,11.50299072265625,-0.1948658674955368,-0.02153298258781433,0.2596938908100128
1725891652175839700,11.52183984375,-0.2528980076313019,-0.21700970828533173,0.005574141163378954
1725891652194688800,11.540688720703125,-0.24556763470172882,-0.25793763995170593,-0.30291256308555603
1725891652213537800,11.559537841796875,-0.1844811588525772,-0.305585116147995,-0.6547706723213196
1725891652232386800,11.57838671875,-0.12095122784376144,-0.2860374450683594,-0.9351575970649719
1725891652251235800,11.59723583984375,-0.05742128938436508,-0.18096868693828583,-1.0500001907348633
1725891652270084900,11.6160849609375,0.04214967042207718,-0.17058399319648743,-1.075656533241272
1725891652288934000,11.634933837890625,0.14233149588108063,-0.17608177661895752,-1.0402263402938843
1725891652307783000,11.653782958984374,0.1954767256975174,-0.2646571695804596,-1.0353394746780396
1725891652326632000,11.6726318359375,0.21135921776294708,-0.3520108163356781,-1.1605666875839233
1725891652345481000,11.69148095703125,0.20219624042510986,-0.3520108163356781,-1.327332854270935
1725891652364330000,11.710330078125,0.1899789422750473,-0.30375251173973083,-1.51853346824646
1725891652383179000,11.729178955078124,0.1893680840730667,-0.33307403326034546,-1.5802308320999146
1725891652402028000,11.748028076171876,0.21441353857517242,-0.6226239204406738,-1.5594614744186401
1725891652420877000,11.766876953125,0.18264856934547424,-1.041066288948059,-1.5276964902877808
1725891652439726000,11.78572607421875,0.10018182545900345,-1.3324488401412964,-1.4855468273162842
1725891652458575000,11.8045751953125,0.04459312930703163,-1.3953678607940674,-1.546633243560791
1725891652477424400,11.82342431640625,-0.0030543238390237093,-1.4259110689163208,-1.6620867252349854
1725891652496273200,11.842273193359375,-0.07757982611656189,-1.5706861019134521,-1.785481333732605
1725891652515122200,11.8611220703125,-0.18203771114349365,-1.513264775276184,-1.814802885055542
1725891652533971500,11.879971435546874,-0.2663370370864868,-1.4814997911453247,-1.779983639717102
1725891652552820500,11.898820556640626,-0.3078758418560028,-1.3776527643203735,-1.842902660369873
1725891652571669500,11.91766943359375,-0.39217519760131836,-1.2127193212509155,-1.6370412111282349
1725891652590518500,11.9365185546875,-0.5076286196708679,-0.92072594165802,-1.4537818431854248
1725891652609367600,11.955367431640624,-0.5314523577690125,-0.7539598345756531,-1.3755911588668823
1725891652628216600,11.974216552734376,-0.6114756464958191,-0.5242747068405151,-1.326111078262329
1725891652647065600,11.993065673828125,-0.7055488228797913,-0.3721693754196167,-1.241811752319336
1725891652665914600,12.01191455078125,-0.7635809779167175,-0.12904518842697144,-1.0878738164901733
1725891652684763600,12.030763671875,-0.7446441650390625,0.23747368156909943,-0.9137773513793945
1725891652703612700,12.04961279296875,-0.6725621223449707,0.39141160249710083,-0.5332086086273193
1725891652722461700,12.068461669921875,-0.6249146461486816,0.4689914286136627,-0.2008981555700302
1725891652741310700,12.087310791015625,-0.5503891706466675,0.5447386503219604,0.11491893976926804
1725891652760159700,12.10615966796875,-0.41905322670936584,0.8605557680130005,0.4496728479862213
1725891652779008800,12.1250087890625,-0.24373504519462585,1.0548107624053955,0.7178424596786499
1725891652797857800,12.14385791015625,-0.17104214429855347,1.291215419769287,1.1051307916641235
1725891652816706800,12.162706787109375,-0.07513637095689774,1.566104531288147,1.5125775337219238
1725891652835555800,12.181555908203125,0.08979712426662445,1.8141156435012817,1.718438982963562
1725891652854404900,12.20040478515625,0.28405213356018066,2.1048872470855713,1.8430553674697876
1725891652873254000,12.21925390625,0.44470956921577454,2.4078762531280518,1.9328525066375732
1725891652892103000,12.23810302734375,0.618806004524231,2.4885103702545166,2.0562472343444824
1725891652910952000,12.256951904296875,0.7568614482879639,2.112828493118286,2.25600004196167
1725891652929801000,12.275801025390624,0.8472694754600525,1.6668972969055176,2.292651891708374
1725891652948650000,12.29464990234375,0.8484911918640137,1.310152292251587,2.309145212173462
1725891652967499000,12.3134990234375,0.7947350740432739,1.024267554283142,2.356792688369751
1725891652986348000,12.33234814453125,0.7287616729736328,0.7958040833473206,2.298760414123535
1725891653005197000,12.351197021484374,0.7073814272880554,0.5154171586036682,2.281656265258789
1725891653024046000,12.370046142578126,0.6346884965896606,0.35903576016426086,2.1564290523529053
1725891653042895000,12.38889501953125,0.5693259835243225,0.40607234835624695,2.0513603687286377
1725891653061744000,12.407744140625,0.6291907429695129,0.31871870160102844,1.8057926893234253
1725891653080593200,12.42659326171875,0.5986474752426147,0.2331976294517517,1.4447715282440186
1725891653099442200,12.445442138671876,0.5369501113891602,-0.007483093533664942,1.0635919570922852
1725891653118291200,12.464291259765625,0.35674503445625305,0.02306014485657215,0.9017127752304077
1725891653137140500,12.483140380859375,0.22724169492721558,0.24174973368644714,0.673249363899231
1725891653155989200,12.5019892578125,0.10934479534626007,0.17333288490772247,0.3983601927757263
1725891653174838500,12.520838623046876,0.039706211537122726,0.17455461621284485,0.025121813639998436
1725891653193687600,12.5396875,-0.0256563201546669,0.05971203371882439,-0.29558220505714417
1725891653212536300,12.558536376953125,-0.09346231073141098,-0.0025961752980947495,-0.704861581325531
1725891653231385600,12.577385498046874,-0.1337793916463852,-0.061850059777498245,-1.1074215173721313
1725891653250234600,12.596234619140626,-0.18325942754745483,0.003512472379952669,-1.315726399421692
1725891653269083600,12.615083740234375,-0.17104214429855347,0.08414662629365921,-1.4091887474060059
1725891653287932700,12.6339326171875,-0.09529490768909454,-0.012370011769235134,-1.454392671585083
1725891653306781700,12.65278173828125,0.06719512492418289,-0.005650499369949102,-1.4440079927444458
1725891653325630700,12.671630615234376,0.2767217457294464,-0.18402300775051117,-1.3731476068496704
1725891653344479700,12.690479736328125,0.3500255048274994,-0.45707955956459045,-1.2912918329238892
1725891653363328800,12.709328857421875,0.39278605580329895,-0.523052990436554,-1.4330123662948608
1725891653382177800,12.728177734375,0.38667741417884827,-0.5187768936157227,-1.620547890663147
1725891653401026800,12.74702685546875,0.32681265473365784,-0.5615374445915222,-1.6645301580429077
1725891653419875800,12.765875732421875,0.22846342623233795,-0.7032580971717834,-1.6101632118225098
1725891653438724900,12.784724853515625,0.1533270627260208,-0.8596394658088684,-1.6633083820343018
1725891653457574000,12.803573974609375,0.05558869615197182,-1.0447314977645874,-1.8068616390228271
1725891653476423000,12.8224228515625,-0.06780599057674408,-1.3043490648269653,-1.8862740993499756
1725891653495272000,12.84127197265625,-0.03298669680953026,-1.532812476158142,-1.8868849277496338
1725891653514121000,12.860120849609375,0.004886918235570192,-1.588401198387146,-1.7928117513656616
1725891653532970000,12.878969970703125,-0.07513637095689774,-1.5285364389419556,-1.7017929553985596
1725891653551819000,12.897819091796874,-0.16187916696071625,-1.6091705560684204,-1.6785800457000732
1725891653570668000,12.91666796875,-0.24740023910999298,-1.5108213424682617,-1.509981393814087
1725891653589517000,12.93551708984375,-0.337808221578598,-1.223714828491211,-1.4397319555282593
1725891653608366000,12.954365966796875,-0.4453204274177551,-0.8840740323066711,-1.3432153463363647
1725891653627215000,12.973215087890624,-0.5723803043365479,-0.4399753510951996,-1.2412009239196777
1725891653646064000,12.992064208984376,-0.6640099883079529,-0.14920371770858765,-1.166675329208374
1725891653664913200,13.0109130859375,-0.7171552777290344,0.18982623517513275,-1.2008837461471558
1725891653683762200,13.02976220703125,-0.7116574645042419,0.2857320010662079,-1.1507928371429443
1725891653702611200,13.048611083984374,-0.7886264324188232,0.4696022868156433,-0.6767618060112
1725891653721460200,13.067460205078126,-0.6701186895370483,0.7102830410003662,-0.20822852849960327
1725891653740309200,13.086309326171875,-0.4001164436340332,0.661413848400116,-0.08910989761352539
1725891653759158300,13.105158203125,-0.35063639283180237,0.6650790572166443,0.3274998664855957
1725891653778007300,13.12400732421875,-0.24984370172023773,1.0438151359558105,0.8650608658790588
1725891653796856300,13.142856201171876,-0.01282816007733345,1.3779581785202026,0.9493602514266968
1725891653815705300,13.161705322265625,0.11606431007385254,1.566104531288147,1.1521673202514648
1725891653834554400,13.180554443359375,0.11117739230394363,1.806174397468567,1.5852704048156738
1725891653853403400,13.1994033203125,0.27488914132118225,2.0694570541381836,1.6866739988327026
1725891653872252400,13.21825244140625,0.42943793535232544,2.226449489593506,1.8461097478866577
1725891653891101400,13.237101318359375,0.5900954008102417,2.2667665481567383,2.1900265216827393
1725891653909950500,13.255950439453125,0.7287616729736328,2.0780093669891357,2.3213624954223633
1725891653928799500,13.274799560546874,0.8741474747657776,1.8501566648483276,2.4667482376098633
1725891653947648500,13.2936484375,1.0213658809661865,1.2276854515075684,2.303647518157959
1725891653966497500,13.31249755859375,1.026863694190979,0.9271399974822998,2.0739622116088867
1725891653985346600,13.3313466796875,0.8943060636520386,0.771980345249176,2.0202062129974365
1725891654004195600,13.350195556640625,0.9401208758354187,0.7695369124412537,2.0208170413970947
1725891654023044400,13.36904443359375,1.0952805280685425,0.05238165333867073,1.9469023942947388
1725891654041893600,13.3878935546875,1.1410953998565674,0.03405570983886719,1.6194789409637451
1725891654060742700,13.40674267578125,1.0702351331710815,0.15745039284229279,1.3635265827178955
1725891654079591400,13.42559130859375,0.8881973624229431,-0.03252854943275452,1.0312161445617676
1725891654098440400,13.4444404296875,0.6499601006507874,0.16783510148525238,0.6585885882377625
1725891654117289500,13.46328955078125,0.4728093445301056,0.09880737960338593,0.44356417655944824
1725891654136138500,13.482138427734375,0.2706131041049957,0.145843967795372,0.044669486582279205
1725891654154987500,13.500987548828125,0.10079269111156464,0.10797034949064255,-0.24976733326911926
1725891654173836500,13.51983642578125,-0.025045456364750862,0.041386090219020844,-0.4024835228919983
1725891654192685600,13.538685546875,-0.1380554437637329,-0.055741410702466965,-0.5643627047538757
1725891654211534600,13.55753466796875,-0.2003636509180069,-0.02825249545276165,-0.7439569234848022
1725891654230383600,13.576383544921875,-0.1802051067352295,0.03894263133406639,-0.9363793730735779
1725891654249232600,13.595232666015624,-0.1282816082239151,-0.03558287397027016,-0.9803616404533386
1725891654268081700,13.61408154296875,-0.06963858753442764,-0.055741410702466965,-0.9076687097549438
1725891654286930700,13.6329306640625,-0.02932151034474373,-0.017867794260382652,-0.8740711212158203
1725891654305779700,13.65177978515625,-0.031154103577136993,0.002290742937475443,-0.928438127040863
1725891654324628700,13.670628662109374,-0.009162971749901772,-0.01359174121171236,-1.0677152872085571
1725891654343477800,13.689477783203126,0.0665842592716217,-0.141262486577034,-1.2845722436904907
1725891654362326800,13.708326904296875,0.0922405794262886,-0.20601414144039154,-1.3798671960830688
1725891654381175800,13.72717578125,0.10751219838857651,-0.47845983505249023,-1.3951387405395508
1725891654400024800,13.74602490234375,0.1337793916463852,-0.7747292518615723,-1.5362485647201538
1725891654418873900,13.764873779296876,0.10018182545900345,-0.9390518665313721,-1.6309325695037842
1725891654437723000,13.783722900390625,0.05742128938436508,-1.1455241441726685,-1.6321543455123901
1725891654456572000,13.802572021484375,-0.0030543238390237093,-1.3098467588424683,-1.6376521587371826
1725891654475421000,13.8214208984375,-0.10384701192378998,-1.4857758283615112,-1.6608649492263794
1725891654494270000,13.84027001953125,-0.19669845700263977,-1.7954843044281006,-1.7659337520599365
1725891654513119000,13.859118896484375,-0.14233149588108063,-2.1174099445343018,-1.8978805541992188
1725891654531968000,13.877968017578125,-0.06597339361906052,-2.0441062450408936,-1.8141920566558838
1725891654550817000,13.896817138671874,-0.10934479534626007,-1.986685037612915,-1.732336163520813
1725891654569666000,13.915666015625,-0.20341797173023224,-1.680641770362854,-1.5032618045806885
1725891654588515000,13.93451513671875,-0.24923282861709595,-1.2774709463119507,-1.4018583297729492
1725891654607364000,13.953364013671875,-0.3555232882499695,-1.105207085609436,-1.464166522026062
1725891654626213000,13.972213134765624,-0.462424635887146,-0.9085086584091187,-1.27846360206604
1725891654645062100,13.991062255859376,-0.5510000586509705,-0.4143190383911133,-1.0371720790863037
1725891654663911000,14.009910888671875,-0.6401863098144531,0.05604684352874756,-0.9534835815429688
1725891654682760000,14.028760009765625,-0.6597339510917664,0.5703949928283691,-0.8734602928161621
1725891654701609000,14.04760888671875,-0.6053670048713684,0.7371610999107361,-0.5545888543128967
1725891654720458000,14.0664580078125,-0.5601630210876465,0.9063706398010254,-0.01030834298580885
1725891654739307000,14.08530712890625,-0.34636032581329346,1.0010546445846558,0.40141451358795166
1725891654758156000,14.104156005859375,-0.07147117704153061,1.178816318511963,0.6940187215805054
1725891654777005000,14.123005126953124,0.10140355676412582,1.4274382591247559,1.1057416200637817
1725891654795854000,14.14185400390625,0.2162461280822754,1.4701987504959106,1.4392738342285156
1725891654814703000,14.160703125,0.22296564280986786,1.5404483079910278,1.5541163682937622
1725891654833552100,14.17955224609375,0.3555232882499695,1.5880956649780273,1.7337106466293335
1725891654852401200,14.198401123046875,0.6041452884674072,1.7957897186279297,1.9016984701156616
1725891654871250200,14.217250244140626,0.7965676784515381,1.732259750366211,2.0617449283599854
1725891654890099200,14.23609912109375,0.8894191384315491,1.5068507194519043,2.2639412879943848
1725891654908948200,14.2549482421875,0.9126319885253906,1.2423462867736816,2.446589708328247
1725891654927797200,14.27379736328125,0.9285144805908203,0.8593340516090393,2.437426805496216
1725891654946646300,14.292646240234374,0.833219587802887,0.5844448804855347,2.334190607070923
1725891654965495300,14.311495361328125,0.6401863098144531,0.5361865758895874,2.348240613937378
1725891654984344300,14.33034423828125,0.6078104376792908,0.5105302333831787,2.365344762802124
1725891655003193300,14.349193359375,0.676227331161499,0.3052796721458435,2.1936917304992676
1725891655022042000,14.3680419921875,0.574212908744812,0.24541492760181427,1.8723769187927246
1725891655040891100,14.38689111328125,0.45998117327690125,0.16416990756988525,1.5095232725143433
1725891655059740200,14.405740234375,0.45937031507492065,0.10430516302585602,1.1692715883255005
1725891655078589200,14.424589111328125,0.4508182108402252,0.05177079141139984,0.8155808448791504
1725891655097438200,14.443438232421874,0.31642794609069824,0.028557928279042244,0.5632936954498291
1725891655116287200,14.462287353515626,0.0824667438864708,0.05177079141139984,0.37514734268188477
1725891655135136300,14.48113623046875,-0.19425499439239502,-0.010537417605519295,0.0709366723895073
1725891655153985300,14.4999853515625,-0.38789913058280945,0.08720094710588455,-0.4220311939716339
1725891655172834300,14.518834228515624,-0.4984656572341919,-0.2292270064353943,-0.8850666880607605
1725891655191683300,14.537683349609376,-0.574212908744812,-0.3043633699417114,-1.4311797618865967
1725891655210532400,14.556532470703125,-0.5766563415527344,-0.3929387629032135,-1.7683771848678589
1725891655229381400,14.57538134765625,-0.5210676789283752,-0.6189587116241455,-1.714010238647461
1725891655248230400,14.59423046875,-0.5656607747077942,-0.3263545036315918,-1.5502984523773193
1725891655267079400,14.613079345703126,-0.6860011219978333,-0.19135339558124542,-1.2723549604415894
1725891655285928400,14.631928466796875,-0.6340776681900024,-0.4631882309913635,-0.8325323462486267
1725891655304777200,14.650777099609375,-0.40378162264823914,-0.8761327862739563,-0.5234347581863403
1725891655323626200,14.669626220703124,-0.2779434621334076,-0.9805907011032104,-0.4495201110839844
1725891655342475300,14.688475341796876,-0.1130099818110466,-0.9518800377845764,-0.7354048490524292
1725891655361324300,14.70732421875,0.13194678723812103,-1.0709986686706543,-1.0500001907348633
1725891655380173300,14.72617333984375,0.22968515753746033,-1.123533010482788,-1.09520423412323
1725891655399022300,14.745022216796874,0.036651886999607086,-1.2340996265411377,-1.0408371686935425
1725891655417871400,14.763871337890626,-0.20280711352825165,-1.1210895776748657,-0.9870811104774475
1725891655436720400,14.782720458984375,-0.318871408700943,-0.9506583213806152,-1.1061997413635254
1725891655455569400,14.8015693359375,-0.31154105067253113,-1.067333459854126,-1.5191442966461182
1725891655474418400,14.82041845703125,-0.21319180727005005,-1.3660463094711304,-1.861228585243225
1725891655493267500,14.839267333984376,-0.1997527778148651,-1.4723368883132935,-1.8477896451950073
1725891655512116200,14.8581162109375,-0.20891575515270233,-1.2634210586547852,-1.6761366128921509
1725891655530965200,14.87696533203125,-0.10873392969369888,-0.8749110698699951,-1.426292896270752
1725891655549814300,14.895814208984374,-0.07941242307424545,-0.6421716213226318,-1.268689751625061
1725891655568663300,14.914663330078126,-0.11545344442129135,-0.5248855352401733,-1.288237452507019
1725891655587512300,14.93351220703125,-0.2809978127479553,-0.1467602699995041,-1.2161554098129272
1725891655606361300,14.952361328125,-0.4929678738117218,0.21975859999656677,-1.05733060836792
1725891655625210400,14.97121044921875,-0.6071996092796326,0.3156643807888031,-0.9070578217506409
1725891655644059400,14.990059326171876,-0.49602219462394714,0.514195442199707,-0.6706531643867493
1725891655662908400,15.008908447265625,-0.3084867000579834,0.5557342171669006,-0.40553784370422363
1725891655681757400,15.02775732421875,-0.20341797173023224,0.4390590488910675,-0.1556941568851471
1725891655700606500,15.0466064453125,-0.19853104650974274,0.3510945439338684,0.24320054054260254
1725891655719455200,15.065455322265626,-0.05070177838206291,0.41462448239326477,0.6451495885848999
1725891655738304300,15.08430419921875,0.19242240488529205,0.669965922832489,0.9621883630752563
1725891655757153300,15.1031533203125,0.48930269479751587,1.001665472984314,1.2242493629455566
1725891655776002300,15.122002197265624,0.6450732350349426,1.3529127836227417,1.3531419038772583
1725891655794851300,15.140851318359376,0.7079922556877136,1.6229150295257568,1.616424560546875
1725891655813700400,15.159700439453125,0.6157516837120056,1.7426445484161377,1.9004766941070557
1725891655832549400,15.17854931640625,0.6420188546180725,1.6174172163009644,2.040975570678711
1725891655851398400,15.1973984375,0.7483093738555908,1.3767365217208862,2.0593016147613525
1725891655870247400,15.216247314453126,0.9541707634925842,1.1953096389770508,2.138713836669922
1725891655889096400,15.235096435546875,0.9706641435623169,0.9002619981765747,2.256610870361328
1725891655907945500,15.253945556640625,0.7324268817901611,0.7383828163146973,2.403829336166382
1725891655926794200,15.272794189453125,0.48930269479751587,0.568562388420105,2.398942232131958
1725891655945643300,15.291643310546876,0.4172206521034241,0.4353938698768616,2.2437827587127686
1725891655964492300,15.3104921875,0.2877173125743866,0.37491825222969055,1.9859977960586548
1725891655983341300,15.32934130859375,0.15271618962287903,0.25091269612312317,1.7227150201797485
1725891656002190300,15.3481904296875,0.12034036219120026,0.25702136754989624,1.3671917915344238
1725891656021039400,15.367039306640624,0.1496618688106537,0.29733842611312866,1.0611485242843628
1725891656039888400,15.385888427734375,0.15577052533626556,0.14523309469223022,0.7215076684951782
1725891656058737400,15.4047373046875,-0.0513126403093338,0.14706569910049438,0.37697991728782654
1725891656077586200,15.423586181640625,-0.17898337543010712,0.02367101050913334,0.13568833470344543
1725891656096435200,15.442435302734374,-0.23029601573944092,-0.039248060435056686,-0.11293362826108932
1725891656115284200,15.4612841796875,-0.27366742491722107,0.054214250296354294,-0.3664425015449524
1725891656134133200,15.48013330078125,-0.2761108875274658,0.12935061752796173,-0.5527562499046326
1725891656152982300,15.498982177734375,-0.2522871494293213,0.08292489498853683,-0.7066941857337952
1725891656171831300,15.517831298828124,-0.20708316564559937,0.004123337101191282,-0.8563560843467712
1725891656190680300,15.536680419921876,-0.15271618962287903,-0.07040216773748398,-0.9168316721916199
1725891656209529300,15.555529296875,-0.1386663019657135,-0.08323032408952713,-0.9168316721916199
1725891656228378400,15.57437841796875,-0.16615521907806396,0.07131846249103546,-0.9803616404533386
1725891656247227400,15.593227294921874,-0.22724169492721558,0.05299251899123192,-1.0872629880905151
1725891656266076200,15.612076171875,-0.30482152104377747,-0.07223475724458694,-1.1923316717147827
1725891656284925200,15.63092529296875,-0.26022839546203613,-0.1870773434638977,-1.332830548286438
1725891656303774200,15.649774169921875,-0.11117739230394363,-0.407599538564682,-1.4812707901000977
1725891656322623200,15.668623291015624,0.001832594396546483,-0.531605064868927,-1.4269037246704102
1725891656341472300,15.68747216796875,-0.012217295356094837,-0.6165152788162231,-1.4415645599365234
1725891656360321300,15.7063212890625,-0.10567960888147354,-0.6262891292572021,-1.5619049072265625
1725891656379170300,15.72517041015625,-0.2260199636220932,-0.7124210596084595,-1.5716787576675415
1725891656398019300,15.744019287109374,-0.23273947834968567,-1.1449133157730103,-1.5863394737243652
1725891656416868000,15.7628681640625,-0.20769402384757996,-1.595731496810913,-1.6468150615692139
1725891656435717000,15.781717041015625,-0.1905898153781891,-1.8779510259628296,-1.694462537765503
1725891656454566100,15.800566162109375,-0.11239911615848541,-1.9781328439712524,-1.7390556335449219
1725891656473415200,15.819415283203124,-0.014049889519810677,-2.0190608501434326,-1.7830379009246826
1725891656492264200,15.83826416015625,-0.01893680728971958,-2.0691516399383545,-1.7274491786956787
1725891656511113200,15.85711328125,-0.09346231073141098,-1.8235840797424316,-1.5319725275039673
1725891656529962200,15.875962158203125,-0.17715078592300415,-1.3043490648269653,-1.288237452507019
1725891656548811000,15.89481103515625,-0.22357651591300964,-0.6232348084449768,-1.0780999660491943
1725891656567660000,15.913659912109376,-0.2156352698802948,-0.042913250625133514,-0.9235512018203735
1725891656586509000,15.932509033203125,-0.26450446248054504,0.485484778881073,-0.7512873411178589
1725891656605358000,15.951358154296875,-0.30482152104377747,0.8947641849517822,-0.46479174494743347
1725891656624207000,15.97020703125,-0.3298669755458832,1.1250602006912231,-0.0322994738817215
1725891656643056000,15.98905615234375,-0.21441353857517242,1.2820523977279663,0.3745364546775818
1725891656661905200,16.0079052734375,0.014660755172371864,1.4756965637207031,0.590171754360199
1725891656680754000,16.02675390625,0.1496618688106537,1.6742275953292847,0.8375719785690308
1725891656699603000,16.04560302734375,0.14782927930355072,1.7298163175582886,1.1533890962600708
1725891656718452000,16.064451904296874,0.15577052533626556,1.7597486972808838,1.4728713035583496
1725891656737301000,16.083301025390625,0.29016077518463135,1.5978695154190063,1.6286418437957764
1725891656756150000,16.10214990234375,0.39400777220726013,1.4115557670593262,1.785634160041809
1725891656774999000,16.1209990234375,0.6108647584915161,1.291215419769287,1.9328525066375732
1725891656793847800,16.139847900390624,0.8662062287330627,1.1690424680709839,2.0403647422790527
1725891656812696800,16.15869677734375,1.0580178499221802,1.1140646934509277,2.0599124431610107
1725891656831545900,16.1775458984375,1.1545344591140747,0.9411898851394653,2.1234424114227295
1725891656850395000,16.196394775390626,1.2290599346160889,0.5984947681427002,2.055636405944824
1725891656869244000,16.215243896484374,1.1154390573501587,0.34865108132362366,1.9365177154541016
1725891656888093000,16.234093017578125,0.7947350740432739,0.21670427918434143,1.9230786561965942
1725891656906941700,16.252941650390625,0.6407971382141113,0.258853942155838,1.8534400463104248
1725891656925790700,16.271790771484376,0.6688969135284424,0.09758564829826355,1.6005420684814453
1725891656944639700,16.2906396484375,0.6181951761245728,0.05482511222362518,1.2835032939910889
1725891656963488800,16.30948876953125,0.545502245426178,-0.017256930470466614,1.0299943685531616
1725891656982337800,16.328337890625,0.4269944727420807,0.004734201822429895,0.7160098552703857
1725891657001186800,16.347186767578126,0.27550002932548523,0.06582067906856537,0.4411207437515259
1725891657020035800,16.366035888671874,0.0720820426940918,0.02672533318400383,0.15523600578308105
1725891657038884600,16.384884521484373,-0.13194678723812103,0.10797034949064255,-0.0836121141910553
1725891657057733600,16.403733642578125,-0.2571740746498108,0.19104796648025513,-0.2570977210998535
1725891657076582700,16.422582763671876,-0.30115634202957153,0.11102467030286789,-0.4006509482860565
1725891657095431700,16.441431640625,-0.3017672002315521,-0.0844520553946495,-0.5423715710639954
1725891657114280700,16.46028076171875,-0.26511532068252563,-0.1259908676147461,-0.6810378432273865
1725891657133129700,16.479129638671875,-0.1905898153781891,-0.17547090351581573,-0.7384591698646545
1725891657151978500,16.497978515625,-0.21319180727005005,-0.16752967238426208,-0.7518981695175171
1725891657170827500,16.51682763671875,-0.2822195291519165,-0.06123919412493706,-0.7909935116767883
1725891657189676500,16.535676513671874,-0.24801109731197357,-0.12660172581672668,-0.9467640519142151
1725891657208525600,16.554525634765625,-0.1337793916463852,-0.1614210158586502,-1.1434625387191772
1725891657227374600,16.57337451171875,-0.03237583488225937,-0.35811948776245117,-1.24058997631073
1725891657246223400,16.592223388671876,0.027488915249705315,-0.6757691502571106,-1.3279436826705933
1725891657265072400,16.611072265625,0.01893680728971958,-0.873078465461731,-1.398193120956421
1725891657283921400,16.62992138671875,-0.007941242307424545,-0.9103412628173828,-1.4605013132095337
1725891657302770400,16.6487705078125,-0.01649334840476513,-0.9402735829353333,-1.5417463779449463
1725891657321619500,16.667619384765626,-0.10751219838857651,-1.085659384727478,-1.6229913234710693
1725891657340468500,16.686468505859374,-0.2712239623069763,-1.3220640420913696,-1.6828560829162598
1725891657359317500,16.7053173828125,-0.4404335021972656,-1.5657991170883179,-1.697516918182373
1725891657378166300,16.724166259765624,-0.42394015192985535,-1.7551672458648682,-1.7750966548919678
1725891657397015300,16.743015380859376,-0.3035998046398163,-1.7930408716201782,-1.7274491786956787
1725891657415864300,16.7618642578125,-0.31154105067253113,-1.9646939039230347,-1.655367136001587
1725891657434713300,16.78071337890625,-0.36651885509490967,-1.7887648344039917,-1.4397319555282593
1725891657453562000,16.79956201171875,-0.3836230933666229,-1.4008656740188599,-1.2662463188171387
1725891657472411100,16.8184111328125,-0.38728827238082886,-0.984255850315094,-1.2192097902297974
1725891657491260200,16.83726025390625,-0.3860665261745453,-0.6275108456611633,-1.1477385759353638
1725891657510109200,16.856109130859377,-0.47464191913604736,-0.2029598206281662,-1.092760682106018
1725891657528958200,16.874958251953124,-0.618806004524231,0.25152358412742615,-1.008461356163025
1725891657547807200,16.89380712890625,-0.6304124593734741,0.6632464528083801,-0.651105523109436
1725891657566656000,16.912656005859375,-0.5601630210876465,0.9460768103599548,-0.09949459880590439
1725891657585505000,16.931505126953127,-0.4679224193096161,1.0804671049118042,0.21571162343025208
1725891657604354000,16.95035400390625,-0.39278605580329895,1.1592686176300049,0.5858956575393677
1725891657623203000,16.969203125,-0.2834412455558777,1.310152292251587,0.9664644598960876
1725891657642051800,16.9880517578125,-0.08368847519159317,1.5080723762512207,1.2499057054519653
1725891657660900900,17.00690087890625,0.12461641430854797,1.651014804840088,1.3403136730194092
1725891657679750000,17.02575,0.1948658674955368,1.6864449977874756,1.485088586807251
1725891657698599000,17.044598876953124,0.26022839546203613,1.7383683919906616,1.73493230342865
1725891657717448000,17.063447998046875,0.42455101013183594,1.7402009963989258,1.9169700145721436
1725891657736297000,17.082296875,0.6786707639694214,1.598480463027954,1.9750021696090698
1725891657755145700,17.101145751953126,0.9224058389663696,1.4127775430679321,2.0195953845977783
1725891657773994800,17.119994873046874,1.0543526411056519,1.1391100883483887,2.0935099124908447
1725891657792843800,17.13884375,1.0769546031951904,0.817184329032898,2.1118359565734863
1725891657811692800,17.15769287109375,1.1038326025009155,0.558788537979126,2.0922882556915283
1725891657830541800,17.176541748046876,1.084285020828247,0.3767508566379547,1.8968114852905273
1725891657849390600,17.195390625,1.008537769317627,0.3266599476337433,1.8045709133148193
1725891657868239600,17.214239501953124,0.813671886920929,0.11835505068302155,1.7666972875595093
1725891657887088600,17.233088623046875,0.6084213256835938,-0.045967575162649155,1.5278491973876953
1725891657905937700,17.251937744140626,0.4874700903892517,0.06765327602624893,1.2260819673538208
1725891657924786400,17.270786376953126,0.48075059056282043,0.009621120058000088,0.9182060956954956
1725891657943635500,17.289635498046874,0.4508182108402252,-0.07162389904260635,0.5920043587684631
1725891657962484500,17.308484375,0.22907429933547974,-0.02764163166284561,0.3470475673675537
1725891657981333500,17.32733349609375,0.031154103577136993,0.060322895646095276,0.1735619604587555
1725891658000182500,17.3461826171875,-0.08429934084415436,-0.1308777779340744,-0.03168861195445061
1725891658019031300,17.36503125,-0.15515965223312378,-0.017867794260382652,-0.31207555532455444
1725891658037880300,17.38388037109375,-0.17715078592300415,0.001679878099821508,-0.5594757795333862
1725891658056729300,17.402729248046874,-0.20280711352825165,-0.0032070400193333626,-0.7751110196113586
1725891658075578400,17.421578369140626,-0.17531819641590118,-0.08078686892986298,-0.8551343083381653
1725891658094427400,17.440427490234374,-0.1496618688106537,-0.18096868693828583,-0.8734602928161621
1725891658113276200,17.459276123046877,-0.13988803327083588,-0.16569706797599792,-0.9058361053466797
1725891658132125200,17.478125244140625,-0.1997527778148651,-0.09178243577480316,-0.9339358806610107
1725891658150974200,17.49697412109375,-0.24006985127925873,-0.1107192412018776,-1.0567196607589722
1725891658169823200,17.5158232421875,-0.24434591829776764,-0.1156061589717865,-1.2509746551513672
1725891658188672000,17.534672119140627,-0.1441640853881836,-0.25732678174972534,-1.3652064800262451
1725891658207521000,17.55352099609375,-0.043982263654470444,-0.6018545031547546,-1.4916554689407349
1725891658226370000,17.5723701171875,-0.006108647678047419,-0.8480330109596252,-1.5808416604995728
1725891658245219000,17.591218994140625,-0.04153880476951599,-0.9622647166252136,-1.5686243772506714
1725891658264067800,17.61006787109375,-0.06597339361906052,-1.1326960325241089,-1.5936698913574219
1725891658282916900,17.628916748046876,-0.14172062277793884,-1.2224931716918945,-1.7066798210144043
1725891658301766000,17.647765869140624,-0.2761108875274658,-1.483943223953247,-1.8319071531295776
1725891658320615000,17.666614990234375,-0.38850998878479004,-1.7460042238235474,-1.860617756843567
1725891658339464000,17.6854638671875,-0.3903425931930542,-1.854127287864685,-1.851454734802246
1725891658358312700,17.704312744140626,-0.34697118401527405,-1.8058689832687378,-1.742110013961792
1725891658377161700,17.72316162109375,-0.4068359434604645,-1.559079647064209,-1.5820634365081787
1725891658396010800,17.7420107421875,-0.5326740741729736,-1.1113157272338867,-1.44584059715271
1725891658414859800,17.76085986328125,-0.5986474752426147,-0.6751583218574524,-1.3279436826705933
1725891658433708500,17.77970849609375,-0.7183769941329956,-0.4185950756072998,-1.176449179649353
1725891658452557600,17.7985576171875,-0.8900299668312073,-0.1003345400094986,-0.9974658489227295
1725891658471406600,17.817406494140624,-0.9737184643745422,0.2991710305213928,-0.8306997418403625
1725891658490255600,17.836255615234375,-0.9608902931213379,0.5233584046363831,-0.6156753301620483
1725891658509104400,17.8551044921875,-0.924238383769989,0.6956222653388977,-0.10560324788093567
1725891658527953400,17.873953369140626,-0.7098248600959778,0.7622065544128418,0.30489787459373474
1725891658546802400,17.892802490234374,-0.46975502371788025,0.8391754627227783,0.5364156365394592
1725891658565651500,17.9116513671875,-0.2565632164478302,1.0383174419403076,0.8045852780342102
1725891658584500500,17.93050048828125,-0.0977383628487587,1.2783873081207275,1.108185052871704
1725891658603349200,17.949349365234376,0.08491020649671555,1.3290890455245972,1.3525309562683105
1725891658622198300,17.9681982421875,0.2767217457294464,1.317482590675354,1.5480077266693115
1725891658641047300,17.98704736328125,0.46608981490135193,1.302211046218872,1.6970586776733398
1725891658659896000,18.00589599609375,0.6157516837120056,1.3406955003738403,1.8607704639434814
1725891658678745000,18.0247451171875,0.7898481488227844,1.3303108215332031,1.960341453552246
1725891658697594000,18.043593994140625,0.9474512934684753,1.2759437561035156,2.0366995334625244
1725891658716443100,18.062443115234377,1.0299180746078491,1.0352630615234375,2.114279270172119
1725891658735292000,18.0812919921875,1.0586286783218384,0.7127264738082886,2.1454334259033203
1725891658754141000,18.100140869140624,1.0836740732192993,0.38408124446868896,2.1185553073883057
1725891658772990000,18.118989990234375,0.9651663303375244,0.19349141418933868,2.029979944229126
1725891658791839000,18.1378388671875,0.8155044913291931,0.1055268943309784,1.9157483577728271
1725891658810687700,18.156687744140626,0.7483093738555908,0.09575305134057999,1.8308380842208862
1725891658829536800,18.175536865234374,0.6524035930633545,-0.06246092543005943,1.6378048658370972
1725891658848385800,18.1943857421875,0.44898560643196106,0.04566214233636856,1.3543635606765747
1725891658867234800,18.21323486328125,0.2779434621334076,0.1617264449596405,1.0764200687408447
1725891658886083600,18.23208349609375,0.17898337543010712,0.20998476445674896,0.7923679947853088
1725891658904932600,18.2509326171875,0.09040798991918564,0.17944152653217316,0.5565741658210754
1725891658923781600,18.26978173828125,0.06536252796649933,0.11285726726055145,0.312228262424469
1725891658942630700,18.288630615234375,-0.01893680728971958,0.07254019379615784,0.07215840369462967
1725891658961479400,18.3074794921875,-0.11117739230394363,0.10674861818552017,-0.13797907531261444
1725891658980328400,18.326328369140626,-0.11728604137897491,0.06704241037368774,-0.3340666890144348
1725891658999177500,18.345177490234374,-0.08613193035125732,0.02916879393160343,-0.5564214587211609
1725891659018026500,18.364026611328125,-0.03298669680953026,-0.049632761627435684,-0.7250201106071472
1725891659036875300,18.382875244140624,-0.046425722539424896,-0.08689551800489426,-0.8361974954605103
1725891659055724300,18.401724365234376,-0.09285144507884979,-0.020311253145337105,-0.8960622549057007
1725891659074573300,18.4205732421875,-0.14721840620040894,0.07315105944871902,-0.9883028268814087
1725891659093422000,18.439422119140627,-0.1698204129934311,0.007177661173045635,-1.1061997413635254
1725891659112271000,18.45827099609375,-0.1997527778148651,-0.014202605932950974,-1.1953860521316528
1725891659131120000,18.4771201171875,-0.2565632164478302,-0.04535670951008797,-1.363373875617981
1725891659149969200,18.49596923828125,-0.18387030065059662,-0.2787070572376251,-1.529529094696045
1725891659168818000,18.51481787109375,-0.009773836471140385,-0.6641627550125122,-1.5448006391525269
1725891659187667000,18.5336669921875,0.11667517572641373,-1.1033744812011719,-1.6449824571609497
1725891659206516000,18.552515869140624,0.03237583488225937,-1.2261583805084229,-1.7195080518722534
1725891659225365000,18.571364990234375,-0.0922405794262886,-1.4283546209335327,-1.8154137134552002
1725891659244213800,18.5902138671875,-0.15088360011577606,-1.5926772356033325,-1.8752784729003906
1725891659263062800,18.609062744140626,-0.24984370172023773,-1.8419100046157837,-1.8991022109985352
1725891659281911800,18.627911865234374,-0.2883281707763672,-2.081979990005493,-1.9479714632034302
1725891659300760600,18.646760498046874,-0.34697118401527405,-1.9879066944122314,-1.899713158607483
1725891659319609600,18.665609619140625,-0.31031930446624756,-1.8620685338974,-1.7818162441253662
1725891659338458600,18.684458740234376,-0.3903425931930542,-1.51448655128479,-1.5423572063446045
1725891659357307600,18.7033076171875,-0.3903425931930542,-1.0661118030548096,-1.3700933456420898
1725891659376156400,18.722156494140624,-0.3543015718460083,-0.5847502946853638,-1.233870506286621
1725891659395005400,18.74100537109375,-0.4734202027320862,-0.40576693415641785,-1.1520146131515503
1725891659413854500,18.7598544921875,-0.6890554428100586,-0.05635227635502815,-0.9705877900123596
1725891659432703200,18.778703125,-0.7220421433448792,0.3633118271827698,-0.7360156774520874
1725891659451552300,18.79755224609375,-0.6029235124588013,0.6571378111839294,-0.3194059133529663
1725891659470401300,18.8164013671875,-0.5027416944503784,0.7658717036247253,0.005574141163378954
1725891659489250000,18.83525,-0.5174024701118469,0.8929315805435181,0.3274998664855957
1725891659508099000,18.85409912109375,-0.41905322670936584,1.0279327630996704,0.7520508766174316
1725891659526948000,18.872947998046875,-0.2559523284435272,1.2490657567977905,1.0458768606185913
1725891659545797000,18.891797119140627,-0.11728604137897491,1.2392919063568115,1.301829218864441
1725891659564646000,18.91064599609375,-0.000610864779446274,1.2527309656143188,1.560835838317871
1725891659583495000,18.929494873046874,0.11972949653863907,1.3584105968475342,1.6952260732650757
1725891659602344000,18.948343994140625,0.29138249158859253,1.4976876974105835,1.8393901586532593
1725891659621192700,18.967192626953125,0.5216785073280334,1.5056289434432983,2.0031020641326904
1725891659640041700,18.986041748046876,0.6065887212753296,1.4579814672470093,2.2779910564422607
1725891659658890800,19.004890869140624,0.6976075768470764,1.2454005479812622,2.3867249488830566
1725891659677739500,19.023739501953123,0.7385355234146118,0.9118683934211731,2.359236240386963
1725891659696588500,19.042588623046875,0.7360920310020447,0.7310523986816406,2.323195219039917
1725891659715437600,19.0614375,0.6988292932510376,0.5557342171669006,2.301203966140747
1725891659734286300,19.080286376953126,0.6774490475654602,0.41218101978302,2.2022438049316406
1725891659753135400,19.09913525390625,0.6194168925285339,0.24602578580379486,2.072129726409912
1725891659771984400,19.117984375,0.48991355299949646,0.10858121514320374,1.8320598602294922
1725891659790833400,19.13683349609375,0.4361574649810791,0.051159925758838654,1.4533237218856812
1725891659809682200,19.15568212890625,0.41905322670936584,0.037720900028944016,1.1515564918518066
1725891659828531200,19.17453125,0.3970620930194855,0.05787943676114082,0.9059888124465942
1725891659847380200,19.193380126953127,0.26389357447624207,0.10919208079576492,0.682412326335907
1725891659866229000,19.21222900390625,0.001221729558892548,0.13179408013820648,0.44173160195350647
1725891659885078000,19.231078125,-0.17715078592300415,0.08842267841100693,0.1778380125761032
1725891659903927000,19.249927001953125,-0.2522871494293213,0.04810560122132301,-0.061620984226465225
1725891659922775800,19.26877587890625,-0.2938259541988373,0.1256854236125946,-0.2998582422733307
1725891659941624800,19.287624755859376,-0.3231474757194519,0.08048143237829208,-0.5765799880027771
1725891659960473900,19.306473876953124,-0.3402516841888428,-0.08933897316455841,-0.7567850947380066
1725891659979322600,19.325322509765623,-0.33169957995414734,-0.07895427197217941,-0.8759037256240845
1725891659998171600,19.344171630859375,-0.2919933497905731,-0.0019853105768561363,-0.9742529392242432
1725891660017020700,19.363020751953126,-0.22296564280986786,-0.15042544901371002,-0.9864702820777893
1725891660035869700,19.38186962890625,-0.15821397304534912,-0.2292270064353943,-0.99257892370224
1725891660054718500,19.400718505859373,-0.10018182545900345,-0.18280129134655,-1.1171953678131104
1725891660073567500,19.4195673828125,-0.06352993845939636,-0.2658788859844208,-1.2650245428085327
1725891660092416500,19.43841650390625,-0.040317077189683914,-0.37094762921333313,-1.5069270133972168
1725891660111265300,19.457265380859376,-0.04214967042207718,-0.5426006317138672,-1.725616693496704
1725891660130114300,19.4761142578125,-0.031154103577136993,-0.6843212842941284,-1.7647119760513306
1725891660148963300,19.49496337890625,-0.07452550530433655,-0.8046616315841675,-1.5698461532592773
1725891660167812000,19.51381201171875,-0.11972949653863907,-1.050840139389038,-1.5625157356262207
1725891660186661000,19.5326611328125,-0.26878049969673157,-1.225547432899475,-1.6791908740997314
1725891660205510000,19.551510009765625,-0.3952295184135437,-1.4998257160186768,-1.8630611896514893
1725891660224359000,19.57035888671875,-0.36163195967674255,-1.7014111280441284,-1.9204825162887573
1725891660243208000,19.5892080078125,-0.2614501118659973,-1.5291472673416138,-1.7469968795776367
1725891660262056700,19.608056640625,-0.15821397304534912,-1.5780164003372192,-1.759214162826538
1725891660280905700,19.62690576171875,-0.24801109731197357,-1.409417748451233,-1.638873815536499
1725891660299754800,19.645754638671875,-0.3347539007663727,-1.1186461448669434,-1.4421753883361816
1725891660318603500,19.664603515625,-0.40378162264823914,-0.8083268404006958,-1.2314270734786987
1725891660337452500,19.68345263671875,-0.4263836145401001,-0.4021017551422119,-1.1587340831756592
1725891660356301600,19.702301513671873,-0.4825831651687622,0.1519526094198227,-1.2314270734786987
1725891660375150300,19.721150390625,-0.6542361974716187,0.3150535225868225,-1.1758383512496948
1725891660393999400,19.739999267578124,-0.6945532560348511,0.6473639607429504,-0.48250681161880493
1725891660412848400,19.758848388671876,-0.4880809485912323,0.7475457787513733,-0.03535379841923714
1725891660431697200,19.777697265625,-0.3439168632030487,0.7970257997512817,0.23220497369766235
1725891660450546200,19.796546142578126,-0.07391463965177536,0.9204205274581909,0.5443568825721741
1725891660469395200,19.815395263671874,0.13439024984836578,1.2380702495574951,0.7184533476829529
1725891660488244000,19.834243896484374,0.1802051067352295,1.136055827140808,1.053207278251648
1725891660507093000,19.853093017578125,0.31154105067253113,1.2020292282104492,1.4014002084732056
1725891660525942000,19.87194189453125,0.471587598323822,1.3162609338760376,1.5095232725143433
1725891660544790800,19.890790771484376,0.5839866995811462,1.4323252439498901,1.681787133216858
1725891660563639800,19.909639892578124,0.7654135823249817,1.401171088218689,1.9065853357315063
1725891660582488600,19.928488525390627,0.8845322132110596,1.3150391578674316,2.0421972274780273
1725891660601337600,19.947337646484375,0.972496747970581,1.167820692062378,2.161926746368408
1725891660620186600,19.9661865234375,1.008537769317627,0.8892664313316345,2.242560863494873
1725891660639035400,19.985035400390625,0.9419534802436829,0.5624537467956543,2.208352565765381
1725891660657884400,20.003884521484373,0.860708475112915,0.45310893654823303,2.1906373500823975
1725891660676733400,20.0227333984375,0.8393282294273376,0.43661558628082275,2.147266149520874
1725891660695582200,20.041582275390624,0.748920202255249,0.28756460547447205,1.9896628856658936
1725891660714431200,20.06043115234375,0.48991355299949646,0.30894485116004944,1.8638248443603516
1725891660733280300,20.0792802734375,0.2565632164478302,0.17516547441482544,1.6995022296905518
1725891660752129000,20.09812890625,0.2718348205089569,0.24541492760181427,1.347033143043518
1725891660770978000,20.11697802734375,0.3481929302215576,0.15073087811470032,1.0416008234024048
1725891660789827000,20.1358271484375,0.27488914132118225,0.09819651395082474,0.7624356150627136
1725891660808675800,20.15467578125,0.11606431007385254,0.07192932814359665,0.5755109786987305
1725891660827524900,20.17352490234375,-0.020769402384757996,0.0102319847792387,0.32444554567337036
1725891660846373600,20.19237353515625,-0.13561198115348816,-0.15470150113105774,-0.023747367784380913
1725891660865222700,20.21122265625,-0.2412915825843811,-0.03130681812763214,-0.28153231739997864
1725891660884071700,20.23007177734375,-0.21258094906806946,0.03955349326133728,-0.5032762289047241
1725891660902920400,20.24892041015625,-0.2107483446598053,0.007788525894284248,-0.7231875658035278
1725891660921769500,20.26776953125,-0.21930044889450073,-0.14737112820148468,-0.7311288118362427
1725891660940618500,20.286618408203125,-0.18814635276794434,-0.24083344638347626,-0.7806088328361511
1725891660959467300,20.30546728515625,-0.09040798991918564,-0.05146535858511925,-0.8972840309143066
1725891660978316300,20.32431640625,-0.0054977829568088055,-0.22250749170780182,-0.8771254420280457
1725891660997165000,20.3431650390625,-0.05497783049941063,-0.3214675784111023,-0.9119447469711304
1725891661016014000,20.36201416015625,-0.14172062277793884,-0.2383899837732315,-1.1801143884658813
1725891661034863000,20.380863037109375,-0.05864302068948746,-0.2964221239089966,-1.4513384103775024
1725891661053712000,20.3997119140625,0.07452550530433655,-0.5474875569343567,-1.5655701160430908
1725891661072561000,20.418560791015626,0.07147117704153061,-0.8333722949028015,-1.6492584943771362
1725891661091409700,20.43740966796875,0.017104214057326317,-0.975092887878418,-1.7298927307128906
1725891661110258700,20.4562587890625,-0.020769402384757996,-0.9598212838172913,-1.7286709547042847
1725891661129107700,20.475107666015624,-0.12095122784376144,-0.9714277386665344,-1.7543272972106934
1725891661147956500,20.49395654296875,-0.2522871494293213,-1.1491893529891968,-1.891771912574768
1725891661166805500,20.512805419921875,-0.45326167345046997,-1.3238966464996338,-1.9693516492843628
1725891661185654500,20.531654541015627,-0.46547895669937134,-1.4643956422805786,-1.9174281358718872
1725891661204503300,20.55050341796875,-0.4526508152484894,-1.7124066352844238,-1.8648937940597534
1725891661223352300,20.569352294921874,-0.4367683231830597,-1.698967695236206,-1.6724714040756226
1725891661242201000,20.588201171875,-0.40317076444625854,-1.144302487373352,-1.464166522026062
1725891661261050000,20.607050048828125,-0.360410213470459,-0.7637336850166321,-1.4073561429977417
1725891661279899000,20.62589892578125,-0.4221075773239136,-0.5926915407180786,-1.3193916082382202
1725891661298748000,20.644747802734376,-0.5186241865158081,-0.2438877671957016,-1.1440733671188354
1725891661317597000,20.663596923828123,-0.5766563415527344,0.07559451460838318,-0.9718095064163208
1725891661336445700,20.68244580078125,-0.6078104376792908,0.40607234835624695,-0.7635046243667603
1725891661355294700,20.701294677734374,-0.5558869242668152,0.6094903349876404,-0.3340666890144348
1725891661374143700,20.720143798828126,-0.4379900395870209,0.8122974634170532,0.1430187225341797
1725891661392992500,20.738992431640625,-0.3915643095970154,0.8819360136985779,0.48327040672302246
1725891661411841500,20.757841552734376,-0.3072649836540222,0.957683265209198,0.8558979034423828
1725891661430690300,20.776690185546876,-0.18081597983837128,1.0994038581848145,1.1387282609939575
1725891661449539300,20.795539306640624,-0.001221729558892548,1.3406955003738403,1.284114122390747
1725891661468388000,20.81438818359375,0.04276053607463837,1.3009892702102661,1.4911972284317017
1725891661487237000,20.833237060546875,0.06780599057674408,1.3529127836227417,1.829005479812622
1725891661506086100,20.852086181640626,0.27916520833969116,1.3920080661773682,1.9640066623687744
1725891661524935000,20.870934814453125,0.48013970255851746,1.5239548683166504,2.0177626609802246
1725891661543784000,20.889783935546873,0.6212494969367981,1.4005602598190308,2.127107620239258
1725891661562632700,20.9086328125,0.7703005075454712,1.1226167678833008,2.1771984100341797
1725891661581481700,20.927481689453124,0.8265000581741333,0.8275690674781799,2.212017774581909
1725891661600330800,20.946330810546876,0.8729257583618164,0.6137663722038269,2.1930809020996094
1725891661619179500,20.965179443359375,0.8973603844642639,0.5117519497871399,2.1374921798706055
1725891661638028500,20.984028564453126,0.7654135823249817,0.3223838806152344,2.0391430854797363
1725891661656877300,21.002877197265626,0.6444623470306396,0.18493930995464325,1.976834774017334
1725891661675726300,21.021726318359374,0.5100721120834351,0.09086613357067108,1.7593668699264526
1725891661694575400,21.040575439453125,0.4526508152484894,0.2759581506252289,1.412395715713501
1725891661713424100,21.059424072265625,0.4318813979625702,0.17516547441482544,1.119180679321289
1725891661732273200,21.078273193359376,0.36774060130119324,0.12873975932598114,0.8259655237197876
1725891661751122000,21.097121826171875,0.2981020212173462,0.024892739951610565,0.6072759628295898
1725891661769971000,21.115970947265627,0.08857539296150208,0.050549060106277466,0.3635408878326416
1725891661788819700,21.13481982421875,-0.11606431007385254,-0.05818486958742142,0.1943313628435135
1725891661807668700,21.153668701171874,-0.22296564280986786,0.08781181275844574,-0.04696023091673851
1725891661826517800,21.172517822265625,-0.23945899307727814,0.06520981341600418,-0.2381609082221985
1725891661845366500,21.191366455078125,-0.25534147024154663,0.07620538026094437,-0.42019861936569214
1725891661864215600,21.210215576171876,-0.28588470816612244,0.011453714221715927,-0.5881864428520203
1725891661883064300,21.229064208984376,-0.3231474757194519,-0.10216713696718216,-0.7525090575218201
1725891661901913300,21.247913330078124,-0.3243691921234131,0.07315105944871902,-0.8465822339057922
1725891661920762000,21.26676220703125,-0.2516762912273407,-0.049632761627435684,-0.890564501285553
1725891661939611100,21.285611083984374,-0.2632827162742615,-0.06062832847237587,-0.9663116931915283
1725891661958460200,21.304460205078126,-0.20891575515270233,-0.04474584385752678,-1.0707695484161377
1725891661977309000,21.323308837890625,-0.021380268037319183,-0.24327689409255981,-1.2943460941314697
1725891661996158000,21.342157958984377,0.12644900381565094,-0.5090031027793884,-1.4433971643447876
1725891662015006700,21.3610068359375,0.12034036219120026,-0.7142536640167236,-1.5240312814712524
1725891662033855700,21.379855712890624,0.09407317638397217,-0.8071050643920898,-1.602221965789795
1725891662052704500,21.39870458984375,0.014660755172371864,-0.7857248187065125,-1.676747441291809
1725891662071553500,21.417553466796875,-0.05436696484684944,-0.8852958083152771,-1.8203006982803345
1725891662090402300,21.43640234375,-0.17348559200763702,-1.1937824487686157,-1.915595531463623
1725891662109251300,21.455251220703126,-0.2254091054201126,-1.5548036098480225,-2.0237185955047607
1725891662128100000,21.47410009765625,-0.25045454502105713,-1.6354377269744873,-1.908265233039856
1725891662146949000,21.49294921875,-0.3237583339214325,-1.6293290853500366,-1.860617756843567
1725891662165798000,21.5117978515625,-0.3799578845500946,-1.5535818338394165,-1.8013638257980347
1725891662184647000,21.53064697265625,-0.3897317349910736,-1.2487603425979614,-1.572900414466858
1725891662203496000,21.549495849609375,-0.41294458508491516,-0.9818124175071716,-1.4238494634628296
1725891662222344700,21.5683447265625,-0.4783071279525757,-0.6678279042243958,-1.279685378074646
1725891662241193700,21.58719384765625,-0.5143481492996216,-0.3611738085746765,-1.1355212926864624
1725891662260042500,21.60604248046875,-0.5589412450790405,0.04566214233636856,-1.0542762279510498
1725891662278891500,21.6248916015625,-0.6536253094673157,0.2032652497291565,-0.9211077094078064
1725891662297740300,21.643740234375,-0.6652317643165588,0.5392408967018127,-0.4928915202617645
1725891662316589300,21.66258935546875,-0.48075059056282043,0.8709404468536377,-0.07506000995635986
1725891662335438000,21.68143798828125,-0.34086254239082336,1.0077741146087646,0.1631772518157959
1725891662354287000,21.700287109375,-0.20158538222312927,1.0541999340057373,0.58039790391922
1725891662373136000,21.719135986328126,-0.12400554865598679,1.1659882068634033,0.8937715291976929
1725891662391985000,21.73798486328125,-0.01954767294228077,1.3871212005615234,1.1582759618759155
1725891662410833700,21.756833740234374,0.19425499439239502,1.6009238958358765,1.3714678287506104
1725891662429682700,21.7756826171875,0.3958403766155243,1.6387975215911865,1.5223513841629028
1725891662448531700,21.79453173828125,0.4612029194831848,1.6003129482269287,1.7422627210617065
1725891662467380500,21.81338037109375,0.5980366468429565,1.4995203018188477,1.9316308498382568
1725891662486229500,21.8322294921875,0.8338304162025452,1.3883429765701294,1.932241678237915
1725891662505078300,21.851078369140627,0.9920443892478943,1.2637264728546143,1.9304090738296509
1725891662523927300,21.86992724609375,1.043357014656067,1.0822997093200684,2.0727405548095703
1725891662542776000,21.888776123046874,1.01708984375,0.7078395485877991,2.147266149520874
1725891662561625000,21.907625,0.9584468603134155,0.5331322550773621,2.0812926292419434
1725891662580473900,21.926473876953125,0.8820887207984924,0.5074759125709534,2.01287579536438
1725891662599323000,21.945322998046876,0.7837395071983337,0.34498587250709534,1.902920126914978
1725891662618171600,21.964171630859376,0.7055488228797913,0.30344706773757935,1.8076252937316895
1725891662637020700,21.983020751953124,0.6982184648513794,0.21548254787921906,1.6634612083435059
1725891662655869400,22.001869384765627,0.6511818766593933,0.15378521382808685,1.2712860107421875
1725891662674718500,22.020718505859374,0.49663305282592773,0.21120649576187134,0.9548580050468445
1725891662693567200,22.039567138671874,0.41355544328689575,0.11652245372533798,0.6482039093971252
1725891662712416300,22.058416259765625,0.2974911332130432,0.05238165333867073,0.30978479981422424
1725891662731265000,22.07726513671875,0.18081597983837128,0.056657709181308746,0.1417969912290573
1725891662750114000,22.096114013671876,0.1026252806186676,0.04932733252644539,-0.05734493210911751
1725891662768963000,22.114963134765624,0.06780599057674408,0.07254019379615784,-0.29130613803863525
1725891662787811800,22.133811767578123,0.034208428114652634,-0.007483093533664942,-0.5185478329658508
1725891662806660600,22.15266064453125,-0.020769402384757996,-0.03130681812763214,-0.7378482818603516
1725891662825509600,22.171509521484374,-0.08674279600381851,-0.14370593428611755,-0.8252019882202148
1725891662844358700,22.190358642578126,-0.12644900381565094,-0.09605848789215088,-0.871627688407898
1725891662863207400,22.20920751953125,-0.17531819641590118,0.003512472379952669,-0.9583705067634583
1725891662882056400,22.228056396484376,-0.14049890637397766,-0.08872810751199722,-1.0780999660491943
1725891662900905200,22.2469052734375,-0.06963858753442764,-0.18890993297100067,-1.16789710521698
1725891662919754000,22.26575390625,0.020158538594841957,-0.43569931387901306,-1.2662463188171387
1725891662938603000,22.28460302734375,0.08979712426662445,-0.6409498453140259,-1.33527410030365
1725891662957452000,22.3034521484375,0.13133592903614044,-0.7985529899597168,-1.4659991264343262
1725891662976300800,22.32230078125,0.06902772188186646,-0.9060651659965515,-1.655367136001587
1725891662995149800,22.34114990234375,-0.04520399495959282,-0.910952091217041,-1.7347795963287354
1725891663013998600,22.35999853515625,-0.08552107214927673,-1.0245729684829712,-1.7176754474639893
1725891663032847400,22.378847412109376,-0.1740964651107788,-1.1406372785568237,-1.757381558418274
1725891663051696400,22.3976962890625,-0.31581708788871765,-1.364824652671814,-1.888717532157898
1725891663070545400,22.41654541015625,-0.39217519760131836,-1.585957646369934,-1.9326997995376587
1725891663089394200,22.435394287109375,-0.31520622968673706,-1.6739221811294556,-1.835572361946106
1725891663108243000,22.454242919921874,-0.2675587832927704,-1.717293620109558,-1.795255184173584
1725891663127092000,22.473092041015626,-0.28405213356018066,-1.576183795928955,-1.6969059705734253
1725891663145941000,22.49194091796875,-0.3249800503253937,-1.23654305934906,-1.5050944089889526
1725891663164789800,22.510789794921877,-0.3243691921234131,-0.8388700485229492,-1.2931244373321533
1725891663183638500,22.529638427734376,-0.3549124300479889,-0.5853611826896667,-1.2137119770050049
1725891663202487600,22.548487548828124,-0.5235111117362976,-0.27137666940689087,-1.1617884635925293
1725891663221336300,22.56733642578125,-0.6487383842468262,0.21914774179458618,-1.0414481163024902
1725891663240185300,22.586185302734375,-0.6206386089324951,0.28756460547447205,-0.6816487312316895
1725891663259034000,22.6050341796875,-0.5613847374916077,0.3657552897930145,-0.23449571430683136
1725891663277883100,22.623883056640626,-0.4630354940891266,0.49342602491378784,-0.04390590637922287
1725891663296732000,22.64273193359375,-0.3384190797805786,0.7011200785636902,0.270689457654953
1725891663315581000,22.661580810546877,-0.17287473380565643,0.8868229389190674,0.5779544115066528
1725891663334429700,22.6804296875,-0.07330377399921417,0.9973894953727722,0.8919389247894287
1725891663353278700,22.69927880859375,0.047036588191986084,1.0822997093200684,1.237688422203064
1725891663372127500,22.71812744140625,0.22907429933547974,1.28083074092865,1.4545453786849976
1725891663390976500,22.7369765625,0.3860665261745453,1.4188861846923828,1.653076410293579
1725891663409825300,22.7558251953125,0.42882707715034485,1.448818564414978,1.9646174907684326
1725891663428674300,22.77467431640625,0.5082395076751709,1.5337287187576294,2.172922372817993
1725891663447523000,22.793523193359373,0.6420188546180725,1.4127775430679321,2.2040765285491943
1725891663466372000,22.8123720703125,0.7128791809082031,1.2032508850097656,2.2834889888763428
1725891663485220900,22.831220947265624,0.8197805285453796,0.8129082918167114,2.3305253982543945
1725891663504070000,22.85006982421875,0.905912458896637,0.5325213670730591,2.306090831756592
1725891663522918700,22.868918701171875,0.8142827749252319,0.41645705699920654,2.1790311336517334
1725891663541767400,22.887767333984375,0.7238747477531433,0.31322091817855835,2.0513603687286377
1725891663560616400,22.906616455078126,0.6792816519737244,0.16355904936790466,1.8949788808822632
1725891663579465200,22.92546533203125,0.5296197533607483,0.10980294644832611,1.6646828651428223
1725891663598314200,22.944314208984373,0.3854556679725647,0.12263110280036926,1.4374412298202515
1725891663617163000,22.9631630859375,0.3384190797805786,0.11957678198814392,1.1057416200637817
1725891663636012000,22.982011962890624,0.27916520833969116,0.11774418503046036,0.8106939196586609
1725891663654860800,23.00086083984375,0.20219624042510986,0.14828743040561676,0.6359865665435791
1725891663673709800,23.019709716796875,0.09834922850131989,0.14706569910049438,0.47410741448402405
1725891663692558600,23.03855859375,-0.0054977829568088055,0.08292489498853683,0.2871828079223633
1725891663711407600,23.05740771484375,-0.12095122784376144,0.14523309469223022,0.04528035223484039
1725891663730256400,23.07625634765625,-0.20158538222312927,0.08536835014820099,-0.15935935080051422
1725891663749105400,23.09510546875,-0.21930044889450073,0.10980294644832611,-0.37865981459617615
1725891663767954200,23.1139541015625,-0.17165300250053406,0.04627300798892975,-0.5674170255661011
1725891663786803000,23.132802978515624,-0.11056652665138245,-0.10277800261974335,-0.696309506893158
1725891663805652000,23.15165185546875,-0.09346231073141098,-0.1718057245016098,-0.7916043996810913
1725891663824500700,23.170500732421875,-0.08613193035125732,-0.2493855506181717,-0.8948405385017395
1725891663843349800,23.189349853515626,-0.1331685185432434,-0.20540328323841095,-1.0243438482284546
1725891663862198500,23.208198486328126,-0.17531819641590118,-0.1107192412018776,-1.1312452554702759
1725891663881047600,23.227047607421873,-0.13439024984836578,-0.24144430458545685,-1.2766309976577759
1725891663899896300,23.245896240234377,-0.07391463965177536,-0.43692103028297424,-1.4324015378952026
1725891663918745300,23.264745361328124,-0.046425722539424896,-0.6647735834121704,-1.536859393119812
1725891663937594000,23.283593994140624,0.006108647678047419,-0.8498656153678894,-1.6089414358139038
1725891663956443100,23.302443115234375,0.015271619893610477,-1.0184643268585205,-1.6608649492263794
1725891663975292000,23.3212919921875,0.006719512399286032,-1.0740530490875244,-1.704236388206482
1725891663994140700,23.340140625,-0.06414080411195755,-1.1504111289978027,-1.767155408859253
1725891664012989700,23.35898974609375,-0.25045454502105713,-1.2585341930389404,-1.9424736499786377
1725891664031838500,23.37783837890625,-0.3909534513950348,-1.4051417112350464,-2.0066144466400146
1725891664050687500,23.3966875,-0.3909534513950348,-1.5291472673416138,-1.926591157913208
1725891664069536300,23.415536376953124,-0.39828383922576904,-1.7960951328277588,-1.8795545101165771
1725891664088385000,23.434385009765624,-0.4147771894931793,-1.7673845291137695,-1.7463860511779785
1725891664107234000,23.453234130859375,-0.42882707715034485,-1.4411827325820923,-1.604054570198059
