time,seconds_elapsed,z,y,x
1725629631602334500,0.03333447265625,-0.18584464317262173,-0.2587877143085003,-1.2535599455334245
1725629631612368600,0.04336865234375,0.26477614106833935,-0.3108352969318628,-1.435344061268866
1725629631622402600,0.053402587890625,0.6369400591880082,-0.3216635649383068,-1.6668746430784462
1725629631632436500,0.0634365234375,0.855605021944642,-0.3087970691025257,-1.6806221595324575
1725629631642470700,0.073470703125,0.8385784838199615,-0.25712416501045227,-1.4420324529916047
1725629631652504600,0.083504638671875,0.7756061870783567,-0.17742577439546584,-1.697978660263866
1725629631662538500,0.09353857421875,0.46485389225482937,0.17820786468386648,-1.340555361288786
1725629631672572700,0.10357275390625,1.0007833082079887,2.239721292540431,-1.3032874146461486
1725629631682606600,0.113606689453125,0.10064297896623611,3.177172238522768,-1.444748287821561
1725629631692640500,0.123640625,-0.8702852892041206,1.6702210308969019,-0.3073214435920119
1725629631702674700,0.1336748046875,-0.8609633341073989,0.006639584144949913,0.02886456769555807
1725629631712708600,0.14370849609375,-0.19139760112464427,-0.19076573296189306,-0.9135520378701388
1725629631722742500,0.153742431640625,0.7310504215151071,-0.41841771977245806,-0.2881833201408386
1725629631732776700,0.163776611328125,1.3395225111097098,0.21779227157533168,-0.5801895595706998
1725629631742810400,0.173810302734375,1.0949825178623198,0.8968751899659633,-1.5157140675351022
1725629631752844500,0.183844482421875,0.26273089897632596,0.2592588389515877,-1.5957700394161045
1725629631762878700,0.193878662109375,-0.6528636045068502,-0.5830787051409483,-0.8049165988452732
1725629631772912400,0.203912353515625,-1.1950929973870514,-1.2784060713678598,0.9916631592936813
1725629631782946600,0.213946533203125,-0.9643407064735889,-1.5635498776823282,3.253135534262657
1725629631792980700,0.223980712890625,-0.36326164973974223,-0.30689678843915463,3.571040623450279
1725629631803014400,0.234014404296875,-0.038671968221664424,1.4712375046879052,2.4079728497467934
1725629631813048600,0.244048583984375,-0.2234720707774162,1.8926298563569783,1.6288573393732309
1725629631823082800,0.254082763671875,-0.6024860009223222,1.3591986869603394,1.1152079981587826
1725629631833117400,0.264117431640625,-1.0846791505128144,1.0752847147017717,0.4643159859858453
1725629631843151600,0.274151611328125,-1.51141929295063,1.052514079967141,-0.23292685847356914
1725629631853185500,0.284185546875,-1.6534014135211705,0.8654191444724798,-0.730812959497422
1725629631863219500,0.294219482421875,-1.837556788432598,0.768591339880228,-1.0079520307935774
1725629631873253600,0.304253662109375,-1.6977309691131115,0.8210176926881074,-0.958978594918549
1725629631883287600,0.31428759765625,-1.558861427605152,1.0795756898939608,-0.4722513090297579
1725629631893321500,0.324321533203125,-1.2725988463938236,1.0669558622956274,-0.5438444268614053
1725629631903355600,0.334355712890625,-1.0096142649173736,0.9048398852348327,-0.867494489441812
1725629631913389600,0.3443896484375,-1.0073200165003537,1.060062011128664,-0.969553180424869
1725629631923423500,0.354423583984375,-0.8713853594005108,1.596195425221324,0.0015247253492474556
1725629631933457700,0.364457763671875,-0.7505401348829269,1.2556833674281835,-1.1872639111965895
1725629631943491600,0.37449169921875,-1.2410504464417695,1.26646954985857,-2.75590088288486
1725629631953525500,0.384525390625,-1.3320219262212514,1.1645309781238435,-2.854080102086067
1725629631963559700,0.3945595703125,-0.46321255478858947,0.3017033114492893,-2.312467379799485
1725629631973593600,0.404593505859375,0.3956196125090122,0.500989035475254,-3.238422533777356
1725629631983627500,0.41462744140625,0.6571914045780897,-0.34296032772809265,-2.6842124879851936
1725629631993661700,0.42466162109375,0.1653542283296585,-0.981630863970518,-2.7748054898411034
1725629632003695400,0.4346953125,-0.7594318818688393,-1.171117370776832,-3.0955227138400074
1725629632013729500,0.4447294921875,-1.1936311081409454,-0.8026315566480159,-3.534768117585778
1725629632023763700,0.454763671875,-1.437307762557268,-0.19426468099355695,-4.158372309860587
1725629632033797400,0.46479736328125,-1.4929682749807833,-0.026943828766047954,-3.650112991121411
1725629632043831600,0.47483154296875,-0.8541507314831018,-0.24635142658352852,-3.1504549119889735
1725629632053865700,0.48486572265625,-0.16015899777412412,-0.516795091894269,-2.969206364434957
1725629632063899400,0.4948994140625,-0.505459458887577,-0.15744038646519184,-2.7358599653750657
1725629632073933600,0.50493359375,-0.5575672472655773,0.8955576776266098,-2.6549235573977232
1725629632083968500,0.514968505859375,-0.22778934945464133,1.6920220899470149,-2.312113159534335
1725629632094002400,0.52500244140625,-0.07988426857590675,1.925296154423058,-1.6124743598490952
1725629632104036600,0.53503662109375,0.392953023648262,1.654043072425574,-0.7379910344332457
1725629632114070500,0.545070556640625,1.1747007822215556,1.6213265054769812,0.18093641286492346
1725629632124104400,0.5551044921875,1.3320862236291169,2.0394579556539654,-0.11016834768056868
1725629632134138600,0.565138671875,1.3008219013154505,2.657989374709129,-0.85247549174726
1725629632144172500,0.575172607421875,4.109127509698271,3.30631942743957,-1.4320774606883524
1725629632154206500,0.58520654296875,5.652368174323439,3.793734111070633,-0.9296358883172273
1725629632164240600,0.59524072265625,5.76298075864017,4.253215078115463,0.21989245872497556
1725629632174274600,0.605274658203125,4.823936990508437,4.935371412602067,1.888700700214505
1725629632184308500,0.61530859375,3.5042391238093376,5.936348782077431,2.548074125006795
1725629632194342700,0.6253427734375,2.8698610240638254,6.783609754046798,2.405434417310357
1725629632204376600,0.63537646484375,3.393091701963544,6.884131736981868,2.316553772330284
1725629632214410500,0.645410400390625,3.9318437741219996,6.97413466399014,1.5171014302402734
1725629632224444700,0.655444580078125,3.5397137572944164,7.397871532958746,0.1419821205705404
1725629632234478600,0.665478515625,2.581557876935601,7.770818710410595,-0.5548720168322324
1725629632244512500,0.675512451171875,2.221816802537441,8.070834507164358,-0.5845528693467378
1725629632254546700,0.685546630859375,1.7162053679585456,8.516733523580431,-0.4688894313812256
1725629632264580600,0.69558056640625,0.633809359946847,8.866180582979322,0.22422844210267065
1725629632274614500,0.705614501953125,-0.9233639684408903,8.544753749406338,1.3535083663642407
1725629632284648700,0.715648681640625,-3.016691753709316,8.019988117024303,2.186339246442914
1725629632294682600,0.7256826171875,-4.415392429974675,7.314677701443434,2.621606978729367
1725629632304716500,0.735716552734375,-5.028648246714472,6.508895571810006,2.5406314077854155
1725629632314750700,0.745750732421875,-5.17145571219325,5.563862207874656,2.0299948385208846
1725629632324784600,0.75578466796875,-4.931090374282002,4.154293223853409,1.8509563682317733
1725629632334818600,0.765818603515625,-5.085402399593591,2.6401906831681727,1.8509283111810684
1725629632344853800,0.775853759765625,-5.704925460034609,1.2002364977553486,1.9042559967428445
1725629632354887400,0.785887451171875,-6.575922696900367,-0.3453904774844646,1.8488801464796065
1725629632364921600,0.795921630859375,-7.361783151489496,-1.7081956645041703,1.723101557213068
1725629632374955800,0.805955810546875,-8.647469442993401,-3.0622087655201553,1.4816741430282592
1725629632384989400,0.815989501953125,-12.800854027569294,-5.45251371049881,0.40136955433785915
1725629632395023600,0.826023681640625,-10.880908878785371,-7.0787038764894,0.6763783356070519
1725629632405057800,0.836057861328125,-8.74381969320178,-8.082174816346168,0.12379355292916297
1725629632415091500,0.846091552734375,-12.91719960258007,-9.50852746964693,-3.080519790497422
1725629632425125600,0.856125732421875,-14.423224927532672,-10.324152947902679,-5.079067935875058
1725629632435159800,0.866159912109375,-13.394833481431007,-10.87290794315934,-5.656028450396657
1725629632445193500,0.876193359375,-14.611784674882887,-11.080779124701023,-7.108418046751618
1725629632455227600,0.8862275390625,-12.248098564499616,-9.672874566760658,-6.964408804267644
1725629632465261800,0.89626171875,-7.923753017628193,-6.68520666296184,-4.415824976173043
1725629632475295500,0.90629541015625,-6.337278775954246,-4.647526822896301,-3.5178871254116295
1725629632485329700,0.91632958984375,-5.354709169828891,-3.2800019138783214,-4.735905655834078
1725629632495363600,0.926363525390625,-3.8205607431977984,-2.8673288752377033,-5.293169536238908
1725629632505397500,0.9363974609375,-2.3737279041871426,-2.883099860343337,-4.990435712698102
1725629632515431700,0.946431640625,-1.551257674603164,-2.58636177008599,-5.164534388497471
1725629632525465600,0.956465576171875,-0.7409937233805656,-1.9623086649999022,-5.311759085896611
1725629632535499500,0.96649951171875,0.059879591423273086,-1.2967884080156684,-4.066342845460772
1725629632545533700,0.97653369140625,0.5959393557578325,-0.8216160969726741,-1.110381747046113
1725629632555567600,0.986567626953125,1.1940005259752273,-0.10468319426774977,0.2908937481433153
1725629632565601500,0.9966015625,-0.020744681864976883,-0.4901791799083352,1.3245593352556229
1725629632575635700,1.0066357421875,0.46402650151997804,0.53645504726246,4.58155446755588
1725629632585669600,1.016669677734375,-0.5243889080241322,1.6992732301190494,6.256494928190111
1725629632595703600,1.02670361328125,-0.6456120259433984,-0.36556320468038317,3.590858253598213
1725629632605737700,1.03673779296875,1.5344775124549865,-1.5392365435503423,1.77112178401649
1725629632615772400,1.0467724609375,2.680168473291397,-1.3227686524465678,0.7053408107191323
1725629632625806600,1.056806640625,2.849393697835505,-1.0068269722864032,-0.7866951518476009
1725629632635840800,1.0668408203125,2.3204697767302394,0.33140535288229583,-1.8975848484158515
1725629632645874400,1.07687451171875,0.980027228166163,2.6620167305290696,-2.62143396025002
1725629632655908000,1.086908203125,1.336890409040451,3.2892131020769475,1.65176124509871
1725629632665942300,1.0969423828125,3.4618718082010744,4.003317649488151,5.904394723933935
1725629632675976200,1.10697607421875,4.559391735586524,5.1970495876550675,6.607739392399788
1725629632686010000,1.117010009765625,4.1087952090039845,4.861311612395942,6.175988143801689
1725629632696044300,1.127044189453125,2.072569951660931,3.7480499259993434,4.778062543562054
1725629632706078200,1.137078125,-0.7054016009956597,2.865025858992338,1.8508640137732029
1725629632716112100,1.147112060546875,-2.334538341832161,1.934120973652601,-1.2111083126425743
1725629632726146300,1.157146240234375,-2.0729905151605603,0.6278142111852765,-2.4746289495676757
1725629632736180200,1.16718017578125,-0.591404634937644,0.3714708212889731,-3.5574358764678236
1725629632746214100,1.177214111328125,0.6272568695634603,1.004375925872475,-4.7677831416100265
1725629632756248300,1.187248291015625,0.42052988962084054,0.907018544448167,-4.783149053046107
1725629632766282200,1.1972822265625,-0.6607213322699069,0.5814945046894252,-4.23464540220201
1725629632776316200,1.207316162109375,-1.5131681824445724,0.2855868739068508,-3.9107337660759685
1725629632786350300,1.217350341796875,-1.6267653355300427,0.5724930137187242,-4.128533051913976
1725629632796384300,1.22738427734375,-1.348624978236854,0.7695790357433259,-4.693904250928759
1725629632806418200,1.237418212890625,-1.006806806281209,0.34978125978931784,-4.991093884345889
1725629632816452400,1.247452392578125,-0.30960663191974164,0.5405936083719134,-5.392382774662972
1725629632826486000,1.257486083984375,0.04057692506015301,1.0639011509001255,-4.715800440916419
1725629632836520200,1.267520263671875,-0.2618070621296763,1.3897811644896865,-2.6483985395431517
1725629632846554400,1.277554443359375,0.15397066452801228,1.3215496320456266,-0.8289689439535141
1725629632856588000,1.287588134765625,1.006698669731617,0.7814476065829395,-0.7409931388586759
1725629632866622200,1.297622314453125,1.9707751723110674,0.1946604023128748,-1.4879337879449128
1725629632876656400,1.307656494140625,2.353817042797804,0.7721782584562897,-1.6406787100702522
1725629632886690000,1.31768994140625,1.6889888597309588,2.476666592875123,-0.9132698599278927
1725629632896724200,1.32772412109375,0.7502960969939827,3.9187536986634135,0.6007189912497997
1725629632906758400,1.33775830078125,0.05985737959146499,3.678479253906011,1.440683376470208
1725629632916793000,1.34779296875,0.07381693136096,1.6072499031990766,0.43012627774477
1725629632926827300,1.3578271484375,1.2421397029832004,-0.37516193089187144,-2.279137941649556
1725629632936861200,1.367861083984375,2.919976761841774,-0.10907704531252384,-2.097977656900883
1725629632946895000,1.37789501953125,4.721059384357929,1.0706260752409695,2.234122741881013
1725629632956929300,1.38792919921875,4.563007003474235,1.788283346697688,4.85722142047286
1725629632966963200,1.397963134765625,4.396073981520534,1.1624012726187705,7.366014505448937
1725629632976997000,1.4079970703125,3.6239211497664447,0.6849713919073342,9.269460354852676
1725629632987031300,1.41803125,2.00077809638679,-0.20140695396363734,10.119942042434214
1725629632997065200,1.428065185546875,0.39302842697203155,-1.4686428120195865,8.841219744724034
1725629633007099100,1.43809912109375,-2.0312381165802478,-3.3295909974336624,7.159010169869661
1725629633017133300,1.44813330078125,-5.230809233915806,-4.749575869268178,5.733071358066797
1725629633027167200,1.458167236328125,-7.832332625037432,-5.005592365297675,4.176626928475499
1725629633037201200,1.468201171875,-7.283847678893804,-4.90164625313282,3.4003765982747076
1725629633047235300,1.4782353515625,-5.3939364338457585,-3.356947206392884,2.362617604368925
1725629633057269200,1.488269287109375,-5.142263519978523,-1.515511530700326,1.9055793543010948
1725629633067303200,1.49830322265625,-4.250865300118923,-1.4380945290207863,2.700035203278065
1725629633077337300,1.50833740234375,-2.3051012349456546,-2.094504427832365,3.0381361082762477
1725629633087371000,1.51837109375,-0.5259925438284874,-2.105562997463345,2.0561884334415197
1725629633097405200,1.5284052734375,1.1963690086722374,-1.0327700995773077,2.278696043100953
1725629633107439400,1.538439453125,2.3524627055794,-0.6481950281739235,3.314904300433397
1725629633117473000,1.54847314453125,1.7941139525473118,-0.543188593301177,3.1891952692717314
1725629633127507200,1.558507080078125,0.22135317892730236,-1.1464233667641877,3.3555817632585763
1725629633137541400,1.568541259765625,-0.8049556156814098,-1.7186843252927064,3.5566023482531306
1725629633147575000,1.578574951171875,-0.34922903273403644,-1.7315458526924252,3.3217870456844567
1725629633157609200,1.588609130859375,0.8147849357783794,-0.4117416030094027,2.2200205667704345
1725629633167643400,1.598643310546875,1.416559573560953,0.933769334860146,1.5415706855863331
1725629633177677000,1.608677001953125,2.143632323616743,1.1630933465361595,0.4837181672006845
1725629633187711200,1.618711181640625,3.2751866225510833,0.773621150740981,-0.0385205770522356
1725629633197746200,1.62874609375,3.613406185492873,0.6907017522528767,0.07564473131000995
1725629633207780000,1.638780029296875,2.7641034785628316,1.2696058020576835,0.6111597212433815
1725629633217814300,1.648814208984375,5.361069937032461,1.2071426238819956,1.1896505140721798
1725629633227848200,1.65884814453125,6.638305211055278,0.5131593657404184,0.5073275908470154
1725629633237882000,1.668882080078125,5.754000748848915,2.3929209726959466,-1.5284452465534208
1725629633247916300,1.678916259765625,5.479851799279451,3.9962431810572743,-2.4290572849601504
1725629633257950200,1.6889501953125,5.182957933938503,3.6950159626871346,-2.3783617014676333
1725629633267984100,1.698984130859375,4.5866655269593,2.1660174661651252,-2.0716291636794804
1725629633278018300,1.709018310546875,4.213038550549745,1.286046649248898,-2.100457198756933
1725629633288052200,1.71905224609375,4.393731802308559,1.635781585678458,-3.1533529715180397
1725629633298086100,1.729086181640625,4.949724347603321,1.6899460143253207,-4.3375054726958275
1725629633308120300,1.739120361328125,5.597257696998119,0.8011316734790802,-5.167937474939227
1725629633318154200,1.749154296875,5.703292890396714,0.3029033348888159,-6.213351367512345
1725629633328188200,1.759188232421875,4.901904027286172,0.4109501603707671,-6.802631265380978
1725629633338222300,1.769222412109375,3.2630656843855976,0.9218529793560505,-6.673609164148568
1725629633348256000,1.779256103515625,0.7820002720296383,1.280831837210059,-6.526869035395979
1725629633358290200,1.789290283203125,-2.222430550521612,1.4330474747642874,-6.1158168759554625
1725629633368324400,1.799324462890625,-3.4558652612626553,1.4630565363198518,-5.482661596003174
1725629633378358000,1.80935791015625,-3.284158449035883,1.9310735687807201,-3.690291272252798
1725629633388392200,1.81939208984375,-1.568212608796358,2.2454884777650235,-1.530248496583104
1725629633398426400,1.82942626953125,-0.40394729587137695,3.1523753586575385,-0.9820148948520422
1725629633408461300,1.83946142578125,-0.21625205639600753,4.61935052972585,-1.2133639826148748
1725629633418495200,1.8494951171875,-0.6839338655531406,5.474723788741231,-1.1376175444960595
1725629633428529200,1.859529052734375,-1.9677654691010713,5.773721348363161,-0.9025701867371797
1725629633438563000,1.86956298828125,-2.869942272606492,4.920363813084363,-0.30930151149332524
1725629633448597200,1.87959716796875,-6.7409414096653455,4.236794689190387,1.777339343357086
1725629633458631200,1.889631103515625,-9.600208559000492,1.8932278222501278,5.2431794706672425
1725629633468665000,1.8996650390625,-8.978844839128852,0.22106004119962452,7.4696040592610835
1725629633478699300,1.90969921875,-9.945595529353618,2.951736758717894,7.348223997214436
1725629633488733200,1.919733154296875,-8.817447239470482,3.8950682871714233,5.493326782402396
1725629633498767000,1.92976708984375,-5.388668722575902,3.0338012939423322,2.231738477092981
1725629633508801300,1.93980126953125,-1.7004174317181109,2.1905583254426717,-0.1948386814892292
1725629633518835200,1.949835205078125,0.3495867601305246,1.8622373484417796,-1.951607530504465
1725629633528869000,1.959869140625,1.00410046993196,2.0083444399878383,-3.0129771171003576
1725629633538903300,1.9699033203125,0.9948317063271999,1.882990213613212,-3.0088778650879857
1725629633548937200,1.979937255859375,0.500265397375822,1.3980240921780467,-2.247205510815978
1725629633558971100,1.98997119140625,-0.13583996455371378,0.9307736601755022,-1.2934814754247665
1725629633569005300,2.00000537109375,-0.25076222876310345,0.9874100318938493,-0.7659539771139622
1725629633579039200,2.010039306640625,0.1036152727752924,1.451573019275069,-0.04453413825333118
1725629633589073200,2.0200732421875,0.9880407310128212,1.7413585139155388,0.4750742574959993
1725629633599107300,2.030107421875,2.266086736896634,2.200481169041991,0.725254302456975
1725629633609141000,2.04014111328125,3.936324718928337,2.601763337357342,0.0910574044972658
1725629633619175200,2.050175048828125,5.220877037966251,2.1585721185952425,-0.33079788850843905
1725629633629209300,2.060209228515625,5.622358235985041,1.3803005116999147,0.25283260529637336
1725629633639243000,2.070242919921875,4.998631294113397,0.6460150537863374,1.1072826119869947
1725629633649277200,2.080277099609375,4.704398172414303,-0.8877455425709485,1.3663596646308898
1725629633659311900,2.090311767578125,3.530802721086144,-2.301898639512062,1.04940150090456
1725629633669345800,2.100345703125,0.5342413167357445,-3.7474993063792583,0.3122375649452209
1725629633679380000,2.1103798828125,-3.368737597429752,-4.97540707039237,-0.43214287826418873
1725629633689415000,2.120414794921875,-4.861154083746672,-3.5579458718165755,-0.21487141569256782
1725629633699448800,2.13044873046875,-6.018156127670407,-1.6111968872591853,-0.9672177232146263
1725629633709483000,2.14048291015625,-6.373597459048033,-0.6839345962055027,-1.0122820228219032
1725629633719517000,2.150516845703125,-4.56452734490931,-0.9519656474165618,0.20550503693223
1725629633729550800,2.16055078125,-2.084651726859808,-0.5209982426725328,0.9597487025082111
1725629633739585000,2.1705849609375,0.2286883441209793,0.2286222931474447,1.0345072986334563
1725629633749618700,2.18061865234375,1.515287658816576,-0.2743403804883361,-0.44466333714127537
1725629633759652900,2.19065283203125,1.9710902296096084,-1.143937833558768,-1.3751736702054738
1725629633769687000,2.20068701171875,1.3971867645710705,-0.9462703583844005,-0.916469532752037
1725629633779720700,2.210720703125,-0.04211421763002872,-0.28244112322703,0.6811597246646881
1725629633789755000,2.2207548828125,-1.1159931571871042,-0.306896934569627,1.6244254944056271
1725629633799789000,2.2307890625,-1.8521026156574487,-0.5894963170982896,1.1534253544807433
1725629633809822700,2.24082275390625,-2.0449054074048996,-0.5646595436140894,0.5214677598804235
1725629633819857000,2.25085693359375,-1.5444102929264305,-0.1633608625553548,-0.1806950053244829
1725629633829891000,2.26089111328125,-0.8552367731541395,0.9094229752413928,0.7130716972321272
1725629633839924700,2.2709248046875,-0.09513736728727817,0.4292139852054417,0.43760289723575113
1725629633849959000,2.280958984375,0.1427712251216173,-0.06111483230665326,-0.11830372334122657
1725629633859993000,2.2909931640625,0.23223989912271498,0.3981087989762425,-0.43113633157014847
1725629633870026800,2.30102685546875,0.48256665907800195,0.6956754490122199,-0.2146478360697627
1725629633880061000,2.31106103515625,0.8401923487573861,0.7695689527407288,-0.3352133668631315
1725629633890095000,2.32109521484375,0.9615928690701723,0.7231916708387434,-0.3813780289277434
1725629633900128800,2.331128662109375,0.85624273532629,0.5917395659804344,-0.547244882954657
1725629633910163000,2.341162841796875,0.7953186032861471,0.4601623003724962,-0.608387333920598
1725629633920196900,2.35119677734375,0.9265881911844015,-0.018751169960200785,-0.6472127391383051
1725629633930230800,2.361230712890625,1.167697040939331,-0.626301249339059,-0.9105226070463657
1725629633940265000,2.371264892578125,2.3747113622665403,-0.8209183239668607,-1.4040402837276458
1725629633950299000,2.381298828125,3.7989416165858505,-0.5850163952052593,-1.3609177658379077
1725629633960333800,2.391333740234375,3.091094960525632,0.8242541903913021,-1.992645058813691
1725629633970368000,2.401367919921875,1.5270494082808495,1.9173691608160732,-1.0006208111226558
1725629633980402000,2.41140185546875,0.7058738946825266,2.2662914656884965,0.2665121710807085
1725629633990435800,2.421435791015625,-0.12727028912901878,2.6747961326032876,0.9608838440179824
1725629634000470000,2.431469970703125,-1.8783412187635897,3.0812893135651946,1.212444237421453
1725629634010503700,2.441503662109375,-3.460470124709606,2.359596210721135,1.3735980914518235
1725629634020537900,2.451537841796875,-3.1079718610465523,0.9483571015305816,1.4454144966453313
1725629634030572000,2.461572021484375,-1.7406003890246151,-0.14213774952366948,1.2693997580915688
1725629634040605700,2.471605712890625,-0.4703688562840223,-0.771403766952455,0.43941140796244144
1725629634050640000,2.481639892578125,-0.07942951054573058,-1.2238592192746698,-0.4137070578634739
1725629634060674000,2.491674072265625,0.3179652949422598,-1.4221430727817117,-0.7690680174812674
1725629634070707700,2.501707763671875,0.6816963157594204,-1.4997954906523228,0.4734069088056683
1725629634080742000,2.511741943359375,1.0583838487833737,-1.3250928576104342,2.1893740840941667
1725629634090776000,2.521776123046875,0.9903525150865315,-0.8772003292895852,2.628713011342287
1725629634100809700,2.531809814453125,0.9373317035168409,-0.539763441158086,2.470912559393048
1725629634110844000,2.541843994140625,1.2941232804596423,-0.36925416815280915,2.3494532946303486
1725629634120878000,2.551878173828125,1.7448913642168045,-0.18544322276487946,1.5469930028960108
1725629634130911700,2.561911865234375,2.2291531367748973,-0.5428403643853962,-0.15294190600216387
1725629634140946000,2.57194580078125,2.6854431988239287,-1.410202751880139,-0.8171461119517683
1725629634150980000,2.58197998046875,2.527069915422797,-2.1267221053481102,-1.0114151768594979
1725629634161013800,2.592013671875,1.7259738977789878,-2.0536855107098817,-0.9310212051957845
1725629634171048000,2.6020478515625,0.4309557143062353,-1.6044769313544034,-0.3890443257719278
1725629634181081900,2.612081787109375,-0.3125789257287979,-1.2409541464604437,-0.09368015421628952
1725629634191115800,2.62211572265625,-0.7613911992430686,-1.045216616435349,-0.33942952325344083
1725629634201150000,2.63214990234375,-0.9368336908668279,-0.8654632758751512,-0.6061527067363262
1725629634211183900,2.642183837890625,-0.626955256268382,-0.5361190933063626,-0.5213742363780737
1725629634221217800,2.6522177734375,-0.24178280349373815,-0.01161591125279665,-0.4373381088197231
1725629634231253000,2.6622529296875,-0.06671615944504737,0.4646101466268301,-0.028397242444753647
1725629634241287000,2.672286865234375,-0.19418986219167708,0.7056498766683041,0.2661485984653234
1725629634251320800,2.68232080078125,-0.7340496033310889,0.7346924312792718,0.6501490848511458
1725629634261355000,2.69235498046875,-0.7401549344688654,0.6162827633455396,0.7784586539000272
1725629634271388700,2.702388671875,-0.9223059838205575,1.0078821804277598,0.5386147095143795
1725629634281422800,2.7124228515625,-0.7740338231950998,0.777271197681129,0.5098194076627492
1725629634291457000,2.72245703125,-0.6920376770317554,0.5847803944922983,-0.025299860951304435
1725629634301490700,2.73249072265625,-0.6966963164925575,0.4481035407230258,-0.3916150530427694
1725629634311524900,2.74252490234375,-0.8547931210398674,0.32207492221817374,-0.4843950435489416
1725629634321559000,2.75255908203125,-1.118701831623912,0.3525025014467537,-0.6561784281432628
1725629634331592700,2.7625927734375,-1.3191606910824776,0.3668757485836744,-0.8460024963408708
1725629634341627000,2.772626953125,-0.8882441397428512,0.3062896163262427,-0.7745166382759809
1725629634351661000,2.7826611328125,-0.29403438425660133,-0.06818725491091608,-0.2205272494971752
1725629634361694700,2.79269482421875,-0.012039981883764267,-0.28939342658296224,0.09827040461599826
1725629634371729000,2.80272900390625,0.08706570451259613,-0.33876609090864657,-0.012214753928780554
1725629634381763000,2.81276318359375,0.16087036091387272,-0.5794266123741865,0.06453823088407516
1725629634391796700,2.822796630859375,0.35492987472414966,-0.6288068754844367,0.11770751101374625
1725629634401831000,2.832830810546875,0.5855126542896032,-0.41445641492605206,-0.031204116559028622
1725629634411865000,2.842864990234375,0.8603519242107868,-0.23470512019246814,-0.16623627186119555
1725629634421898800,2.852898681640625,1.1947475449502467,-0.258250100300461,-0.19996435393989084
1725629634431933000,2.862932861328125,0.9957003058552741,-0.11118833837807178,-0.46401861047446724
1725629634441966800,2.872966796875,0.6089508130222558,0.11366627279892563,-0.8707353710591793
1725629634452000800,2.883000732421875,0.3338578606009483,-0.09468509347513318,-0.8732470616191625
1725629634462035000,2.893034912109375,0.008442834174633025,-0.17805968838483094,-0.8405085750997066
1725629634472068900,2.90306884765625,-0.4525228184700012,-0.20393647244125604,-0.858434107890725
1725629634482103800,2.913103759765625,-0.9268693462133407,-0.47163653813228007,-0.3696896369606256
1725629634492138000,2.923137939453125,-1.337742641955614,-0.6994834629930555,0.03900982187390327
1725629634502172000,2.933171875,-1.518560396876931,-0.7193665595926344,0.2974368861764669
1725629634512205800,2.943205810546875,-1.2415747625768183,-0.4532701297059655,0.038302550387382506
1725629634522240000,2.953239990234375,-0.49987201414406296,-0.294842485769093,-0.08458674717843533
1725629634532273700,2.963273681640625,0.019852116939425467,-0.4287232790790498,0.1376122349232435
1725629634542307800,2.973307861328125,-0.04313654641509056,-0.8175470939680933,0.704948012009263
1725629634552342000,2.983342041015625,-0.0645762248069048,-1.1832581826865671,0.9940969623118638
1725629634562375700,2.993375732421875,0.5086439341425896,-1.4341656651392578,0.7303980950862169
1725629634572409900,3.003409912109375,1.8640619335204363,-0.8273341823585331,-0.1695844132453203
1725629634582444000,3.013444091796875,0.6218260766863822,-0.05033507961705327,-0.7540911053627729
1725629634592477700,3.023477783203125,-1.1602438023239374,-0.5623066968776286,0.4896756143003702
1725629634602512000,3.033511962890625,-0.012686463093757629,-0.6172146373681724,0.42671266990900036
1725629634612546000,3.043546142578125,1.448734580978751,-0.4844752691783011,0.06556698940992355
1725629634622579700,3.053579833984375,1.8132424313873052,0.5498850221998989,-0.38257191488742825
1725629634632614000,3.06361376953125,1.7194880428910255,1.4292571425706146,-0.7161047813177108
1725629634642648000,3.07364794921875,1.8594103083223104,1.6853673082329332,-0.23902210660874842
1725629634652681700,3.083681640625,1.6134586947113274,1.2216482652269303,1.5672013859272003
1725629634662715100,3.093715087890625,0.4340367291867733,0.6661252371400594,2.531460259336233
1725629634672749000,3.1037490234375,-0.4207815262943506,0.29148133877292276,1.4394143794476986
1725629634682783200,3.113783203125,-0.08152852865159511,-0.00982625135704875,-0.38358255323469637
1725629634692817200,3.123817138671875,1.2535083614766598,-0.12231515093967318,-1.43618548052907
1725629634702851000,3.13385107421875,2.2604139519572257,-0.04427592570856213,-1.7253975591957569
1725629634712885200,3.14388525390625,2.3366952276051043,0.026682401350885628,-1.7074264336973428
1725629634722919000,3.1539189453125,1.4544278241842985,-0.11318082736954092,-1.6506155821949242
1725629634732953000,3.163953125,0.5173182389855384,-0.38938130264133214,-1.4546844292938708
1725629634742987300,3.1739873046875,-0.40424598655700683,-0.7125882976293564,-1.0021674560427665
1725629634753022200,3.184022216796875,-1.8140660227298735,-0.9462488772049545,-0.225568750795722
1725629634763056000,3.19405615234375,-3.1472020476728675,-0.8718167365550994,0.7401303845494985
1725629634773090000,3.204090087890625,-3.642117900714278,-0.5955122163869441,1.7239707412630318
1725629634783124200,3.214124267578125,-3.564289395624399,-0.10790595570653676,2.5694249560713764
1725629634793158100,3.224158203125,-2.7546330549061295,0.18168240892663598,2.6125404596984385
1725629634803192000,3.234192138671875,-1.3765759382188318,-0.050686523403227324,1.8636440003693102
1725629634813226000,3.24422607421875,-0.6988748295754194,-0.4812618600897491,0.6571703617900609
1725629634823260200,3.25426025390625,-0.4270096070289612,-0.18564649025201796,-0.8866495640277862
1725629634833294000,3.264294189453125,0.08956219750344753,-0.12723697138130663,-1.3433774329721926
1725629634843328000,3.274327880859375,0.8125134837150573,-0.7998303816221654,-1.4253484446942806
1725629634853362200,3.284362060546875,1.018121396499872,-1.112242864742875,-0.883149446952343
1725629634863396000,3.29439599609375,0.7402852828502655,-0.967295610756427,-0.4070353250145912
1725629634873430000,3.304429931640625,0.4107248271822929,-0.7366418117813766,-0.35625557036995886
1725629634883464200,3.314464111328125,-0.3317325390100479,-0.2675949978813529,-0.22599837438464163
1725629634893498000,3.324498046875,-0.37254268830418585,-0.27358269398882984,0.1421224058240652
1725629634903532000,3.334531982421875,0.2174994261085987,-0.8276862106665969,-0.20054478417634963
1725629634913566200,3.344566162109375,0.7448264334112406,-0.9797507493123412,-0.9234855489939451
1725629634923600100,3.35460009765625,-0.6803513308912515,0.45785526553913947,-0.608025514870882
1725629634933634000,3.364634033203125,-1.0728607024252415,0.9904023455776274,0.33154666104912756
1725629634943668200,3.374668212890625,-0.7613982135057449,0.8991051409751176,0.9475789567649364
1725629634953702100,3.3847021484375,-1.1520634184777736,1.4145662077866494,1.7856079900085926
1725629634963736000,3.394736083984375,-2.0412299337625504,2.4753642781049012,2.7319565281957385
1725629634973770200,3.404770263671875,-2.3941443770110604,3.037039252950251,3.4040234303444623
1725629634983804000,3.414803955078125,-1.83395379550457,2.24471647047922,2.6100188322663307
1725629634993839000,3.424839111328125,-1.1493185036838054,1.46700892720744,1.6964602185249327
1725629635003873000,3.434873046875,-0.8274486025184392,1.617345326886326,1.0301683926463125
1725629635013907200,3.4449072265625,-0.037753099811077113,-0.21786913620382545,-0.5116641587466001
1725629635023941000,3.454941162109375,0.6088865156143903,-2.024980079098791,-3.292717018544674
1725629635033975000,3.46497509765625,1.1991028175503016,-2.4316139837056396,-2.9614158566892144
1725629635044009200,3.47500927734375,1.6365736128389834,-3.417992626725137,-1.7792261800169944
1725629635054043100,3.485043212890625,2.693309109893441,-3.794077225419879,-2.341954755568504
1725629635064077000,3.4950771484375,3.1567478746533393,-3.155587890963256,-4.163327886441349
1725629635074111000,3.505111083984375,2.4849010449960827,-2.430566520479321,-5.58917960448265
1725629635084145200,3.515145263671875,1.1615025702133774,-1.565383522850275,-6.168076640024781
1725629635094179000,3.525178955078125,-0.25617490146160127,-0.8866663690321147,-5.971984743604064
1725629635104213000,3.535212890625,-1.9955548087805508,-0.28176492273220793,-3.5119396151840685
1725629635114247200,3.5452470703125,-6.8652937655210495,0.8512433196038007,3.165608641979098
1725629635124281000,3.555281005859375,-6.9450459321498865,2.758172627209127,10.747442657625674
1725629635134315000,3.56531494140625,3.9748376971960067,2.2490844564303756,11.272203029310703
1725629635144349200,3.57534912109375,7.836341276156902,0.6099145434878767,4.4001282253474
1725629635154383000,3.585383056640625,8.867439058607816,-2.7292618822842836,0.05151975935697555
1725629635164417000,3.5954169921875,6.829926099541783,-3.5844174068957564,-2.2882664200007916
1725629635174451200,3.605451171875,3.662334174790978,-2.3926783961117266,-4.637064173331856
1725629635184485000,3.615485107421875,1.4683786081254482,-1.5842163797445594,-4.792978957664967
1725629635194519000,3.62551904296875,-0.38638796604424713,-1.0765689092934132,-3.2190865496665237
1725629635204553200,3.63555322265625,-1.6705705749869346,-0.1370665837392211,-1.2324503758788108
1725629635214587100,3.645587158203125,-2.4052713357031346,0.7747332036361098,0.10747779342234134
1725629635224621000,3.65562109375,-2.6649919469475742,1.1616980927854776,0.8656418473124503
1725629635234655200,3.6656552734375,-2.147407165980339,1.049877374788001,1.0308248107284308
1725629635244690200,3.675690185546875,-1.082404775840044,0.6272745513506234,0.5796043070286512
1725629635254724000,3.68572412109375,0.38288580314218995,0.03532156181521714,0.49846448543369765
1725629635264758000,3.695758056640625,1.202311550463736,-0.5791667923942208,0.5192039066016674
1725629635274792200,3.705792236328125,0.9631117492005229,-0.9494478193767368,0.33148879338204856
1725629635284826000,3.715826171875,0.3611708149403333,-1.0457943432580679,0.32363048109710213
1725629635294860000,3.725860107421875,-0.04906505968123674,-0.7813956571999937,0.4968026897013187
1725629635304894200,3.735894287109375,-0.10037176080942153,-0.3634110681477934,0.5194710331052541
1725629635314928000,3.74592822265625,-0.1076598719909787,-0.018552067191526293,0.3439583988547325
1725629635324962000,3.755962158203125,-0.111904085431993,0.08472414635512977,0.16431319484412668
1725629635334996000,3.765995849609375,-0.1567050579279661,0.05984269347898662,0.18322247797548769
1725629635345030100,3.776030029296875,-0.45059974145293236,0.0008865005109459161,0.2991033580839634
1725629635355064000,3.78606396484375,-0.7747419714644551,-0.1475124648319557,0.2641547942996025
1725629635365098000,3.796097900390625,-0.7841442983210086,-0.3264930674539879,0.1195224514812231
1725629635375132200,3.806132080078125,-0.49904228532165285,-0.5445229837100952,-0.13861293639838695
1725629635385166000,3.816166015625,-0.4028708988115191,-0.7942226247429848,-0.2825590505182743
1725629635395200000,3.826199951171875,-0.4480822056740522,-0.8817460098952055,-0.13662906910479067
1725629635405234200,3.836234130859375,-0.3036906858742237,-0.7747398525726049,-0.046993806365132326
1725629635415268000,3.84626806640625,-0.24443974774330854,-0.7429916191995144,0.06171615920066833
1725629635425302000,3.856302001953125,-0.3052320700973272,-0.7344239896014332,0.16049217525124548
1725629635435336200,3.866336181640625,-0.23447686439454554,-0.6694124421171843,0.2734311566889286
1725629635445370000,3.8763701171875,-0.08710779008865356,-0.6066435955258086,0.38061961177587506
1725629635455404000,3.886404052734375,0.032094343397021295,-0.8525105630606412,0.30984628589451313
1725629635465438200,3.896438232421875,-0.15625176120251416,-1.4767001540079712,0.30409400597810743
1725629635475472100,3.90647216796875,-0.2180643665149808,-1.7941158522434533,0.45976972085833545
1725629635485506000,3.916506103515625,-0.1383446408510208,-2.2299568543732167,0.47657180257737636
1725629635495540200,3.926540283203125,-0.011602174988389015,-2.5156056876003743,0.11147592314779758
1725629635505574000,3.936573974609375,0.09563567219823599,-2.610868727093935,-0.0031458968102931976
1725629635515608000,3.946608154296875,0.40334553058594463,-2.367451892657578,0.030679215902090072
1725629635525642200,3.956642333984375,0.6458478805258869,-1.8738652423933146,-0.01552373234629631
1725629635535677200,3.96667724609375,0.6864759512513876,-1.3060513264015317,-0.2377811666369438
1725629635545711000,3.976711181640625,0.5916743917897344,-0.7215097821664065,-0.2528957336604595
1725629635555745000,3.9867451171875,0.3211506469801068,-0.004829685178771615,-0.6676765582352876
1725629635565779200,3.996779296875,0.11319120263308285,0.8452518971692771,-0.8260270452827214
1725629635575813000,4.006813232421875,0.12242372588068245,1.455827754110098,-0.6174976920932531
1725629635585847000,4.016846923828125,0.07392945182472467,1.8329897727780042,-0.4044423859119415
1725629635595881000,4.026880859375,0.1677913923487067,2.1067261960238217,-0.16065993303358553
1725629635605915100,4.0369150390625,0.24827596490532158,2.0442628717176614,0.11549568018317222
1725629635615949000,4.046948974609375,0.49747079822123047,1.7570738233111798,0.47790568152964114
1725629635625983000,4.05698291015625,0.8907014697670936,1.521803908842802,0.47978725749254225
1725629635636017200,4.06701708984375,1.1764698377206921,1.7220469335936008,-0.11657821472287178
1725629635646051000,4.077051025390625,1.2327569576099515,1.9341950618021189,-0.8093021204531192
1725629635656085500,4.08708544921875,1.0788315935283899,1.8610500383533537,-1.0307768799334764
1725629635666119700,4.09711962890625,0.7095809325069189,1.32093252306059,-0.5817834046334028
1725629635676153300,4.1071533203125,0.26493834589272736,0.3737856741026044,-0.018981179323792455
1725629635686187500,4.1171875,-0.04949234518259763,0.010207944151014088,0.42472646452784535
1725629635696221400,4.127221435546875,0.060869479243457314,0.16027371019497513,0.41881110300421714
1725629635706255400,4.13725537109375,0.34777912618666884,0.2723572438471019,0.04401099116206169
1725629635716289500,4.14728955078125,0.5128942850634456,0.41780090304836626,-0.41697804235816
1725629635726323500,4.157323486328125,0.7259639120310545,0.47169323675557967,-0.8523135791838169
1725629635736357400,4.167357421875,0.9144935565039515,0.4982893480625003,-1.1960597965925932
1725629635746391600,4.1773916015625,1.0996297591462731,0.5178578988201916,-1.6362889506787062
1725629635756425500,4.187425537109375,1.3887497756153344,0.5378827419780194,-1.9478280119657516
1725629635766459400,4.19745947265625,1.2006792730867861,0.5949381428260356,-1.8936416637480258
1725629635776494600,4.20749462890625,0.47853901099711654,0.6690725426383316,-1.5144792650431393
1725629635786528300,4.2175283203125,-0.3389800259202719,0.7276895667798817,-1.094898346710205
1725629635796562400,4.2275625,-1.1788204925000667,0.7932160049837083,-0.5368284106194973
1725629635806596600,4.2375966796875,-2.102296104621887,0.8117582814335823,-0.01007306572496891
1725629635816630300,4.24763037109375,-2.7911782402321696,0.8746420231088995,0.2953291002422571
1725629635826664400,4.25766455078125,-2.8715526304125785,0.9608926118463277,0.45168870573341846
1725629635836698600,4.26769873046875,-2.289624848872423,0.9568875409234314,0.3988350674241781
1725629635846732300,4.277732177734375,-1.5698346570402384,0.8731517114859074,0.30144787538349627
1725629635856766500,4.287766357421875,0.1594938118636608,0.03477945429515093,0.3637508945614099
1725629635866800600,4.297800537109375,0.36770956905931235,-0.378140216050297,0.40630408813059327
1725629635876834300,4.307834228515625,0.465721907261014,-0.40793968997579066,0.32688042280375956
1725629635886869500,4.317869384765625,0.547776505613327,-0.05294928070344031,0.3632072892040014
1725629635896903400,4.3279033203125,0.6085720428377389,0.2306481729518622,0.6015817455589771
1725629635906937300,4.337937255859375,0.6058522624850273,0.424661874859035,0.8086503785461187
1725629635916971500,4.347971435546875,0.3739581080600619,0.665843643719703,0.7608131070941686
1725629635927005400,4.35800537109375,0.012515782701969146,0.7703967818669974,0.6703606827527284
1725629635937039400,4.368039306640625,-0.44267917758673425,0.8493006611034274,0.5741325976192951
1725629635947073500,4.378073486328125,-0.8082216317400336,1.0042997918963432,0.4878092359066009
1725629635957107500,4.388107421875,-1.069088782671094,1.032340183727443,0.36296588166356086
1725629635967141400,4.398141357421875,-1.2273159355998038,0.9080188075318932,-0.11961129880845546
1725629635977175600,4.408175537109375,-1.1582330470234155,0.8020370248209685,-0.7293395259439944
1725629635987209500,4.41820947265625,-0.6106903501659632,0.921859043770656,-1.0010124407887457
1725629635997243400,4.428243408203125,0.3231009042650461,1.215036299741268,-0.800275933432579
1725629636007277600,4.438277587890625,0.8474877664625644,1.4425965166151522,-0.7972837658792734
1725629636017311500,4.4483115234375,0.8159414123371242,1.333923814319819,-0.6830898159444332
1725629636027345400,4.458345458984375,0.4801540449783206,1.2009927960153668,-0.1625824255287647
1725629636037379600,4.468379638671875,-0.05740560252517461,1.387737968224287,0.23826398171782492
1725629636047413200,4.478413330078125,-0.18748071994185447,1.4309030100814997,0.7645622304946184
1725629636057447400,4.488447509765625,-0.10174100333601235,1.24972182867527,1.1493740332633255
1725629636067481600,4.498481689453125,0.027755145148932934,0.8263536468885838,1.3198112639456987
1725629636077515300,4.508515380859375,0.35742695223689075,0.29467531250864265,1.202917407402396
1725629636087549400,4.518549560546875,0.8502183604702352,-0.20367957507073878,0.3936234702557325
1725629636097583600,4.52858349609375,1.4077616423383355,-0.6812517868623137,0.06611176381111145
1725629636107618600,4.53861865234375,1.5904907838389277,-0.987372476362437,-0.25045301668345926
1725629636117652500,4.548652587890625,1.6475585327118634,-1.1052379544168711,-0.29795827970206734
1725629636127686400,4.558686279296875,1.5189017576605082,-1.0749706803165375,-0.16187632308602332
1725629636137720600,4.568720458984375,1.1493889385715126,-0.6792251033402978,-0.0385205770522356
1725629636147754500,4.57875439453125,1.0876026367440819,-0.16845467856302856,-0.02073825212419033
1725629636157788400,4.588788330078125,0.8865653928756714,0.5550391900926828,-0.3680120591372251
1725629636167822300,4.598822265625,0.6168474114909768,1.3343198279000819,-0.6489420471489429
1725629636177856500,4.6088564453125,0.10713438681215047,1.8009535893090067,-0.9206997176676988
1725629636187890400,4.618890380859375,-0.3078033818900585,2.0290311080552637,-0.8687959274291992
1725629636197924400,4.62892431640625,-0.5147469271928071,2.3828997832886873,-0.7057716033518314
1725629636207958500,4.63895849609375,-0.4420265588968992,2.381703997632861,-1.0895604928135871
1725629636217992400,4.648992431640625,-0.4753481060013175,1.829153117224574,-1.1748247008621693
1725629636228026400,4.6590263671875,-0.5691667919054627,1.300735392075777,-0.8502624918729066
1725629636238060500,4.669060546875,-0.45877807947248217,0.9928281114198267,-0.4307856184363365
1725629636248094500,4.679094482421875,-0.2668278129011392,0.608214753832668,-0.22397534412443637
1725629636258128400,4.68912841796875,-0.23865824173241854,0.22497326912060378,-0.16234920129477975
1725629636268162600,4.69916259765625,-0.133469143769145,-0.013901684102416038,0.13791969343721866
1725629636278196500,4.709196533203125,-0.055039165654778476,-0.15991620199419557,0.32529461491703987
1725629636288230400,4.71923046875,-0.33957273111641406,-0.38818580924645063,0.23357962329387663
1725629636298264600,4.7292646484375,-0.5745253963291644,-0.6637737786430865,-0.1099538281470537
1725629636308298200,4.73929833984375,-0.7432628373563289,-0.8390946166485548,-0.5110884046852588
1725629636318332400,4.74933251953125,-0.7911778502196073,-0.7981638366494327,-0.477040589132905
1725629636328367400,4.759367431640625,-0.53435208363384,-0.6465235147651285,-0.3364420318752527
1725629636338401500,4.769401611328125,-0.3964788596868515,-0.4066305436059832,-0.10293547381758689
1725629636348435500,4.779435546875,-0.16609335625916719,-0.1889000852204859,0.04233867403566837
1725629636358469400,4.789469482421875,-0.10001929410994052,-0.1272906012646854,0.15911971785426138
1725629636368503600,4.799503662109375,-0.30922084747254847,-0.24579744596257805,0.3337643370985985
1725629636378537500,4.809537353515625,-0.49326340965926646,-0.2845047046933323,0.4132382713079452
1725629636388571400,4.8195712890625,-0.7718208233207464,-0.24269129664078354,0.5985895780056715
1725629636398605600,4.82960546875,-0.8666866801902652,-0.14613127613924443,0.6543833614200353
1725629636408639500,4.839639404296875,-0.7253601009190083,-0.13311751731988042,0.39820203021764755
1725629636418673400,4.84967333984375,-0.6177987208664417,-0.39768702990021554,0.07557400416135787
1725629636428707300,4.859707275390625,-0.3875800984382629,-0.6067218483937904,-0.2030471223860979
1725629636438741500,4.869741455078125,-0.15995967580974102,-0.8128678501106799,-0.30750176859498024
1725629636448775400,4.879775390625,-0.0996282489657402,-0.845482344924286,-0.37510523226857184
1725629636458809300,4.889809326171875,-0.20131664533168075,-0.9519934852715581,-0.4356961868315935
1725629636468843500,4.899843505859375,-0.27147943809926506,-0.9225826088048518,-0.4656587788969278
1725629636478877400,4.90987744140625,-0.2116261501610279,-0.9347159680604934,-0.2341173834323883
1725629636488911400,4.919911376953125,-0.06056318977326154,-0.9864165638770908,-0.05219546666145324
1725629636498945500,4.929945556640625,-0.19957623140513897,-1.1322789599470793,0.170495098349452
1725629636508979500,4.9399794921875,-0.22218553809821603,-1.3420909002929926,0.4836965398907661
1725629636519013400,4.950013427734375,0.06723901427537203,-1.2107073306262492,0.5686275704622268
1725629636529048300,4.96004833984375,0.04867635262459516,-0.6563534924492239,0.5318541293382645
1725629636539082500,4.97008251953125,0.18474311167150734,-0.09491378766447305,0.538123126605153
1725629636549116400,4.980116455078125,0.6453919534519315,0.5632053992830216,0.36637422880232334
1725629636559150300,4.990150390625,0.5495853086009621,1.3903097184084354,-0.20155834513306617
1725629636569184500,5.0001845703125,0.1134007537305355,2.233934671963006,-0.6307131474971771
1725629636579218400,5.010218505859375,-0.179622407656908,2.741705768793821,-0.6299339798182249
1725629636589252400,5.02025244140625,-0.3242167565524578,2.761008435156941,-0.39980128210783
1725629636599286500,5.03028662109375,-0.3561687688693404,1.7810355675265193,0.18181319569945334
1725629636609320400,5.040320556640625,0.13802987581342457,0.634905923011899,0.4765782323181629
1725629636619354400,5.050354248046875,0.7569459102720022,0.08305383852273225,0.22067630257904527
1725629636629388500,5.060388427734375,0.9490992982000112,0.13061463112086058,-0.13682663750350474
1725629636639422500,5.07042236328125,0.8536495039626956,0.28978695594519377,-0.28362346487939355
1725629636649456400,5.080456298828125,0.6839911486983299,0.4595011330500245,-0.3846837924748659
1725629636659490300,5.090490234375,0.638701223641634,0.5888882682025433,-0.5181336470216512
1725629636669524500,5.1005244140625,0.5007563957631588,0.6727540076300501,-0.5819856492072344
1725629636679558400,5.110558349609375,0.35511867529451846,0.30797537745609876,-0.8850894751042128
1725629636689592300,5.12059228515625,0.3537017942339182,-0.3041752545207739,-1.1651572933286427
1725629636699626500,5.13062646484375,0.3502136598572135,-0.20593875217437743,-1.0685825867146252
1725629636709660400,5.140660400390625,0.27026392482966183,0.10267258509770034,-0.765998985299468
1725629636719694300,5.1506943359375,0.2437684243530035,0.22555501453131435,-0.41126375636458395
1725629636729728500,5.160728515625,0.17618834155499935,0.2787877152860164,-0.20183365494310854
1725629636739762400,5.170762451171875,0.24657003777027128,0.44279096739813684,-0.2748994756758213
1725629636749797400,5.18079736328125,0.34429566798508165,0.3417645420722663,-0.44903965252935885
1725629636759831600,5.19083154296875,0.37024142562448975,0.22389555688649415,-0.7253232760399579
1725629636769865200,5.200865234375,0.47056759372651574,0.43250688927099107,-1.1789122624367474
1725629636779899400,5.2108994140625,0.3972258786618709,0.3749517952725291,-1.3199702538996934
1725629636789933600,5.22093359375,0.15469810201972722,0.2435619419954717,-1.3278653910636902
1725629636799967200,5.23096728515625,-0.11798925056457518,0.26017273892611265,-1.3007494206011294
1725629636810001400,5.24100146484375,-0.25550094772279264,0.4393667651031166,-1.204516074770689
1725629636820035600,5.25103564453125,-0.4425444452911615,0.479504714224115,-0.7249626260340213
1725629636830069200,5.2610693359375,-0.7080822183817624,0.26857823676504194,-0.007930792999267577
1725629636840103400,5.271103515625,-1.0730717148274183,0.03587291208766401,0.5868892033398151
1725629636850137300,5.281137451171875,-1.3090472933471202,-0.21310604998786,1.0098200166225433
1725629636860171300,5.291171142578125,-1.2849065393030643,-0.5350685613401234,1.3787924452245235
1725629636870205400,5.301205322265625,-1.1319979510486124,-0.9886417656458913,1.7187947999298572
1725629636880239400,5.3112392578125,-0.9322536696001886,-1.5809892343915999,2.012238817077875
1725629636890273300,5.321273193359375,-0.5015396550953388,-2.1722274267211557,2.0397318041592833
1725629636900307500,5.331307373046875,0.38735476524978874,-1.838568741954118,1.277335227265954
1725629636910341400,5.34134130859375,1.4033672067716716,-0.940808878108114,0.38386253921985625
1725629636920375300,5.351375244140625,1.7841773726835846,-0.5038082941470667,0.09665420159101486
1725629636930409500,5.361409423828125,1.2819842221155762,-0.3411507940880954,-0.05169862305521965
1725629636940443400,5.371443359375,0.4580635014623403,-0.320935835185647,-0.35745968546271323
1725629636950477300,5.381477294921875,-0.37665743014663455,-0.3517119721235707,-0.22523849592804907
1725629636960512500,5.391512451171875,-1.080712877230346,-0.22790139499437062,0.1879763945043087
1725629636970546200,5.401546142578125,-1.2437073906913398,-0.058641245267353946,0.28109716127216816
1725629636980580400,5.411580322265625,-0.7113885664507746,0.11069489230532198,0.01710194144845009
1725629636990614500,5.421614501953125,0.25137422318160535,0.2806713736081496,-0.2984387566953897
1725629637000648200,5.431648193359375,0.7977922999233007,0.2571548889422789,-0.44466333714127537
1725629637010682400,5.441682373046875,0.8814020187631249,0.07705722845643759,-0.3209223911821842
1725629637020716500,5.451716552734375,0.7350456286311149,0.009102540192380546,0.008800561571121215
1725629637030750200,5.461750244140625,0.5001110835969448,-0.09728983261343091,0.25932021375000475
1725629637040784400,5.471784423828125,0.32813276095241306,0.10063702414948493,0.7911404408186674
1725629637050818600,5.481818603515625,0.3371495956227183,0.3793444042082876,1.6339567083388566
1725629637060852200,5.491852294921875,0.3331713396415114,0.5605651869725435,2.58461784902811
1725629637070886400,5.501886474609375,0.48631344439089297,0.2966713086314499,2.7486095568329096
1725629637080920600,5.511920654296875,0.5658028684303165,-0.3123298463385552,1.9564871192395685
1725629637090954200,5.521954345703125,0.7037646474435925,-0.8307573617402464,0.7858651307642459
1725629637100988400,5.531988525390625,1.008175756546855,-1.1203978218868373,0.5596440535396338
1725629637111022300,5.542022216796875,1.2597861265718937,-1.1591967774890362,0.22920973764657973
1725629637121056300,5.55205615234375,1.5354253146991133,-1.01297818839252,-0.6813970405519009
1725629637131090400,5.56209033203125,1.4074196970328687,-1.0136740617021918,-1.5154863962590694
1725629637141124400,5.572124267578125,0.9017673459216952,-1.1372663929708302,-2.1615520111888644
1725629637151158300,5.582158203125,0.5269628501653671,-1.3157823006905613,-2.8031419420093298
1725629637161193500,5.592193359375,-0.21974925086200237,-1.4018221692867576,-3.047645110377669
1725629637171227400,5.602227294921875,-1.1765268286049366,-1.4141794004261492,-2.312618770968914
1725629637181261300,5.61226123046875,-0.9356400971680879,-0.6282715995639562,-1.5495564236432313
1725629637191295500,5.62229541015625,-0.2460138651922345,0.014934972672909497,-1.5321014309734104
1725629637201329200,5.6323291015625,0.16648381688147781,-0.17602029151171444,-1.6975772398561237
1725629637211363300,5.64236328125,0.583129558545351,-0.4675404279250651,-1.8225217163860796
1725629637221397500,5.6523974609375,0.926659795115888,-0.308860928118974,-1.815999036619067
1725629637231431200,5.66243115234375,0.9532140400424599,-0.0511434003252536,-1.594870898619294
1725629637241465300,5.67246533203125,0.9539978838965296,0.12873480872362852,-0.8916063096523285
1725629637251499500,5.68249951171875,0.9163158034950494,0.370484805926308,-0.07842764002680779
1725629637261533200,5.692533203125,0.6481780770391226,0.6736239953976124,0.6825649152874946
1725629637271567400,5.7025673828125,-0.05562485658824443,0.8991401392232626,1.3619202208787202
1725629637281601500,5.7126015625,-0.7944505882799625,0.8877216502387076,1.946438018912077
1725629637291635200,5.72263525390625,-0.9199769563511013,0.6561103313431144,2.0042975026845933
1725629637301669400,5.73266943359375,-0.4440086726248264,0.2672933115210384,1.5210510446488856
1725629637311703600,5.74270361328125,0.050963879039883614,-0.0352409708596766,0.9547931259274482
1725629637321737200,5.7527373046875,0.3240890385195613,-0.39011458535194393,0.5716647462010384
1725629637331771400,5.762771484375,0.3461196685418486,-0.7251252692498267,0.3200602213948965
1725629637341805600,5.7728056640625,0.18725304866582154,-0.8486530108496546,0.10816519116461276
1725629637351839200,5.782839111328125,-0.08550532332807778,-0.7935865187965333,0.08532499832510948
1725629637361873400,5.792873291015625,-0.1232981706276536,-0.7275126758430153,0.13342296653985977
1725629637371908400,5.802908447265625,-0.3431342229902744,-0.6878071998551487,0.17465923229157923
1725629637381942300,5.8129423828125,-0.7916863842636347,-0.7056859708949923,0.43675826310515403
1725629637391976400,5.8229765625,-0.8242074286401271,-0.7993229435566812,0.5803963341891766
1725629637402010400,5.83301025390625,-0.6606289778113364,-0.9225472452305257,0.5613514419794082
1725629637412044300,5.843044189453125,-0.7934265059292316,-1.045306413610652,0.6098375327289104
1725629637422078500,5.853078369140625,-0.358192968173325,-1.1892582268189638,0.41410453274846076
1725629637432112400,5.8631123046875,0.33511867431700226,-1.2136482063837348,-0.043181554600596424
1725629637442146300,5.873146240234375,0.7819444501891731,-1.2378405444845557,-0.4984107094198465
1725629637452180500,5.883180419921875,0.8096180545344949,-1.3260840606048703,-0.6722779145509005
1725629637462214100,5.893214111328125,0.4280550244286656,-1.1956998772390186,-0.5990051730692386
1725629637472248300,5.903248291015625,-0.08316139055043459,-0.9730829619862139,-0.41563247296810146
1725629637482282500,5.913282470703125,-0.3729465929299593,-0.9081960637949407,-0.15605097793340683
1725629637492316200,5.923316162109375,-0.4849731356978416,-0.7695040708109736,0.2533101596802473
1725629637502350300,5.933350341796875,-0.45677667652219534,-0.8176902287658303,0.5914964048743248
1725629637512384500,5.943384521484375,-0.44747985586673017,-1.2513104130409658,0.8211480410695076
1725629637522418200,5.953418212890625,-0.42493835371285676,-1.5620789283469318,0.9775807117968797
1725629637532452400,5.963452392578125,-0.20740502533465624,-1.638935373534262,0.9066846363186836
1725629637542486500,5.973486572265625,0.017106909884512425,-1.5059868926383555,0.38347792381644247
1725629637552520200,5.983520263671875,0.02847410707324743,-1.130829126464948,-0.3836468506425619
1725629637562554400,5.993554443359375,-0.08930939178615808,-0.7060142530012875,-0.8521002286940813
1725629637572589300,6.00358935546875,-0.14332155248075723,-0.1291230773888528,-1.085819552719593
1725629637582623200,6.013623291015625,-0.15720511640459298,0.611551204778999,-1.2028028411120175
1725629637592657400,6.023657470703125,-0.047451487004756925,1.3545844711631536,-1.1334434736818075
1725629637602691300,6.03369140625,0.1270747665569186,1.9460346988081931,-0.9638187284260987
1725629637612725200,6.043725341796875,0.4963125680968165,2.3730353918783367,-0.7588824312925339
1725629637622759400,6.053759521484375,0.7536655734270811,2.512408937385678,-0.5257341851532459
1725629637632793300,6.06379345703125,0.853040724414587,2.362805820417404,-0.41440906865298743
1725629637642827300,6.0738271484375,0.8184712230756879,1.774808655835688,-0.4747258824497461
1725629637652861400,6.083861328125,0.7562447762653232,1.1206358684264124,-0.6146750358879566
1725629637662895600,6.0938955078125,0.7420230664283036,0.5612479816049337,-0.8150760276794433
1725629637672929500,6.103929443359375,0.7062032727673649,0.17910948969870805,-1.0173632716089487
1725629637682963700,6.113963623046875,0.6529369620040059,-0.11417582975625991,-1.0802309389322995
1725629637692997600,6.12399755859375,0.6172478089854121,-0.2985615062922239,-0.9858359144449234
1725629637703031600,6.134031494140625,0.6257216228201985,-0.2763360843501985,-0.7419564309328794
1725629637713065700,6.144065673828125,0.6286874868884682,-0.18765081581175327,-0.3041255701601505
1725629637723099600,6.154099609375,0.6229653098493814,0.35264439413547516,-0.010616086560487747
1725629637733133600,6.164133544921875,0.6016577334046364,1.080273755160719,0.19443126973211763
1725629637743167700,6.174167724609375,0.18689415222555397,0.8857121370472013,1.136726733136177
1725629637753201700,6.18420166015625,-0.3938935193687677,0.7961341574527323,2.2114655043929816
1725629637763236600,6.194236572265625,-0.3030754765853286,1.100709955598414,2.517886492013931
1725629637773270500,6.2042705078125,0.30073066702485085,0.9758040575131773,1.4472393739849327
1725629637783304700,6.2143046875,0.7142831188485026,0.17302753943651913,-0.18412147264182566
1725629637793338600,6.224338623046875,0.8796925844967365,0.16585034128353,-1.3520569985121487
1725629637803372500,6.23437255859375,0.8283195401340723,0.12285554142668842,-1.2648328885674476
1725629637813406700,6.24440673828125,0.7814511137142777,0.32896658142805096,-0.7461661575824022
1725629637823440600,6.254440673828125,0.6619064504012465,0.6602819179393351,-0.5977285772621631
1725629637833474600,6.264474609375,0.3549529633387923,0.8082236775666475,-0.6571966652750969
1725629637843508700,6.2745087890625,-0.1531912045881152,0.6907466143079102,-0.7333703888952732
1725629637853542700,6.284542724609375,-0.5846858480766415,0.7421997381694615,-0.8609925602018833
1725629637863576600,6.29457666015625,-0.7187737082660198,0.9947719389639794,-1.0218120677113531
1725629637873610800,6.30461083984375,-0.5857596147879958,1.196417377858609,-1.151165592855215
1725629637883644700,6.314644775390625,-0.4954252638682723,1.4112079833999276,-1.1775824751377104
1725629637893678600,6.3246787109375,-0.6220996329307555,1.4707795317873358,-1.1659545811861753
1725629637903712800,6.334712646484375,-0.787403592377901,1.3472761939764022,-1.2847381969988345
1725629637913746700,6.34474658203125,-0.9221920020520686,1.287860274542123,-1.4254209254086017
1725629637923780600,6.354780517578125,-0.9261553527250885,1.240119010810554,-1.4515987382382154
1725629637933814500,6.364814453125,-0.7893921358466148,1.1532353848665953,-1.15512865126729
1725629637943848700,6.3748486328125,-0.7092100533679128,1.0171665069278328,-0.5009446118116379
1725629637953882600,6.384882568359375,-0.6091238315016031,0.7375434367962181,0.03111410018801689
1725629637963916500,6.39491650390625,-0.3554936460867524,0.34025450283549724,0.20524843182265756
1725629637973951500,6.404951416015625,-0.36540830637961624,-0.05155073901712894,0.3433779686182737
1725629637983985700,6.414985595703125,-0.19132745849788188,-0.46727585870474575,0.4831657940149307
1725629637994019800,6.425019775390625,-0.06734130560606717,-0.7676553742043674,0.5908218666136265
1725629638004053500,6.435053466796875,-0.08192249640524386,-1.1103839390031993,1.0023919124484062
1725629638014087700,6.445087646484375,-0.2806885804712772,-1.3847668434590101,1.2723007402300834
1725629638024121600,6.45512158203125,-0.25507249317765235,-1.1786615756113081,1.2060405078589915
1725629638034155500,6.465155517578125,-0.129746616114676,-0.3980681747049093,1.250557694977522
1725629638044189700,6.475189697265625,0.14290566515624523,0.29745588313788174,1.224517829313874
1725629638054223600,6.4852236328125,0.3597399053543806,0.6688844727203249,1.048463343271613
1725629638064257500,6.495257568359375,0.17003478736132382,0.8885089281588793,0.7769201922863721
1725629638074291700,6.505291748046875,-0.23424247111678123,0.980277841926366,0.5485141722381115
1725629638084325600,6.51532568359375,-0.5818678680464625,1.0244033993788062,0.5689198314070701
1725629638094359600,6.525359619140625,-0.6542395690351724,1.125195942883566,0.6741022073686123
1725629638104393700,6.535393798828125,-0.618133944170177,1.215912059662491,0.7845411886841058
1725629638114427600,6.545427734375,-0.4336547441318631,1.191532820687443,0.3714987322092056
1725629638124461600,6.555461669921875,-0.06612199294418096,0.996703199287504,-0.49854339588880536
1725629638134495700,6.565495849609375,0.3310577084884047,0.6585231646385044,-1.1573118405252694
1725629638144529700,6.57552978515625,0.653845016759634,0.4236500674679875,-1.0479033713012933
1725629638154563600,6.5855634765625,0.42803164355307816,0.7051193499881774,-0.6666331866621971
1725629638164597800,6.59559765625,0.4096344015970826,1.056887838071957,0.30942543013393875
1725629638174632400,6.605632568359375,0.4242278673559427,1.1061593801107257,0.8033826672762632
1725629638184666600,6.61566650390625,0.0947986368522048,0.6392847956832498,0.21882336818873882
1725629638194700800,6.62570068359375,0.1134372863486409,-0.12425298713445662,0.36804537688493727
1725629638204734500,6.635734375,0.6204007200583815,-0.3461722755119204,0.5475865359991788
1725629638214768600,6.6457685546875,0.9377262557923793,-0.08749459744915365,0.4403320299386978
1725629638224802800,6.655802734375,0.9980325481951237,-0.033061727124452586,0.417007852974534
1725629638234836500,6.66583642578125,1.1144815835803747,0.30206133110672234,0.3476788806825876
1725629638244870700,6.67587060546875,1.1168243473142385,0.6436243592575192,-0.03785188401043415
1725629638254904800,6.68590478515625,0.9940063614189624,0.6179106568083167,-0.3436918568730354
1725629638264938500,6.6959384765625,1.155158169622719,0.5559273711040615,-0.5072054257720708
1725629638274972700,6.70597265625,1.0702946513295173,0.4868490125723183,-0.9219634539932012
1725629638285006600,6.716006591796875,0.5775470822378993,0.18224588802829383,-1.1291145045667885
1725629638295040500,6.72604052734375,0.11344108574092387,-0.46196226246654987,-1.2352765392154454
1725629638305074700,6.73607470703125,-0.39394437277317046,-1.0219893239744007,-1.2478934442043303
1725629638315108600,6.746108642578125,-0.9681588034570217,-0.7795974486716091,-1.22180272513628
1725629638325142500,6.756142578125,-0.7739744942232966,-0.3690962011121213,-1.1862316455394029
1725629638335176700,6.7661767578125,-0.05358896684646606,-0.12337868851795791,-1.0142863483816384
1725629638345210600,6.776210693359375,0.3551069848567247,-0.0038958383947610854,-1.379328451797366
1725629638355244500,6.78624462890625,0.25153292087465523,-0.05831204984560608,-1.6365210058689117
1725629638365278700,6.79627880859375,0.010826514440774917,0.07424494751468301,-1.3563129023909568
1725629638375313400,6.8063134765625,0.05144084890186786,0.3817662975929677,-1.2969231403112411
1725629638385347600,6.81634765625,0.11715659913271664,0.6856663884341716,-1.4619897838711737
1725629638395381800,6.8263818359375,-0.16031857225000856,1.024859764844179,-1.240890871965885
1725629638405415400,6.83641552734375,-0.31111615969985723,1.1867408371705561,-0.8888999733030796
1725629638415449600,6.84644970703125,-0.3458440664708614,1.2919545581184326,-0.41127193967103953
1725629638425483800,6.85648388671875,-0.6598419190868735,1.5092533470883964,0.43290509480834005
1725629638435517400,6.866517333984375,-0.8881146681442856,1.8038883275866509,1.2981272554039955
1725629638445551600,6.876551513671875,-0.9688719201624393,1.6704207912527025,1.7666496070384978
1725629638455585800,6.886585693359375,-0.9540893615722655,1.0741022999841718,1.2394295672416686
1725629638465619500,6.896619384765625,-0.5829781673759221,0.36711854436360297,-0.13070084809958935
1725629638475653600,6.906653564453125,-0.12000760464966297,-0.27466325576715167,-0.9859534033447503
1725629638485687800,6.916687744140625,-0.0534609565526247,-0.6234930600505322,-0.8329185583621262
1725629638495721500,6.926721435546875,-0.09745470431894063,-0.6627160862836986,-0.12256897957026958
1725629638505755600,6.936755615234375,0.11301233893483877,-0.4926918933816254,0.39428865616619585
1725629638515789800,6.946789794921875,-0.09118687609583138,-0.3393514895811677,0.9251900148242711
1725629638525823500,6.956823486328125,-0.2822635747030377,-0.2573560010049492,1.2135264797002077
1725629638535857700,6.966857666015625,0.08533756554573774,-0.2967048455748707,0.9086872083127499
1725629638545891600,6.9768916015625,0.1803445844516158,-0.30287637381665405,0.46831484636366366
1725629638555925500,6.986925537109375,0.023496026399731636,-0.3766792035870254,0.07598550757169723
1725629638565959700,6.996959716796875,-0.18215514100492,-0.3122475018173456,-0.17629706262648104
1725629638575994600,7.00699462890625,-0.3164876236051321,-0.1602379082292318,-0.21597733110785483
1725629638586028500,7.017028564453125,-0.38353520696163174,-0.10249072572477161,-0.31030981175303457
1725629638596062700,7.027062744140625,-0.4269274817034602,0.017722740227915347,-0.18327917659878729
1725629638606096600,7.0370966796875,-0.8866904805600643,-0.11354215322891249,0.08686579802632331
1725629638616130600,7.047130615234375,-0.8899769548848271,-0.4079027554988861,0.44781040299534797
1725629638626164700,7.057164794921875,-0.5593026927560567,-0.5793376919817179,0.8820213197052478
1725629638636198400,7.067198486328125,-0.10318564918637275,-0.6724116969984024,1.1004191559582948
1725629638646232600,7.077232666015625,0.2066243963509798,-0.7396351483784616,0.7915759096264838
1725629638656266800,7.087266845703125,0.022900983116030692,-0.8295645717591047,0.4281020784407854
1725629638666300700,7.09730078125,-0.4196180354729295,-1.0030813560172915,0.23505729463100433
1725629638676334600,7.10733447265625,-0.29335078590661284,-1.007058077628538,0.06990531087517737
1725629638686368800,7.11736865234375,0.35490123315155503,-1.0211758156344295,0.0458972433000803
1725629638696402700,7.127402587890625,0.7492834128201007,-0.8536831139713525,-0.283439925006032
1725629638706436600,7.1374365234375,0.6034086687251925,-0.6016786300621927,-0.6142050802886486
1725629638716470800,7.147470703125,0.23689327788650988,-0.1836619653712958,-0.7858300594508647
1725629638726504700,7.157504638671875,-0.18498831860423087,0.5129108708720654,-0.8553665370136498
1725629638736538600,7.16753857421875,-0.8187950482025742,1.2844760389313101,-0.5885515835940838
1725629638746572800,7.17757275390625,-1.106080834981799,1.588972195969522,0.21637655955851076
1725629638756606700,7.187606689453125,-0.9855378082811832,1.6015644049085676,0.925361864259839
1725629638766640600,7.197640625,-0.827510561838746,1.55871588165462,1.4658599033027886
1725629638776675600,7.207675537109375,-0.6147875563517212,1.4549310975313186,1.8092817110627888
1725629638786709800,7.217709716796875,-0.34668694703578945,1.2474812101416288,1.330191203662753
1725629638796743700,7.22774365234375,0.025326456697285175,1.142520075715333,0.21369477312862872
1725629638806777600,7.237777587890625,0.6344359674125909,1.2362705186888574,-0.7069190198212861
1725629638816811800,7.247811767578125,1.2810317436963319,1.4249926169939338,-1.400328569728136
1725629638826845700,7.257845703125,1.6254408089280128,1.4860320459768175,-1.9374211842417717
1725629638836879600,7.267879638671875,1.8829164177246391,1.417500507672876,-2.0969863077759743
1725629638846913800,7.277913818359375,1.8614160951867698,1.2971614791117607,-2.024133253011107
1725629638856947700,7.28794775390625,1.9566700745910406,0.6397435723014175,-1.3648510136336087
1725629638866981600,7.297981689453125,1.55502345687747,-0.5212295672103763,-0.30175358033180233
1725629638877015800,7.308015869140625,0.5691758519947528,-0.5530385177947581,0.3338233738094568
1725629638887049700,7.3180498046875,0.12037190791741013,-0.204422356262058,0.18828326849639415
1725629638897083600,7.328083740234375,0.1828369857892394,-0.1860503948777914,-0.4162497280836105
1725629638907117600,7.33811767578125,0.3885971665263176,-0.18363865756094455,-0.9847650703430175
1725629638917151700,7.34815185546875,0.6815386409796774,-0.1985045105203986,-1.319459966289997
1725629638927185700,7.358185546875,0.8213684058219194,-0.166187902674824,-1.443257026350498
1725629638937219600,7.368219482421875,0.9159165750443935,0.02564852825850248,-1.5370751277327537
1725629638947253800,7.378253662109375,1.0827283087059856,0.31702260726466774,-1.5514450138688087
1725629638957287700,7.38828759765625,1.1440668667659162,0.601457973048836,-1.369028007057309
1725629638967321600,7.398321533203125,0.9219780670404434,0.9484322125934064,-1.1308189703971148
1725629638977356800,7.408356689453125,0.6073565295681357,1.2242895735159516,-0.8761264164477586
1725629638987390700,7.418390625,-0.012125029818713664,1.402369866297394,-0.4793570493817329
1725629638997424600,7.428424560546875,-0.881075563287735,1.400405872748047,-0.009663315880298614
1725629639007458600,7.43845849609375,-1.6132473900482058,1.3726526272952555,0.29285306551754475
1725629639017492700,7.44849267578125,-2.1098633250057697,1.339589146605134,0.33475334813594815
1725629639027526700,7.458526611328125,-2.3307231674581765,1.2303455125540494,0.28857787241637706
1725629639037560600,7.468560546875,-2.3486142134577035,1.0002797426000236,0.2116080299824476
1725629639047594800,7.4785947265625,-2.2418030672505496,0.8161896880097687,0.1643745696425438
1725629639057628700,7.488628662109375,-1.9155340543434023,0.7392573280420154,0.20698037018179893
1725629639067662600,7.49866259765625,-1.4075041604459284,0.5408330066183582,0.39337329488694667
1725629639077696800,7.50869677734375,-0.9597267829373478,0.3476417270099744,0.6371329514116049
1725629639087730700,7.518730712890625,-0.4930807465687394,0.10920538439992815,0.6808148567497729
1725629639097764600,7.5287646484375,-0.1026452586993575,-0.14348964818981474,0.4659247363567352
1725629639107798800,7.538798828125,-0.20292261922359464,-0.480466106602177,0.5124374812066554
1725629639117832700,7.548832763671875,-0.3816796422228217,-0.7097745553828776,0.46347266702949996
1725629639127866600,7.55886669921875,-0.5273147323429584,-0.5738507119379938,0.263926246240735
1725629639137900800,7.56890087890625,-0.4983282918334007,-0.09432111900094896,0.26621698752641676
1725629639147934700,7.578934814453125,-0.024782559078931808,0.25134189181458205,0.479192798730731
1725629639157968600,7.58896875,0.3608066578030586,0.41950324998684224,0.4853308630943298
1725629639168002600,7.59900244140625,0.3967348802745342,0.6499423102326691,0.3318903599202633
1725629639178037800,7.609037841796875,0.07197685645222664,0.7741421058751642,0.533846764460206
1725629639188071700,7.61907177734375,-0.03386018402576446,0.9281346899740397,0.6000444529891014
1725629639198105900,7.62910595703125,0.16213526628315447,1.1332650483749807,0.10295300947427749
1725629639208139800,7.639139892578125,0.19293314012885093,1.2736895642399788,-0.3404395770788193
1725629639218173700,7.649173583984375,-0.0009276362389326095,1.2428479973830282,-0.7119190200656652
1725629639228207900,7.659207763671875,0.1396779352813959,1.1723780383624136,-0.9779916306853293
1725629639238241800,7.66924169921875,0.4312660954296589,1.3516571855396031,-0.9243488878250121
1725629639248275700,7.679275634765625,0.6111211427986621,1.4190654189020395,-0.8148270213544369
1725629639258309600,7.6893095703125,0.6656827540695667,1.1280203526545316,-0.2181885774165392
1725629639268343800,7.69934375,0.5005868844151496,0.7864442458264529,0.20250293250679968
1725629639278377700,7.709377685546875,0.1774418487474322,0.3721779466450214,0.3887093947291374
1725629639288411600,7.71941162109375,-0.11270371137708425,-0.22750527181625366,1.0175368746101856
1725629639298445800,7.72944580078125,-0.018921850351989268,-0.8514123925603926,1.144776184079051
1725629639308479700,7.739479736328125,0.3113096364453435,-1.4145458956509829,0.4563292250156402
1725629639318513700,7.749513671875,0.7221522447884082,-1.6634142734915016,0.1982154644459486
1725629639328547800,7.7595478515625,1.073092757615447,-2.0190156177364287,0.4148375231981277
1725629639338581800,7.769581787109375,1.15027945767045,-1.9923405229091644,1.0068149895876646
1725629639348615700,7.77961572265625,1.2133350487813352,-0.7920943074773996,1.564881418547034
1725629639358649900,7.78964990234375,1.3909507927909492,-0.2199108711645007,0.47828503623604773
1725629639368683800,7.799683837890625,1.3688462207496166,-0.18759250975325703,-0.5126362186491489
1725629639378718700,7.80971875,1.0767913198724388,-0.27382176344171166,-1.0281623135209084
1725629639388752600,7.819752685546875,0.9141358291074633,-0.288412891113013,-1.2269412570685148
1725629639398786800,7.829786865234375,0.6623404579043388,-0.14919482842832804,-1.5358347722828387
1725629639408820700,7.83982080078125,0.05803308677375316,0.3386899569325149,-1.1926935350298882
1725629639418854700,7.849854736328125,-0.7465659705549478,1.0559146821908652,-0.00442892235815525
1725629639428888800,7.859888916015625,-1.203273965755105,1.1901376400019972,0.1919108113437891
1725629639438922800,7.8699228515625,-1.2703884768679736,0.9568806727912277,-0.3134147920310497
1725629639448956700,7.879956787109375,-0.8213722052142024,0.654859454499185,-1.2318243529349564
1725629639458990800,7.889990966796875,-0.2250976261526346,0.3070714874189347,-2.4859160672575236
1725629639469024800,7.900024658203125,-0.3516775949299335,0.307524564948678,-2.3677362625569103
1725629639479058700,7.91005859375,-0.1709583319470286,0.4041195836983621,-2.1051076549112797
1725629639489092900,7.9200927734375,-0.18542554097771644,0.35311420360431073,-2.116003727456927
1725629639499126800,7.930126708984375,0.11971242109537124,0.44481034439653155,-1.642878265941143
1725629639509160700,7.94016064453125,0.6206763221293687,0.6486427719414234,-0.9933131184577941
1725629639519194600,7.950194580078125,0.8649018426001072,0.846169231209904,-0.23427111268937587
1725629639529228800,7.960228759765625,0.6332660468503832,0.8894775539953261,0.7379577166855334
1725629639539262700,7.9702626953125,0.5002221427559852,0.7531271557014435,1.1515952164441345
1725629639549296600,7.980296630859375,0.39164953983426093,0.41883229192271826,0.9245131384760141
1725629639559330800,7.990330810546875,0.03505377772450447,-0.002844721906632185,0.5899427456915378
1725629639569364700,8.00036474609375,-0.10551058500260115,-0.3470876367911696,0.21134031895697117
1725629639579398700,8.010398681640625,-0.0984846318885684,-0.5713467662930488,-0.10844868428111076
1725629639589432800,8.020432861328125,-0.3835752467110753,-0.6134405256569385,-0.04495733210146427
1725629639599466800,8.030466796875,-0.4525327553421259,-0.5331052984431386,0.037564883762598034
1725629639609500700,8.040500732421876,-0.24881723217517135,-0.536879629350081,-0.07395020235180855
1725629639619534800,8.050534912109375,-0.22880904789119957,-0.6448616459675133,-0.06091010351479053
1725629639629568800,8.06056884765625,-0.21837153276801108,-0.8277207705233246,0.18435937305092812
1725629639639602700,8.070602783203125,-0.2801554965078831,-0.833266787277907,0.5300462031334638
1725629639649636900,8.080636962890624,-0.3007724603399634,-0.6761771139465272,0.8256319084852933
1725629639659670300,8.090670166015625,-0.2553355280280113,-0.4878492025908082,0.8914917433619499
1725629639669704400,8.100704345703125,-0.40765258013010025,-0.39068646695576603,0.7986673291921615
1725629639679738600,8.110738525390625,-0.48781829599589105,-0.3558233894977718,0.47594402606785297
1725629639689773600,8.120773681640625,-0.445835303530097,-0.2397110752535984,0.14176584747135637
1725629639699807500,8.130807373046874,-0.47150399779379365,-0.02305151576893404,-0.023589549902081487
1725629639709841400,8.14084130859375,-0.40375440364778037,0.05785778500577435,-0.11262041700780391
1725629639719875600,8.15087548828125,-0.2980374824181199,0.05492037984700873,-0.1766138734906912
1725629639729909500,8.160909423828125,-0.30320494818389415,0.008735510678007267,-0.20134908629655837
1725629639739943400,8.170943359375,-0.01516425138413906,0.040315607242845,-0.11124445247948168
1725629639749977300,8.180977294921876,-0.007399754862487316,-0.18584851563014088,0.052613399812579155
1725629639760011500,8.191011474609375,-0.28978344881385565,-0.5254156207233667,0.11363806961774825
1725629639770045400,8.20104541015625,-0.30384675321877,-0.908399258216843,0.1897574327021837
1725629639780079400,8.211079345703125,-0.3275280730575323,-1.2809934575125574,0.1337175655722618
1725629639790113500,8.221113525390624,-0.6397647612199187,-1.6590084397479892,0.057582420396804807
1725629639800147500,8.2311474609375,-0.6725564392313361,-1.828671032796055,0.1888163524597883
1725629639810181400,8.241181396484375,-0.2750064431816339,-1.8430200222745536,0.4563350702345371
1725629639820215600,8.251215576171875,0.013217208969593048,-1.7261390252128241,0.29039807358086106
1725629639830249500,8.26124951171875,0.33226270036399363,-1.5084006757818162,0.018676643419265747
1725629639840283400,8.271283447265626,0.6867725961104035,-0.9826697054989635,0.031468904975056645
1725629639850317600,8.281317626953125,0.6445879435926676,-0.054162528950721024,0.05073942263424396
1725629639860352500,8.2913525390625,0.15975333958268165,0.8796968222804367,0.11309621782600879
1725629639870386400,8.301386474609375,-0.4485626826673746,1.7001229788161814,0.07536591436862945
1725629639880420400,8.31142041015625,-0.6863438493043184,1.9296420746728777,0.08023030553460121
1725629639890454500,8.32145458984375,-0.3559235619366169,1.319415542626381,0.21301088251769543
1725629639900488400,8.331488525390625,0.14356529810875654,0.3866333191074431,0.4570838427752256
1725629639910522400,8.3415224609375,0.4908016957208514,-0.05090089680626988,0.33298224681019783
1725629639920556500,8.351556640625,0.6823381207942962,0.015405074402689933,-0.1227554420530796
1725629639930590500,8.361590576171874,0.890146758493781,0.31622268905863166,-0.6585732143253088
1725629639940624400,8.371624267578126,1.145726908932626,0.574134643445909,-1.1219833375126123
1725629639950658600,8.381658447265625,1.1566408093959093,0.7733867574632167,-1.576368442723155
1725629639960692500,8.3916923828125,0.9396531322017312,1.081607049591094,-1.4414678048461675
1725629639970726400,8.401726318359374,0.6730673113629222,1.3573708870112895,-0.8055185102611779
1725629639980760600,8.411760498046876,0.5789622097328305,0.8349065173089504,-0.21262685163617132
1725629639990794500,8.42179443359375,0.5931891802668571,0.14512889416366814,-0.5617313812077045
1725629640000828400,8.431828369140625,0.6330404214009642,0.00003682487905025482,-0.6723094787329434
1725629640010862300,8.4418623046875,0.5677472804963588,0.11613397808670997,-0.20045301423966883
1725629640020896500,8.451896484375,0.42055882345438,0.007118453703075647,0.03183832280933857
1725629640030930400,8.461930419921876,0.5899889229208231,-0.17720818612203001,-0.5248620784938335
1725629640040964400,8.47196435546875,0.7073246780127287,-0.48274756860285994,-0.8776818291962146
1725629640050999300,8.481999267578125,0.9077925975605845,-0.4409403710953891,-0.8029238175928592
1725629640061033500,8.492033447265625,1.293176647259295,-0.23677973450943826,-0.8578793966174125
1725629640071067600,8.502067626953124,1.184174128487706,-0.031606267619132995,-0.42569560182094573
1725629640081101300,8.512101318359376,1.0571192356750367,0.3460181078635156,0.00824701934158802
1725629640091135500,8.522135498046875,0.9973331677541136,0.8627762287482619,0.15926058762967585
1725629640101169700,8.532169677734375,0.6153764621555805,1.0550206559605897,0.37522213664650916
1725629640111203300,8.542203369140625,-0.023790917693078516,0.8979964490808546,0.36182021875977516
1725629640121237500,8.552237548828124,-0.9308420492365955,0.7246716802634299,0.07471534150540829
1725629640131271400,8.562271484375,-1.8336311394214628,0.48427740851864215,-0.2094260097682476
1725629640141305300,8.572305419921875,-2.4554727059379218,0.2134119375992566,-0.4832628246486187
1725629640151339500,8.582339599609375,-2.8707188099369403,0.11665252206809817,-0.5323404515504837
1725629640161373400,8.59237353515625,-2.7261288449555634,0.1247124944049865,-0.24938334162533282
1725629640171407400,8.602407470703126,-1.8476696016460656,0.18159787244834005,0.11180208636224269
1725629640181441500,8.612441650390625,-1.0172408142730593,0.13424308728370815,0.655898442158103
1725629640191475500,8.622475341796875,-0.32992110567390914,-0.0643484256667085,1.0296832394778728
1725629640201509400,8.63250927734375,0.1969084735006094,-0.4147670517778024,0.8903180234074592
1725629640211543600,8.64254345703125,0.3890320508122444,-0.9079638624742626,0.5898036294817924
1725629640221577500,8.652577392578126,0.4234042760133743,-1.3549142876394091,0.3148644063174724
1725629640231611400,8.662611328125,0.43709728580117224,-1.4387038930907845,0.1516647256731987
1725629640241646600,8.672646484375,0.2440697453871369,-0.8381987637873739,0.08378653671145439
1725629640251680300,8.68268017578125,-0.3443438910409808,-0.06845475130726117,0.4490110109567642
1725629640261714400,8.69271435546875,-0.6132371120393276,0.4231804041296243,0.5261345826476812
1725629640271748600,8.70274853515625,-0.5076835646778345,0.5988152399877086,0.35317630905508995
1725629640281782300,8.7127822265625,-0.31013299388140436,0.5853195794029161,0.23633272139430045
1725629640291816400,8.72281640625,-0.2712216639459133,0.3692983726207167,0.30490882949233056
1725629640301850600,8.7328505859375,-0.2760778718054294,0.05467419566675089,0.34614217263460156
1725629640311884300,8.74288427734375,-0.29183512064665557,-0.2934001049410552,0.08161328432559967
1725629640321918500,8.75291845703125,-0.22511837667971848,-0.6181375243667513,-0.2345101821422577
1725629640331952600,8.76295263671875,0.0013864859223365782,-0.7523382703460753,-0.11759878994226455
1725629640341986300,8.772986328125,0.3284153772860765,-0.4203069675851613,-0.07202011107206344
1725629640352020500,8.7830205078125,0.4707558097749948,-0.020281119473837313,-0.12283142989873885
1725629640362054700,8.7930546875,0.2784343718037009,0.14152188264764845,-0.06386719975471496
1725629640372088300,8.80308837890625,0.335398952563107,0.39453174420706927,0.41061727515459057
1725629640382122500,8.81312255859375,0.4125689937442541,0.7978788822282106,1.0189596008896826
1725629640392156400,8.823156494140624,0.5125196065321564,1.0804220775902271,1.4562527015239
1725629640402190300,8.8331904296875,0.7280041856870054,1.0879413671791553,1.8371990610361097
1725629640412224500,8.843224609375,0.7750695959836245,0.6968423008345067,0.7070289099365472
1725629640422258400,8.853258544921875,0.5753659388065337,-0.025062837325036523,-0.07497370018064975
1725629640432292400,8.863292236328125,0.6055480188414454,-0.031539851319417354,0.33293723862469193
1725629640442327600,8.87332763671875,0.5184563031047582,0.3185671332929283,0.45655835759639735
1725629640452361500,8.883361572265626,0.6059878715634346,0.25190979136303066,-0.18318389953076838
1725629640462395400,8.8933955078125,0.7347419695094227,0.10785400632359086,-0.458004464751482
1725629640472429600,8.9034296875,0.9227627876773477,-0.08062076615691184,-0.605159019523859
1725629640482463200,8.913463134765625,1.0541299907311796,-0.24137173847481608,-0.9125742788791656
1725629640492497400,8.923497314453124,0.897495075429976,-0.5272368448011577,-1.3036585860460996
1725629640502531600,8.933531494140626,0.49161301210373637,-0.9046172554600983,-1.5550900923728943
1725629640512565200,8.943565185546875,0.14723989496827125,-1.3658150363601744,-1.6761545125991104
1725629640522599400,8.953599365234375,-0.09348258581757544,-1.729791410240531,-1.8803765239834784
1725629640532633600,8.963633544921874,-0.6290887611657381,-1.2482985178738832,-1.7102023281514644
1725629640542667300,8.973667236328126,-1.1317726178601384,-0.061395110552757974,-1.040906644281745
1725629640552701400,8.983701416015625,-0.564244533072412,0.354197687992081,-0.5128969154119492
1725629640562735600,8.993735595703125,0.20731822383403778,0.16285218238085508,-1.0684481466799973
1725629640572769300,9.003769287109375,0.41346448127925395,-0.09547193300388752,-2.0542957515627145
1725629640582803500,9.013803466796874,0.2504708446010947,-0.3961797306098044,-2.1702426826447248
1725629640592837600,9.023837646484376,0.29768676928430793,-0.44260077858828006,-1.9849621030956506
1725629640602871300,9.033871337890625,0.18946809436678885,-0.22220789606049657,-1.4868822330653666
1725629640612905500,9.043905517578125,0.01842763709425926,-0.03813018949516117,-0.687359163826704
1725629640622939600,9.053939697265625,0.24100305129289626,0.01662994002252817,0.2694154913067818
1725629640632973300,9.063973388671876,0.2839186484336853,0.3864571588229388,1.3812223027199506
1725629640643008500,9.074008544921876,-0.1310401630565524,1.096185829237476,2.2899469204336405
1725629640653042400,9.08404248046875,-0.1872682462349534,1.157914701789245,2.0540783094197512
1725629640663076600,9.09407666015625,-0.10153525163084268,0.550309238961339,1.0355787272572516
1725629640673110500,9.104110595703125,-0.1339525433719158,0.04350377229228616,0.19380407774448394
1725629640683144400,9.11414453125,-0.10273790541887283,-0.24023396661654114,-0.14248480939567087
1725629640693178600,9.1241787109375,-0.46994858504533765,-0.31536219977177676,0.09141688545942306
1725629640703212500,9.134212646484375,-0.653473845359683,-0.4285662253538146,0.15816227099895477
1725629640713246500,9.14424658203125,-0.8319844923824071,-0.3981195030333474,0.19764321751594544
1725629640723280600,9.15428076171875,-1.228306115680933,-0.3709606798097491,0.5636719938814639
1725629640733314600,9.164314453125,-0.9069301355123519,-0.5050613994807005,0.7143395252108573
1725629640743348500,9.174348388671875,-0.5457762717068195,-0.5425541313225403,0.5262245990186929
1725629640753382700,9.184382568359375,-0.28371991099119187,-0.5219501731025055,0.5218792632907628
1725629640763416600,9.19441650390625,0.12968641036003828,-0.5922058683179319,0.4304126934707165
1725629640773450500,9.204450439453124,0.1823988866329193,-0.45855534009989346,0.03670855919420719
1725629640783484700,9.214484619140626,0.034378070420026774,-0.3185374322744086,-0.25154256548583503
1725629640793518600,9.2245185546875,-0.20486469320207834,-0.06645225237843115,-0.29731413657963274
1725629640803552500,9.234552490234375,-0.42114685247540473,0.02678240710966056,-0.19179624505341053
1725629640813586700,9.244586669921874,-0.4346189129889011,0.01672699805567972,-0.07784487170279025
1725629640823620600,9.25462060546875,-0.6276289177462459,0.15330111296968535,-0.009240706554055213
1725629640833654500,9.264654541015625,-0.9459668453931808,-0.4045421930246055,0.092569562625885
1725629640843688400,9.2746884765625,-0.6345677770987153,-0.9018268210239708,0.07583528544604778
1725629640853723600,9.2847236328125,-0.43084465514719483,-1.091244719573483,-0.04873743516206741
1725629640863757600,9.294757568359374,-0.561598110216856,-1.5910446183294058,-0.02245265482664108
1725629640873791700,9.304791748046876,-0.8314262739777565,-1.9542811336278914,0.059146600973606106
1725629640883825700,9.31482568359375,-0.807747292226553,-1.9966189308807252,0.24782675983309743
1725629640893859600,9.324859619140625,-0.4671399573653936,-1.9702701453983782,0.6226596049010753
1725629640903893800,9.334893798828125,0.07156827565133571,-1.7930438390977679,0.5872545295208692
1725629640913927700,9.344927734375,0.6517325546503067,-1.0961100605875254,0.2846738507151603
1725629640923961600,9.354961669921876,0.8233598719000816,-0.18159049285948275,0.036254385685920716
1725629640933995500,9.36499560546875,0.46854310216158623,0.8859124819248915,-0.3383446506261825
1725629640944029700,9.37502978515625,-0.1275882690370083,1.9563098629765212,-0.8001753956675529
1725629640954063600,9.385063720703124,-0.4422328951239586,2.6890572976678606,-1.0346785635471343
1725629640964097500,9.39509765625,-0.28502222576141356,2.6663363472938535,-0.6146925715446472
1725629640974131700,9.405131591796875,0.26034692644923924,2.2062485003970562,-0.023141806134581566
1725629640984165600,9.41516552734375,0.8498474813312291,1.4118908510975539,0.23866496373414992
1725629640994199600,9.425199462890625,1.0527239233255385,0.620486498645693,-0.08308803305327891
1725629641004233500,9.4352333984375,1.0357134595528243,0.13122531036511062,-0.5335463202089071
1725629641014267600,9.445267578125,0.9555185175925492,0.1316328682526946,-0.8799678943067789
1725629641024301600,9.455301513671875,0.8567194129273294,0.5063447172895074,-1.0936603293478488
1725629641034335500,9.46533544921875,0.8431836395278572,0.9912664150610565,-1.1625929957985877
1725629641044370700,9.47537060546875,1.0413716314449906,1.3270423842430115,-1.2300929990977048
1725629641054404600,9.485404541015624,1.2267007263109087,0.5635137345798313,-0.8458440909087658
1725629641064438500,9.4954384765625,1.0519354032963513,-0.48035438985601064,-0.016595745491981506
1725629641074472700,9.50547265625,0.816924870416522,-0.24494740500450132,0.08039104905426502
1725629641084506600,9.515506591796875,0.7027037402138113,-0.06973872213661671,-0.09897826062440872
1725629641094540500,9.52554052734375,0.7624073905482888,0.0627880262158811,-0.30169629718661306
1725629641104574700,9.53557470703125,0.9880267024874687,0.11612579478025435,-0.37667818067371844
1725629641114608600,9.545608642578125,1.0958505328685044,0.33191403305679557,-0.5036836813867092
1725629641124642600,9.555642578125,1.108911966754496,0.6174973998323082,-0.6545066955387592
1725629641134676700,9.5656767578125,1.0961486390322446,0.7499382234670221,-0.806040488308668
1725629641144710700,9.575710693359374,0.9156412652343511,0.9218310597851872,-0.962818611472845
1725629641154744600,9.58574462890625,0.7062362982541323,1.1277978690102697,-0.9726321494787931
1725629641164778800,9.59577880859375,0.4044435549557209,1.2719678550139069,-0.7972627230912447
1725629641174812700,9.605812744140625,-0.20051380451619624,1.3046189555108547,-0.3954284738510847
1725629641184846600,9.6158466796875,-0.919311770440638,1.2685320353463292,0.05616320124864578
1725629641194880500,9.625880615234376,-1.5298632966578005,1.2107963971491902,0.3221545633256435
1725629641204914700,9.635914794921876,-2.113849764293432,1.013766635356471,0.43968613325059414
1725629641214948600,9.645948486328125,-2.6271336331963537,0.8061945828918368,0.43953123494982715
1725629641224982500,9.655982421875,-2.7122508339896796,0.5788228012621403,0.38292847324013707
1725629641235016700,9.6660166015625,-1.996755709002912,0.24686953217349944,0.424031468001008
1725629641245051600,9.6760517578125,-1.1363783580899238,-0.14466813565096817,0.5013736508786678
1725629641255085800,9.6860859375,-0.34738340486735103,-0.44420817725230005,0.4420183755904436
1725629641265119500,9.696119384765625,0.30953122859597204,-0.6315845965694635,0.09052724314332007
1725629641275153700,9.706153564453125,0.8037427327603102,-0.8016538707222789,-0.3572130172252655
1725629641285187600,9.7161875,0.8524673084408044,-1.0015584572989493,-0.42989656064212317
1725629641295221500,9.726221435546876,0.5133686245769262,-1.0311373107437043,-0.12073708796799182
1725629641305255700,9.736255615234375,0.11486381202042102,-0.7470777194693684,0.30081250008940696
1725629641315289600,9.74628955078125,-0.1941083213880658,-0.4299415688276291,0.5700736776173114
1725629641325323500,9.756323486328125,-0.31279373752325773,-0.16622092816159129,0.48652679488062855
1725629641335357700,9.766357666015624,-0.20025456905812025,0.012434643757157027,0.20842939994633197
1725629641345391600,9.7763916015625,-0.20438070907741784,0.12056998777277766,0.1460533155322075
1725629641355425500,9.786425537109375,-0.3449740056380629,0.28230047264732416,0.49042146423161026
1725629641365459700,9.796459716796875,-0.6329468978986144,0.586279181682691,0.9758277306497096
1725629641375493600,9.80649365234375,-0.778157040604949,0.8284179590072482,0.8046487416893243
1725629641385527600,9.816527587890626,-0.3671311846494674,0.9728708536054939,0.5139759428203106
1725629641395561700,9.826561767578125,-0.02066547914892435,1.0751884147204458,0.11104980669021605
1725629641405595600,9.836595703125,0.17362930472195148,1.1973407763138413,-0.4015747215211391
1725629641415629600,9.846629638671875,0.4230377807885408,1.1959123509459197,-0.676881608954072
1725629641425663700,9.856663818359374,0.5499801531374454,1.0487954978354275,-0.3911661402314901
1725629641435697700,9.86669775390625,0.48877661963403224,0.8991529987048357,0.11541267807483672
1725629641445732600,9.876732666015625,0.2636298936426639,0.8538144122008233,0.7783861731857061
1725629641455766800,9.886766845703125,-0.08758855934292077,0.79414057248272,1.375343181553483
1725629641465800400,9.896800537109375,-0.23292992721348998,0.5657000656429678,1.4782114353537559
1725629641475834600,9.906834716796874,0.3326411782875657,-0.04969181327745318,0.7231137832969426
1725629641485868800,9.916868896484376,0.8367045066416263,-0.5320801931791007,-0.1292909813016653
1725629641495902500,9.92690234375,1.1864134318470954,-0.7608836150471121,-0.5625204857587814
1725629641505936600,9.9369365234375,1.4815882183104752,-0.6269397664383053,-0.6254711551904678
1725629641515970800,9.946970703125,1.4894401008546352,-0.4163770077250898,-0.7308774030357599
1725629641526004500,9.95700439453125,1.326203887592256,-0.35430377871505914,-1.1126561217188835
1725629641536038700,9.96703857421875,1.2033318334221839,-0.10995886964835226,-1.0600888991355895
1725629641546072600,9.977072509765625,0.8993816198289394,0.5170733973789959,-1.0851514441996812
1725629641556106500,9.9871064453125,0.5884352637380361,0.9299208427384495,-0.899956789368391
1725629641566140700,9.997140625,-0.03671528119593859,0.9889311770465224,-0.4928524907708168
1725629641576174600,10.007174560546876,-0.5990171557679772,0.8538937610473484,-0.17825871808826924
1725629641586208500,10.01720849609375,-0.5275821511074901,0.52768955700472,-0.6288713190227747
1725629641596242700,10.02724267578125,-0.34527591119408607,0.20071729119904339,-1.1070908888071775
1725629641606276600,10.037276611328124,-0.3607221943899989,0.20492972126230596,-0.8576134391576051
1725629641616310500,10.047310546875,-0.291144215773046,0.33327421549409625,-0.8519137662112712
1725629641626344700,10.0573447265625,-0.0873565041527152,0.17458631318584084,-1.2750181824952362
1725629641636379400,10.06737939453125,-0.1591048125460744,0.0597021890297532,-1.1765654070496558
1725629641646412500,10.07741259765625,-0.30674598179161544,0.13543591379746794,-0.5299626165032386
1725629641656447700,10.08744775390625,-0.2152837958857417,0.30882870634980497,-0.32065292659103867
1725629641666482200,10.097482177734374,-0.07665478513538837,0.1702215421050787,-0.31674598228037354
1725629641676516000,10.10751611328125,-0.10339753837138414,-0.046863238788023585,-0.033435236611962314
1725629641686550000,10.117550048828125,0.12775602681934833,-0.09586611995324491,-0.06711363433003426
1725629641696584000,10.127583984375,0.17503946378082036,-0.3714344348013401,-0.06260404795110225
1725629641706618000,10.1376181640625,0.022857143974304196,-0.7139689383327961,0.023102058646082876
1725629641716652000,10.147652099609376,-0.09679740945398807,-1.0359860659491271,0.1326063894599676
1725629641726686000,10.15768603515625,-0.27319325627982616,-0.7992085233967751,0.15741349845826624
1725629641736720100,10.16772021484375,-0.025735622020065782,-0.8060925838220864,0.15831658477783203
1725629641746754000,10.177754150390625,-0.01696194845587015,-0.8202523343387991,-0.06321370428204535
1725629641756788000,10.1877880859375,-0.1586640830412507,-0.6930548181850463,-0.5311883589059114
1725629641766822100,10.197822265625,0.0008893500551581383,-0.6765396636486053,-1.0325000504642725
1725629641776856000,10.20785595703125,-0.2857365115106106,-0.6020321196749806,-0.9357616777211427
1725629641786890000,10.217889892578125,-0.9554226560026406,-0.5325554825406521,-0.43505321275293823
1725629641796924200,10.227924072265624,-1.2419061864882708,-0.4320550903828814,-0.03491699960231781
1725629641806958000,10.2379580078125,-1.2869339534774422,-0.12058209833567961,0.31624913867413995
1725629641816992000,10.247991943359375,-1.118764667727053,0.0057156422670232125,0.5966735152512789
1725629641827026200,10.258026123046875,-0.6934314694777131,-0.07117480565460864,0.6058738897949457
1725629641837060000,10.26806005859375,-0.33148119459748265,-0.16331324228765443,0.5359527968287467
1725629641847094000,10.278093994140624,-0.01101151561886072,-0.26095232673017305,0.5222001658082008
1725629641857129200,10.288129150390626,0.1901645521983504,-0.2980988937491551,0.6292986045241356
1725629641867163100,10.2981630859375,0.32928719168454407,-0.520215787057951,0.8902204082518815
1725629641877197000,10.308197021484375,0.4365051651269197,-0.5330275935644283,0.9170505475103855
1725629641887231200,10.318231201171875,0.37747809887975453,-0.617856004011631,0.9241881443053483
1725629641897265200,10.32826513671875,0.33329292019456624,-0.8584401723053305,0.8320750932753086
1725629641907299000,10.338299072265626,0.5379097761154175,-0.9301949835047125,0.5017489139318466
1725629641917333200,10.348333251953125,0.5761155881300568,-0.7779523118130862,0.009370470413565635
1725629641927367200,10.3583671875,0.47021103537380693,-0.6021376989413052,-0.4466705853104591
1725629641937401000,10.368401123046874,0.10591478188931941,-0.6900004721157252,-0.600677490195632
1725629641947435300,10.378435302734376,-0.38747926841229197,-0.718248369217664,-0.546336828199029
1725629641957469000,10.388468994140625,-0.513216064363718,-0.7124529808118939,-0.08095160554647446
1725629641967503000,10.398503173828125,-0.17710984031409024,-0.48704321997016664,0.19854513479173183
1725629641977537300,10.408537353515625,-0.006332125630974769,-0.08895970156565308,0.16473405060470103
1725629641987571000,10.418571044921874,-0.11864537638574837,0.5911280099533498,-0.0691641371190548
1725629641997605000,10.428605224609376,-0.49768181062340733,1.111238510005921,-0.36071781047582624
1725629642007639300,10.438639404296875,-1.0127730212092398,1.336907798566669,-0.747274411085248
1725629642017673000,10.4486728515625,-0.8145435282379389,0.8735982131443917,-0.662612260583043
1725629642027707100,10.45870703125,-0.07798457243442534,0.10307239807024597,-0.27623978436887264
1725629642037741300,10.4687412109375,0.5937886074647307,-0.6456652174353599,0.30006781920194625
1725629642047775000,10.47877490234375,0.8605985924482346,-0.7657106698773801,0.5230079750597477
1725629642057810200,10.48881005859375,0.9465081126630306,-0.4255294514738023,0.3838426654756069
1725629642067844000,10.498843994140625,0.8864072797045112,0.21965791931673884,-0.07397241418361664
1725629642077878000,10.5088779296875,0.7713166731908917,0.8918617457181215,-0.5944377190232276
1725629642087912200,10.518912109375,0.9267378287881612,1.3141526536621153,-0.8031447668671607
1725629642097946000,10.528946044921875,1.4580904383450746,1.017140568768978,-0.8755617683023214
1725629642107980000,10.53897998046875,1.3049340128093958,-0.4484392024181783,-0.39669863991737364
1725629642118014200,10.54901416015625,0.8610857914432882,-0.7231817339666188,-0.13533376859724522
1725629642128048000,10.559048095703124,0.8399784137457609,-0.3761657011069357,-0.34946868670880793
1725629642138082000,10.56908203125,0.598202624514699,-0.2004736186362803,-0.010485738179087638
1725629642148116200,10.5791162109375,0.41407413761019707,0.03930339799299836,0.046720250120759005
1725629642158150100,10.589150146484375,0.30303134518265723,0.13944485717788338,-0.03849661165475845
1725629642168184000,10.59918408203125,0.23450784405469893,0.2564047646947205,-0.1216091946274042
1725629642178218200,10.60921826171875,0.3554971532180905,0.09168941879048943,-0.03257014421522617
1725629642188252200,10.619252197265626,0.47195437190979717,0.11740516706630587,0.0461193616181612
1725629642198286000,10.6292861328125,0.5066358091905713,0.1799151069931686,-0.10805705461502074
1725629642208320300,10.6393203125,0.43150107322931286,0.24713819304704665,-0.31484511709511276
1725629642218354000,10.64935400390625,0.18427520189881325,0.29166034860163925,-0.6452455307185649
1725629642228388000,10.65938818359375,-0.07811462855488062,0.2819312740087509,-1.0792892741680145
1725629642238422300,10.66942236328125,-0.37217736212313174,0.3500155069366097,-1.2726917853742836
1725629642248456000,10.6794560546875,-0.8134136474251746,0.4580759225524962,-1.1894126136630774
1725629642258491100,10.6894912109375,-1.3409902455747127,0.5362567482113838,-1.001347956353426
1725629642268525000,10.699525146484374,-1.7671534649074077,0.543338303970173,-0.7142763968467712
1725629642278559200,10.709559326171876,-1.7837953876286745,0.5173417659915983,-0.3264765181779861
1725629642288593200,10.71959326171875,-1.3568223132178188,0.3243148831646889,-0.007856558719277382
1725629642298627000,10.729626953125,-0.6406330684870482,0.13981464033834634,0.02431143443584442
1725629642308661000,10.739660888671875,-0.08766191684007645,-0.11126633551772683,-0.008323591709136963
1725629642318695200,10.749695068359374,-0.025810440821945665,-0.47817317335940895,0.2005149735599756
1725629642328729000,10.75972900390625,-0.12826426860243081,-0.898257876496017,0.295111073577404
1725629642338763000,10.769762939453125,-0.004258826488256455,-1.1879124382331967,0.2714472893953323
1725629642348797200,10.779797119140625,-0.06849427503347397,-1.4684845527179538,0.45537703885734077
1725629642358831000,10.7898310546875,-0.2076958249747753,-1.574841525416821,0.6333493412196636
1725629642368865000,10.799864990234376,-0.04864478844255209,-1.2322377560414373,0.6383242070227861
1725629642378899200,10.809899169921875,0.26917525281012056,-0.7549214917723089,0.7797539544075727
1725629642388933000,10.81993310546875,0.40749008304476736,-0.438913577975519,0.978499580207467
1725629642398967000,10.829967041015625,0.33910482134371994,-0.2703098828632384,1.1051163738638161
1725629642409001200,10.840001220703124,0.03919336174726486,-0.11174936979431659,1.2670324444383383
1725629642419035100,10.85003515625,-0.28075784631520506,0.031348593930481,1.344738199931383
1725629642429069000,10.860069091796875,-0.2635229261368513,0.2627950502537191,1.2142518713653088
1725629642439103200,10.870103271484375,-0.05153349562138319,0.6341638724729418,0.9040975424349308
1725629642449137200,10.88013720703125,0.01729220332354307,0.8199228831887244,0.956272550830245
1725629642459171000,10.890171142578126,0.02845540237277746,0.8856143757611512,1.1324702447354793
1725629642469206000,10.9002060546875,0.35673896997272964,0.933617870625481,0.9831003520011902
1725629642479240200,10.910240234375,0.6308145620450377,0.9234007202547043,0.7170487841695546
1725629642489274000,10.920274169921875,0.7964572519272566,0.9031183952044695,0.4815121815890073
1725629642499308000,10.93030810546875,0.7111763850048184,0.8205421841308475,0.522449756655097
1725629642509342200,10.94034228515625,0.6640785337433218,0.5580244164485484,0.19059680613577365
1725629642519376100,10.950376220703125,0.635394583311677,-0.0485929121248424,-0.46334816386699673
1725629642529410000,10.96041015625,0.4775695814430713,-0.8053130508169531,-1.357103175985813
1725629642539444200,10.9704443359375,0.4455401199758053,-1.447607476644963,-2.148237187063694
1725629642549478100,10.98047802734375,0.3569450139388442,-1.8556427724823354,-2.3844319612920284
1725629642559512000,10.990511962890626,0.31137159576565027,-1.9934025991827249,-2.336114212846756
1725629642569546000,11.0005458984375,0.43776656336486336,-1.2075722474709152,-1.136283081021905
1725629642579580200,11.010580078125,0.8670204421892762,-0.025405878609046337,-0.04440612795948982
1725629642589614000,11.020614013671874,0.9010729339167475,0.30834318785518405,-0.10345043760240077
1725629642599648000,11.03064794921875,0.4351049429401755,0.421698348878324,-0.6577846942961215
1725629642609682200,11.04068212890625,0.04290419896394014,0.2719499782204628,-1.0394669668674468
1725629642619716000,11.050716064453125,-0.25703677898794414,-0.18349661874175072,-1.2087731476932764
1725629642629750000,11.06075,-0.32188539099544283,-0.5507218383502215,-1.517458573114872
1725629642639784200,11.0707841796875,-0.21578356210142371,-0.7668358745150268,-1.912117816159129
1725629642649818000,11.080818115234376,-0.21584932081401348,-0.8091284443866461,-1.8717261845380067
1725629642659852000,11.09085205078125,-0.361883931645751,-0.5558313633836806,-1.2494032642453907
1725629642669885200,11.10088525390625,-0.319909999269247,-0.20911920884139834,-0.6583902589738369
1725629642679920000,11.110920166015624,-0.11250117454230785,-0.20086035293154417,-0.14591595288813114
1725629642689954300,11.120954345703124,0.14960545505583286,-0.23899675297178327,0.2956535098910332
1725629642699988500,11.130988525390626,0.38714492189139127,-0.17036964533887802,0.3293009279489517
1725629642710022100,11.141022216796875,0.3380667104676366,0.0072467562578618526,0.5267793102920055
1725629642720056300,11.151056396484375,0.237547650142014,0.12708185388483106,0.985719010066986
1725629642730090200,11.16109033203125,0.34676235035955905,-0.039625031162798405,1.4881652586132288
1725629642740124200,11.171124267578126,0.5197106870800257,-0.23002887200973926,1.4941303044974803
1725629642750158300,11.181158447265625,0.7767989039942622,-0.40084640724658965,0.7772779196828603
1725629642760192300,11.191192138671875,0.9766273565948009,-0.5989197598081082,-0.06223813724815845
1725629642770226200,11.20122607421875,0.9393822063058614,-0.670704308558628,-0.24835984379649162
1725629642780260400,11.21126025390625,0.3661839669272303,-0.6141529117099941,0.10252280136346817
1725629642790294300,11.221294189453126,-0.33543928457349537,-0.5068444104399532,0.39017186849713326
1725629642800328200,11.231328125,-0.4594663539975881,-0.28019400188736615,0.2403957330495119
1725629642810362400,11.2413623046875,-0.2678457577720284,-0.06328925373628735,-0.16149579933583735
1725629642820396300,11.251396240234374,-0.11930997777432202,-0.02098060951270163,-0.4863017539530992
1725629642830430200,11.26143017578125,-0.1701920237496495,0.028054822215251622,-0.6146633454501629
1725629642840464400,11.27146435546875,-0.1676698117956519,0.029265823706518857,-0.42668870451152324
1725629642850498300,11.281498291015625,-0.2529962714254856,0.0404057514780201,-0.09000000439882277
1725629642860532200,11.2915322265625,-0.45213440367430446,-0.021524087005946786,0.3596393675893545
1725629642870566400,11.30156640625,-0.5708797333031892,-0.09338668769504875,0.48269642293751236
1725629642880600300,11.311600341796876,-0.4793777999088168,-0.22932806679662315,0.3761164551377296
1725629642890635300,11.32163525390625,-0.3878440100714564,-0.42320257942881434,0.2441302434027195
1725629642900669400,11.33166943359375,-0.2009799607232213,-0.7027198145657777,0.19453531462848186
1725629642910703000,11.341703125,0.012581249153614044,-0.7206793226916343,0.0029880759000778198
1725629642920737300,11.3517373046875,0.1255450727716088,-0.8397454087074846,-0.1022597665131092
1725629642930771500,11.361771484375,0.050593876683712,-1.1012823486588894,-0.04396773654222488
1725629642940805000,11.37180517578125,-0.017140812154114244,-1.1928577126156539,-0.1740589283108711
1725629642950839300,11.38183935546875,-0.24452625698298214,-1.3390697989061473,-0.3899105872124433
1725629642960873500,11.39187353515625,-0.8057023423954844,-1.6078649663574993,-0.25221535018086433
1725629642970907100,11.4019072265625,-1.1452525694191455,-1.7494737235710023,0.1759288138359785
1725629642980941300,11.41194140625,-0.9879682502985,-1.7671964272662997,0.7365688926756382
1725629642990975200,11.421975341796875,-0.697150490000844,-1.3250791213460267,0.797360922768712
1725629643001009200,11.432009033203125,-0.6462623065456747,-0.8728796896114945,0.5686053586304187
1725629643011043300,11.442043212890624,-0.6206096866339444,-0.7942391374863683,0.4403852214306593
1725629643021077200,11.4520771484375,-0.42859132326245303,-0.8943481557063758,0.5108493352323771
1725629643031111200,11.462111083984375,-0.1687728046014905,-0.5861421843647957,0.6857581583708524
1725629643041145300,11.472145263671875,-0.02018792476505041,0.18629107176586984,0.8197282373994589
1725629643051179300,11.48217919921875,0.04082710042893886,0.9382366895325481,0.7715928597837686
1725629643061213200,11.492213134765626,0.02269026297479868,1.5781287303939462,0.3191705790787935
1725629643071247400,11.502247314453125,-0.07649228805005549,1.882614512168616,-0.15845920811891556
1725629643081281300,11.51228125,0.06153554193675518,2.018025876046717,-0.6087608434081078
1725629643091316200,11.522316162109375,0.4567373674251139,1.8710557379305361,-0.8530740421622991
1725629643101350400,11.532350341796874,0.9090829296320676,1.6310061879701911,-1.1077835472464561
1725629643111384000,11.542384033203126,1.254727674138546,1.6739233925461767,-1.4249480471998452
1725629643121418200,11.552418212890625,1.404560215948522,1.7204479739643632,-1.8724825558632612
1725629643131452400,11.562452392578125,1.2430403050847352,1.5194605605870484,-2.048319599762559
1725629643141486000,11.572486083984375,0.8525824592530726,1.1807765950039029,-1.974819479265809
1725629643151520300,11.582520263671874,0.43291707750707864,0.2844661993138492,-1.107390164014697
1725629643161554400,11.592554443359376,0.2898731729239225,-0.5168982600077986,-0.03659107029438018
1725629643171588000,11.602588134765625,0.5336185086622834,-0.39682431212365626,-0.3119084791213274
1725629643181622300,11.612622314453125,0.9407125781267881,-0.47589828722998495,-0.6497925264984369
1725629643191656400,11.622656494140625,1.1970203121878207,-0.5118671339727938,-0.6798731919854879
1725629643201690000,11.632690185546876,1.2316970732934773,-0.3380859996899962,-0.6220768365770578
1725629643211724300,11.642724365234375,1.3596739032566547,-0.10119812863096594,-0.7908025871664285
1725629643221758500,11.652758544921875,1.5093518390268086,0.1144531853929162,-1.1666221051841974
1725629643231792000,11.662792236328125,1.2658312519550323,0.23311580517441033,-1.2193810509473084
1725629643241826300,11.672826416015624,0.9510673834025859,0.49278877788484093,-1.351733757907152
1725629643251860200,11.682860107421876,0.4890504681393504,0.7573449925921857,-1.3219734104156493
1725629643261894100,11.69289404296875,0.07314414666593075,1.132838201265037,-1.1067845993369818
1725629643271928300,11.70292822265625,-0.23472061002254485,1.5489254322633146,-0.6727426094532013
1725629643281962200,11.712962158203124,-0.5772714801669121,1.8290867739900944,-0.0625806670755148
1725629643291996200,11.72299609375,-1.0302093091785907,1.9527219214871525,0.6160819800764322
1725629643302030300,11.7330302734375,-1.9179846623659134,1.8099328684478997,1.147680088827014
1725629643312065300,11.743065185546875,-2.935773465910554,1.5400760631144046,1.3715256690919397
1725629643322099200,11.75309912109375,-3.3451115149095654,1.1032575211893767,1.5513696105450392
1725629643332133400,11.76313330078125,-3.063615709708631,0.5271224977064878,1.701672400215268
1725629643342167300,11.773167236328124,-2.394927051821351,-0.15672098614946006,1.8538292933195828
1725629643352201200,11.783201171875,-1.5505056871920824,-0.8005311503026634,1.7104016501158474
1725629643362235400,11.7932353515625,-0.7438979203894734,-1.2902236426725984,1.30660457637012
1725629643372269000,11.80326904296875,0.08889116637408732,-1.6580289271913469,0.9233791660100221
1725629643382303200,11.81330322265625,0.7822358343511819,-1.8560263649724422,0.46933483706116674
1725629643392337400,11.82333740234375,1.2359360260374843,-1.7227533282972871,0.07669628618955612
1725629643402371000,11.83337109375,1.4721049351722002,-1.3177264204956591,-0.21075930419862268
1725629643412405200,11.8434052734375,1.5516303073078392,-0.7534230699080974,-0.4388105194598436
1725629643422439400,11.853439453125,1.26559276702404,-0.15908771528080104,-0.2496633276104927
1725629643432473000,11.86347314453125,0.8362228606045246,0.5050192773720249,-0.03980009546875953
1725629643442507300,11.87350732421875,0.608098287846148,1.1761417748101055,0.08424538639485836
1725629643452541400,11.88354150390625,0.3982727573662996,1.7089008901640772,0.31973113557100297
1725629643462575000,11.8935751953125,0.018408494002372024,2.0299692656882105,0.26431787590682504
1725629643472609300,11.903609375,-0.47285278205424547,1.8239023570895194,-0.10565817677974701
1725629643482643500,11.9136435546875,-0.7670607693120837,1.2840866012223064,-0.8123100700974464
1725629643492677000,11.923677001953125,-0.9844649183526635,0.8336234186958521,-1.2811638456434011
1725629643502711300,11.933711181640625,-0.9577885083511471,0.47409890965782103,-1.2417618095815182
1725629643512745200,11.9437451171875,-0.5084653627052903,0.32080906700082124,-0.8812813149929046
1725629643522779100,11.953779052734374,0.04261223028004169,0.2770990315467119,-0.29444705671072
1725629643532813300,11.963813232421876,0.2036743143737316,0.10192147446945309,0.15866846695542336
1725629643542847200,11.97384716796875,0.4371624599918723,-0.4486932502444833,-0.017278467059135435
1725629643552881200,11.983881103515625,0.796167329069972,-0.9904678120292723,-0.8015151198387146
1725629643562915300,11.993915283203124,0.6967389865905046,-1.1909241142045706,-1.1672563114345074
1725629643572949200,12.00394921875,0.4204251140721142,-0.5171781729277223,0.900777458101511
1725629643582984200,12.013984130859376,0.3164695034265518,1.189250993360579,3.290433876043558
1725629643593018400,12.024018310546875,-0.05119593423008918,1.859342942174524,1.9627736521631478
1725629643603052300,12.03405224609375,-0.4445107769280672,1.5844079567939042,0.847231161352992
1725629643613086200,12.044086181640624,-0.122532739213109,1.6183898675031958,0.5113116920471191
1725629643623120400,12.054120361328126,0.359692559081316,1.232570348996669,-0.17510229988396167
1725629643633154000,12.064154052734375,0.6792461461283266,0.567492282821983,-1.0849515377134085
1725629643643188200,12.074188232421875,0.6233206991583109,-0.31198826635926963,-2.2539316042006012
1725629643653222400,12.084222412109375,0.2818925494335592,-1.3250003570213913,-2.5732541589707134
1725629643663256000,12.094256103515624,-0.008680734583735465,-2.290383412154764,-1.908577951595187
1725629643673290500,12.10429052734375,-0.5441137453220785,-1.9846300946623086,-0.9268804521292447
1725629643683324700,12.11432470703125,-0.3740180215537548,-0.24931349125951527,-0.1299362934678793
1725629643693358300,12.1243583984375,0.3394169560328126,0.20370587855577468,-0.17002748083770275
1725629643703392500,12.134392578125,0.9814597451873123,-0.1677487222507596,-0.6833470055758952
1725629643713426700,12.1444267578125,1.158698326447606,-0.4499911811005324,-1.4059996011018752
1725629643723460400,12.15446044921875,0.8391460545748471,-0.5749139572553337,-1.9289836107641458
1725629643733494500,12.16449462890625,0.5829764138102531,-0.4928317402437329,-1.7767103978037833
1725629643743528700,12.17452880859375,0.23777999759316443,-0.22411730987839398,-1.15552028093338
1725629643753562400,12.184562255859374,-0.02329831187054515,0.1333206021439284,-0.4556558557987213
1725629643763596500,12.194596435546876,-0.31605332384109497,0.5982797814041376,0.11402969928383827
1725629643773630700,12.204630615234375,-0.5623106424003839,1.076428550974652,0.5686620572537183
1725629643783664400,12.214664306640625,-0.40225218239128585,1.5664825701333582,0.5996802958518266
1725629643793699600,12.224699462890625,-0.2903650480940938,1.6456423238269984,0.3660685238540172
1725629643803733500,12.2347333984375,-0.3592369242683053,0.9201442026767879,0.1301011286407709
1725629643813767400,12.244767333984376,-0.32386282854825255,0.10466741217672824,-0.08089081526994704
1725629643823801600,12.254801513671875,-0.31127018121778965,-0.2524371762380004,-0.17454408147931097
1725629643833835500,12.26483544921875,-0.3199015237018466,-0.29810872102342545,-0.06868132203817368
1725629643843869400,12.274869384765625,-0.24541268442869185,-0.3080973233353346,-0.148562668004632
1725629643853903600,12.284903564453124,-0.3991887031674385,-0.245666074667871,0.04055588227212429
1725629643863937500,12.2949375,-0.9297384719088673,0.04637085216119885,1.1288631601542234
1725629643873971500,12.304971435546875,-0.8706661052152513,0.13574410296380518,1.3828425973981617
1725629643884005600,12.315005615234375,-0.47499739286750553,0.18927501948010175,1.2492606409043072
1725629643894040600,12.32504052734375,-0.20555179868340492,0.11283676317222416,1.0701187102407217
1725629643904074500,12.335074462890624,0.04730798688083887,-0.060336651008389884,0.955804348796606
1725629643914108400,12.3451083984375,0.1058303184762597,0.045332375958934426,0.9138391842484473
1725629643924142600,12.355142578125,-0.04271656743735075,-0.06524731073519215,0.881996769785881
1725629643934176500,12.365176513671875,0.024398235936462877,-0.2967016489707865,0.8779261593461036
1725629643944210400,12.37521044921875,0.2527577864944935,-0.49410117565765976,0.9583318214476108
1725629643954244600,12.38524462890625,0.516811750768125,-0.7832751873362809,0.8522042735904455
1725629643964278500,12.395278564453125,0.574129090487957,-1.076573731599003,0.4798989011734724
1725629643974312400,12.4053125,0.1903156511068344,-1.3255778646484015,0.07399228792786598
1725629643984346600,12.4153466796875,-0.3014879151329398,-1.4780816714942455,-0.020269465568661688
1725629643994380500,12.425380615234374,-0.6873141556411981,-1.6560120344109832,0.1770171935945749
1725629644004414500,12.43541455078125,-0.5209288306981325,-1.6125412876054643,0.20959669016003607
1725629644014448400,12.445448486328125,-0.19881722973138094,-1.3928455204963683,0.07389467277228831
1725629644024482600,12.455482666015625,0.11020108090639114,-1.115722085160762,-0.28433307445347306
1725629644034516500,12.4655166015625,0.28853754040598867,-0.5347399139076471,-0.6850549785375595
1725629644044550400,12.47555029296875,0.23961276597827671,0.46795755735859274,-1.3013508936256168
1725629644054584600,12.48558447265625,0.31260201434344054,1.2245539235405623,-1.8057348322361706
1725629644064618500,12.495618408203125,0.6747340755313634,1.561614233444631,-1.8871318434625863
1725629644074652400,12.50565234375,1.0353288441494106,1.839656683321297,-1.806896277230978
1725629644084686600,12.5156865234375,0.9270379807785153,1.7991592532381415,-1.682125403702259
1725629644094721500,12.525721435546876,0.5101087459981442,1.4495577339299022,-1.4583511351078748
1725629644104755500,12.53575537109375,0.15593173546791075,1.078414391029626,-0.7391039641112088
1725629644114789400,12.545789306640625,0.14269903666824102,1.1545661950789392,-0.08037877409458159
1725629644124823600,12.555823486328125,0.14822276852577923,1.222194647063315,0.19581834017634392
