time,seconds_elapsed,z,y,x
1725629631602334500,0.03333447265625,-0.6028395295143127,0.10191487520933151,-0.24870426952838898
1725629631612368600,0.04336865234375,-0.7484736442565918,0.1872464120388031,-0.3089890778064728
1725629631622402600,0.053402587890625,-0.8540743589401245,0.1763697862625122,-0.3569888174533844
1725629631632436500,0.0634365234375,-0.9846644401550293,0.09293904900550842,-0.3342532217502594
1725629631642470700,0.073470703125,-1.1936101913452148,-0.20575150847434998,-0.1636761724948883
1725629631652504600,0.083504638671875,-1.4204490184783936,-0.2802782356739044,-0.09943754225969315
1725629631662538500,0.09353857421875,-1.5477768182754517,0.06653961539268494,-0.1254534125328064
1725629631672572700,0.10357275390625,-1.3540982007980347,0.43271782994270325,-0.13428620994091034
1725629631682606600,0.113606689453125,-0.9142952561378479,0.8065510988235474,-0.08493304252624512
1725629631692640500,0.123640625,-0.6398791074752808,1.080033302307129,-0.061473432928323746
1725629631702674700,0.1336748046875,-0.5599387288093567,1.1819943189620972,-0.08204448968172073
1725629631712708600,0.14370849609375,-0.46239838004112244,1.2108023166656494,-0.18170854449272156
1725629631722742500,0.153742431640625,-0.4786977171897888,1.3317104578018188,-0.2989480793476105
1725629631732776700,0.163776611328125,-0.5007493495941162,1.246347188949585,-0.3421056270599365
1725629631742810400,0.173810302734375,-0.47457289695739746,1.048116683959961,-0.3212552070617676
1725629631752844500,0.183844482421875,-0.39114001393318176,0.9335671663284302,-0.18408942222595215
1725629631762878700,0.193878662109375,-0.06704504787921906,0.7849593162536621,0.02391703426837921
1725629631772912400,0.203912353515625,0.434616357088089,0.5157091617584229,0.23658767342567444
1725629631782946600,0.213946533203125,0.7893624305725098,-0.035584062337875366,0.4151606261730194
1725629631792980700,0.223980712890625,1.0393142700195312,-0.7354130148887634,0.5026538968086243
1725629631803014400,0.234014404296875,1.2558047771453857,-1.169926404953003,0.5161737203598022
1725629631813048600,0.244048583984375,1.4522430896759033,-1.2616193294525146,0.5034878253936768
1725629631823082800,0.254082763671875,1.5425082445144653,-1.1008272171020508,0.4285203516483307
1725629631833117400,0.264117431640625,1.4870476722717285,-0.8224456310272217,0.275465726852417
1725629631843151600,0.274151611328125,1.3423762321472168,-0.4454368054866791,0.0725213810801506
1725629631853185500,0.284185546875,1.210118055343628,0.057107262313365936,-0.19073182344436646
1725629631863219500,0.294219482421875,1.1440250873565674,0.5876870155334473,-0.5034692287445068
1725629631873253600,0.304253662109375,1.1920901536941528,1.2501496076583862,-0.8375512361526489
1725629631883287600,0.31428759765625,1.3093433380126953,1.7000291347503662,-1.1736645698547363
1725629631893321500,0.324321533203125,1.4189586639404297,1.9150750637054443,-1.4507007598876953
1725629631903355600,0.334355712890625,1.566720724105835,2.2353456020355225,-1.669195532798767
1725629631913389600,0.3443896484375,1.8148316144943237,3.0945849418640137,-1.966912865638733
1725629631923423500,0.354423583984375,1.8919721841812134,3.6450607776641846,-2.1550443172454834
1725629631933457700,0.364457763671875,1.6465715169906616,3.3911964893341064,-2.052319049835205
1725629631943491600,0.37449169921875,1.3859028816223145,3.475302219390869,-1.8613368272781372
1725629631953525500,0.384525390625,1.2133347988128662,3.8218438625335693,-1.890483021736145
1725629631963559700,0.3945595703125,1.0327820777893066,4.030778884887695,-2.183279275894165
1725629631973593600,0.404593505859375,0.9752115607261658,4.186807632446289,-2.5602142810821533
1725629631983627500,0.41462744140625,0.9228308796882629,4.186478614807129,-2.7520694732666016
1725629631993661700,0.42466162109375,0.7572143077850342,4.3180646896362305,-2.731638193130493
1725629632003695400,0.4346953125,0.4564664661884308,4.366284370422363,-2.6125285625457764
1725629632013729500,0.4447294921875,0.21267209947109222,4.226747989654541,-2.5231878757476807
1725629632023763700,0.454763671875,-0.09546041488647461,4.3926005363464355,-2.3744442462921143
1725629632033797400,0.46479736328125,-0.43805205821990967,4.476286888122559,-2.2811532020568848
1725629632043831600,0.47483154296875,-0.6634956002235413,3.916378974914551,-2.219912528991699
1725629632053865700,0.48486572265625,-0.9032489061355591,3.470179557800293,-1.8797568082809448
1725629632063899400,0.4948994140625,-1.074346899986267,2.9057579040527344,-1.580306887626648
1725629632073933600,0.50493359375,-1.0856990814208984,2.4850704669952393,-1.4056758880615234
1725629632083968500,0.514968505859375,-0.985601544380188,2.3982412815093994,-1.3485676050186157
1725629632094002400,0.52500244140625,-0.8247337341308594,2.5518722534179688,-1.4737300872802734
1725629632104036600,0.53503662109375,-0.6495193243026733,2.766005277633667,-1.72950279712677
1725629632114070500,0.545070556640625,-0.5263493657112122,2.7677886486053467,-1.9215253591537476
1725629632124104400,0.5551044921875,-0.5057972073554993,2.171196460723877,-1.9329702854156494
1725629632134138600,0.565138671875,-0.4469400942325592,0.13770027458667755,-1.6391189098358154
1725629632144172500,0.575172607421875,-0.38757050037384033,-1.038762092590332,-1.9612269401550293
1725629632154206500,0.58520654296875,-0.02765938639640808,-1.203856110572815,-2.632133960723877
1725629632164240600,0.59524072265625,0.4489830732345581,-0.9703572988510132,-3.2211601734161377
1725629632174274600,0.605274658203125,0.8942282199859619,-0.7063024640083313,-3.6476480960845947
1725629632184308500,0.61530859375,1.3002779483795166,-0.42276525497436523,-4.034825801849365
1725629632194342700,0.6253427734375,1.6163697242736816,-0.11111418902873993,-4.571634769439697
1725629632204376600,0.63537646484375,1.7637032270431519,0.2529074251651764,-5.202984809875488
1725629632214410500,0.645410400390625,1.7314814329147339,0.770595908164978,-5.817443370819092
1725629632224444700,0.655444580078125,1.598297357559204,1.1936944723129272,-6.365705966949463
1725629632234478600,0.665478515625,1.4340813159942627,1.4273496866226196,-6.840136528015137
1725629632244512500,0.675512451171875,1.319906234741211,1.5604749917984009,-7.285787105560303
1725629632254546700,0.685546630859375,1.2928472757339478,1.4763224124908447,-7.597748756408691
1725629632264580600,0.69558056640625,1.4316630363464355,1.144180417060852,-7.6361470222473145
1725629632274614500,0.705614501953125,1.6660451889038086,0.6917300224304199,-7.313072204589844
1725629632284648700,0.715648681640625,1.8954229354858398,0.2536887228488922,-6.788737773895264
1725629632294682600,0.7256826171875,2.0439367294311523,0.06918609887361526,-6.279002666473389
1725629632304716500,0.735716552734375,2.0761983394622803,0.24280156195163727,-5.934549331665039
1725629632314750700,0.745750732421875,2.03239107131958,0.6518593430519104,-5.759888648986816
1725629632324784600,0.75578466796875,1.972231149673462,1.0403658151626587,-5.61037015914917
1725629632334818600,0.765818603515625,1.9519848823547363,1.2189933061599731,-5.314321517944336
1725629632344853800,0.775853759765625,2.0055019855499268,1.14943265914917,-4.836108684539795
1725629632354887400,0.785887451171875,2.127049446105957,0.9413721561431885,-4.221221446990967
1725629632364921600,0.795921630859375,2.2307748794555664,0.7455919981002808,-3.210005760192871
1725629632374955800,0.805955810546875,2.34934401512146,0.49663352966308594,-2.1737990379333496
1725629632384989400,0.815989501953125,2.5422616004943848,0.2190312296152115,-1.556641697883606
1725629632395023600,0.826023681640625,2.563690423965454,0.3467964828014374,-1.1064461469650269
1725629632405057800,0.836057861328125,2.097768783569336,0.8995033502578735,-0.1282564252614975
1725629632415091500,0.846091552734375,1.510931134223938,1.5096774101257324,0.6387307047843933
1725629632425125600,0.856125732421875,0.9734117984771729,2.024657726287842,1.3744349479675293
1725629632435159800,0.866159912109375,0.4291072487831116,2.440816640853882,2.1537322998046875
1725629632445193500,0.876193359375,0.27058422565460205,2.5100748538970947,2.4930832386016846
1725629632455227600,0.8862275390625,0.48527124524116516,2.5089828968048096,2.5865604877471924
1725629632465261800,0.89626171875,0.6560003757476807,2.2474498748779297,2.775527000427246
1725629632475295500,0.90629541015625,0.5980583429336548,1.7085905075073242,2.9826555252075195
1725629632485329700,0.91632958984375,0.4670146107673645,1.117363452911377,3.0959367752075195
1725629632495363600,0.926363525390625,0.27725812792778015,0.5476285219192505,3.065277099609375
1725629632505397500,0.9363974609375,-0.03429657593369484,0.05318925902247429,2.937720537185669
1725629632515431700,0.946431640625,-0.4265126585960388,-0.28981462121009827,2.604166269302368
1725629632525465600,0.956465576171875,-0.745456337928772,-0.26436281204223633,2.20672345161438
1725629632535499500,0.96649951171875,-0.7670536637306213,0.15603454411029816,1.566301703453064
1725629632545533700,0.97653369140625,-0.9672589302062988,0.6324647068977356,0.9819160103797913
1725629632555567600,0.986567626953125,-0.9875081777572632,0.8686968088150024,0.6590115427970886
1725629632565601500,0.9966015625,-0.7307365536689758,0.7428051829338074,0.44541114568710327
1725629632575635700,1.0066357421875,-0.43419164419174194,0.29799214005470276,0.5791837573051453
1725629632585669600,1.016669677734375,-0.5325376391410828,0.05747165158390999,0.6119635105133057
1725629632595703600,1.02670361328125,-0.7214527130126953,-0.029673274606466293,0.3570248484611511
1725629632605737700,1.03673779296875,-1.0172278881072998,-0.07712201774120331,-0.02883976697921753
1725629632615772400,1.0467724609375,-1.421030879020691,-0.33087557554244995,-0.32442331314086914
1725629632625806600,1.056806640625,-1.9382755756378174,-0.618590235710144,-0.42419037222862244
1725629632635840800,1.0668408203125,-2.345726251602173,-0.8521326184272766,-0.252284437417984
1725629632645874400,1.07687451171875,-1.9575086832046509,-0.9031305909156799,-0.228688046336174
1725629632655908000,1.086908203125,-1.0744915008544922,-1.0248572826385498,-0.5826511383056641
1725629632665942300,1.0969423828125,-0.05271996557712555,-1.420408844947815,-1.106791615486145
1725629632675976200,1.10697607421875,0.8802192211151123,-2.312351942062378,-1.362851858139038
1725629632686010000,1.117010009765625,1.4488651752471924,-3.1302671432495117,-1.1841931343078613
1725629632696044300,1.127044189453125,1.5249532461166382,-3.505300998687744,-0.7267243266105652
1725629632706078200,1.137078125,1.3591762781143188,-3.22489333152771,-0.2743150591850281
1725629632716112100,1.147112060546875,1.157160997390747,-2.767056703567505,-0.11125759780406952
1725629632726146300,1.157146240234375,0.8383355736732483,-1.884007215499878,-0.3469071388244629
1725629632736180200,1.16718017578125,0.45164868235588074,-1.208199143409729,-0.7241393327713013
1725629632746214100,1.177214111328125,0.22539877891540527,-0.9710084199905396,-0.8402078747749329
1725629632756248300,1.187248291015625,0.16985675692558289,-0.8838123083114624,-0.6308231949806213
1725629632766282200,1.1972822265625,0.14286987483501434,-0.8190737962722778,-0.20589429140090942
1725629632776316200,1.207316162109375,-0.034027501940727234,-0.7293004989624023,0.10248114913702011
1725629632786350300,1.217350341796875,-0.4253382682800293,-0.23079319298267365,0.30194711685180664
1725629632796384300,1.22738427734375,-0.9988115429878235,0.41447705030441284,0.46474719047546387
1725629632806418200,1.237418212890625,-1.7251911163330078,0.8052113056182861,0.5043097734451294
1725629632816452400,1.247452392578125,-2.3519439697265625,1.2455739974975586,0.4773150682449341
1725629632826486000,1.257486083984375,-2.7086374759674072,1.759355902671814,0.5606427192687988
1725629632836520200,1.267520263671875,-2.900615692138672,1.7373390197753906,0.6760765314102173
1725629632846554400,1.277554443359375,-3.2101242542266846,1.2844985723495483,0.8027181029319763
1725629632856588000,1.287588134765625,-3.5942158699035645,0.9478490948677063,0.7808198928833008
1725629632866622200,1.297622314453125,-3.876875162124634,0.6650767922401428,0.5620225667953491
1725629632876656400,1.307656494140625,-3.571032762527466,0.8017897605895996,0.2468944638967514
1725629632886690000,1.31768994140625,-3.1249587535858154,0.9250376224517822,0.047905195504426956
1725629632896724200,1.32772412109375,-2.5515589714050293,0.779863715171814,0.13190801441669464
1725629632906758400,1.33775830078125,-2.2682089805603027,0.0073246159590780735,0.5529889464378357
1725629632916793000,1.34779296875,-2.2463228702545166,-1.1756457090377808,0.9711564183235168
1725629632926827300,1.3578271484375,-2.1466403007507324,-1.743644118309021,0.9306274056434631
1725629632936861200,1.367861083984375,-1.7234594821929932,-2.3063948154449463,0.7857232689857483
1725629632946895000,1.37789501953125,-1.3174086809158325,-2.497054100036621,0.5639959573745728
1725629632956929300,1.38792919921875,-0.8248852491378784,-2.818362236022949,0.42114758491516113
1725629632966963200,1.397963134765625,-0.3433266282081604,-3.095245838165283,0.3440552055835724
1725629632976997000,1.4079970703125,0.09572239965200424,-3.0780789852142334,0.31686872243881226
1725629632987031300,1.41803125,0.16648578643798828,-2.8464019298553467,0.2993302047252655
1725629632997065200,1.428065185546875,-0.035411808639764786,-2.2555248737335205,0.248031884431839
1725629633007099100,1.43809912109375,-0.3483838438987732,-1.2863255739212036,0.17153631150722504
1725629633017133300,1.44813330078125,-0.602483868598938,-0.06841101497411728,0.16912586987018585
1725629633027167200,1.458167236328125,-0.6867667436599731,0.6099680662155151,0.15837575495243073
1725629633037201200,1.468201171875,-0.7074377536773682,0.5955910682678223,0.33515018224716187
1725629633047235300,1.4782353515625,-0.5990974307060242,0.4080570936203003,0.6710831522941589
1725629633057269200,1.488269287109375,-0.4092993438243866,0.3176164925098419,0.9108364582061768
1725629633067303200,1.49830322265625,-0.34916171431541443,0.03449982777237892,1.0063997507095337
1725629633077337300,1.50833740234375,-0.38189783692359924,-0.45644357800483704,1.0049011707305908
1725629633087371000,1.51837109375,-0.2715686559677124,-1.0401334762573242,0.8809009790420532
1725629633097405200,1.5284052734375,-0.04270225018262863,-1.298160195350647,0.6208127737045288
1725629633107439400,1.538439453125,0.05648025870323181,-1.135323405265808,0.3590799868106842
1725629633117473000,1.54847314453125,0.07073064148426056,-0.6813623905181885,0.33960145711898804
1725629633127507200,1.558507080078125,0.08448772877454758,-0.07725732773542404,0.4501822888851166
1725629633137541400,1.568541259765625,0.22456493973731995,0.4678576588630676,0.541950523853302
1725629633147575000,1.578574951171875,0.4350590407848358,1.2275996208190918,0.518180787563324
1725629633157609200,1.588609130859375,0.6993029713630676,1.7707271575927734,0.46215611696243286
1725629633167643400,1.598643310546875,0.8160021901130676,1.7940822839736938,0.5469557046890259
1725629633177677000,1.608677001953125,0.7977199554443359,1.6915490627288818,0.6754687428474426
1725629633187711200,1.618711181640625,0.9318987727165222,1.2700142860412598,1.1430801153182983
1725629633197746200,1.62874609375,1.7086838483810425,0.36670881509780884,1.7844256162643433
1725629633207780000,1.638780029296875,2.3312270641326904,-0.6877671480178833,1.850777506828308
1725629633217814300,1.648814208984375,2.6104977130889893,-0.9594709277153015,1.8492919206619263
1725629633227848200,1.65884814453125,2.5147688388824463,-0.4426605701446533,1.5523159503936768
1725629633237882000,1.668882080078125,2.4246418476104736,0.5729272961616516,0.9782084822654724
1725629633247916300,1.678916259765625,2.4476704597473145,1.3707036972045898,0.2740388512611389
1725629633257950200,1.6889501953125,2.5343146324157715,1.910754919052124,-0.2593761384487152
1725629633267984100,1.698984130859375,2.6261146068573,2.3796610832214355,-0.8405498266220093
1725629633278018300,1.709018310546875,2.6454169750213623,2.5573127269744873,-1.4600390195846558
1725629633288052200,1.71905224609375,2.5887274742126465,2.29805064201355,-2.1720938682556152
1725629633298086100,1.729086181640625,2.3158681392669678,1.732189655303955,-2.867971181869507
1725629633308120300,1.739120361328125,1.8658287525177002,1.1566746234893799,-3.494753360748291
1725629633318154200,1.749154296875,1.3942911624908447,0.4990892708301544,-3.9672794342041016
1725629633328188200,1.759188232421875,1.0361934900283813,-0.3813778758049011,-4.415742874145508
1725629633338222300,1.769222412109375,0.819730281829834,-1.3507726192474365,-4.307773590087891
1725629633348256000,1.779256103515625,0.6317353844642639,-1.8662140369415283,-3.9543368816375732
1725629633358290200,1.789290283203125,0.5571171641349792,-2.13541841506958,-3.520611524581909
1725629633368324400,1.799324462890625,0.7304250597953796,-2.7725226879119873,-2.778136968612671
1725629633378358000,1.80935791015625,1.1626750230789185,-3.371079683303833,-2.5093045234680176
1725629633388392200,1.81939208984375,1.5204260349273682,-3.87199330329895,-2.527625799179077
1725629633398426400,1.82942626953125,1.9014240503311157,-4.244479179382324,-2.5474343299865723
1725629633408461300,1.83946142578125,2.2280361652374268,-4.101109981536865,-2.52567195892334
1725629633418495200,1.8494951171875,2.2038683891296387,-3.576646566390991,-2.6988892555236816
1725629633428529200,1.859529052734375,1.8071943521499634,-2.6193032264709473,-3.240354061126709
1725629633438563000,1.86956298828125,1.107866644859314,-0.3320813477039337,-3.8635776042938232
1725629633448597200,1.87959716796875,0.8532423377037048,0.6765499114990234,-3.290473461151123
1725629633458631200,1.889631103515625,0.7106799483299255,0.4274488687515259,-2.4214107990264893
1725629633468665000,1.8996650390625,0.7378119230270386,-0.45000171661376953,-1.5926908254623413
1725629633478699300,1.90969921875,1.1942743062973022,-1.0716184377670288,-0.8307616710662842
1725629633488733200,1.919733154296875,1.4920053482055664,-1.4994090795516968,-0.38216280937194824
1725629633498767000,1.92976708984375,1.4631677865982056,-1.8645929098129272,-0.2978764474391937
1725629633508801300,1.93980126953125,1.299100637435913,-2.082352876663208,-0.440014123916626
1725629633518835200,1.949835205078125,1.0810872316360474,-2.168762683868408,-0.6400782465934753
1725629633528869000,1.959869140625,0.8791297078132629,-2.1142170429229736,-0.7883657217025757
1725629633538903300,1.9699033203125,0.8571502566337585,-2.0896403789520264,-0.742882490158081
1725629633548937200,1.979937255859375,0.9604537487030029,-2.129460096359253,-0.5120929479598999
1725629633558971100,1.98997119140625,1.0957016944885254,-2.0417957305908203,-0.2018762230873108
1725629633569005300,2.00000537109375,1.2426705360412598,-1.8940560817718506,0.06960693746805191
1725629633579039200,2.010039306640625,1.4796139001846313,-1.7809079885482788,0.2405487298965454
1725629633589073200,2.0200732421875,1.70784330368042,-1.6001309156417847,0.2476883977651596
1725629633599107300,2.030107421875,1.7544341087341309,-1.5446393489837646,0.06831734627485275
1725629633609141000,2.04014111328125,1.6468967199325562,-1.5898185968399048,-0.21627895534038544
1725629633619175200,2.050175048828125,1.4641869068145752,-1.4558753967285156,-0.4216088056564331
1725629633629209300,2.060209228515625,1.3565890789031982,-0.8370423913002014,-0.6406958699226379
1725629633639243000,2.070242919921875,1.2775020599365234,0.15027840435504913,-0.9400287866592407
1725629633649277200,2.080277099609375,1.157680869102478,0.9490373730659485,-1.1857237815856934
1725629633659311900,2.090311767578125,1.0355509519577026,2.1383674144744873,-0.8853916525840759
1725629633669345800,2.100345703125,0.7790893912315369,2.5406315326690674,-0.08377672731876373
1725629633679380000,2.1103798828125,0.19806434214115143,1.664252519607544,0.8860064744949341
1725629633689415000,2.120414794921875,-0.5939310193061829,0.5714405179023743,1.8993098735809326
1725629633699448800,2.13044873046875,-0.9154989719390869,0.35558778047561646,2.648170232772827
1725629633709483000,2.14048291015625,-0.5820576548576355,0.5582849383354187,2.8958444595336914
1725629633719517000,2.150516845703125,-0.06615293771028519,0.29650506377220154,2.693701982498169
1725629633729550800,2.16055078125,0.26969483494758606,-0.16456057131290436,2.146535634994507
1725629633739585000,2.1705849609375,0.2663600742816925,-0.6818190813064575,1.443670392036438
1725629633749618700,2.18061865234375,0.07430383563041687,-1.1609729528427124,0.7114598751068115
1725629633759652900,2.19065283203125,0.005426935851573944,-1.3344374895095825,0.09389591962099075
1725629633769687000,2.20068701171875,0.079132579267025,-1.547116756439209,-0.21335910260677338
1725629633779720700,2.210720703125,0.1766095906496048,-1.718428373336792,-0.2831578254699707
1725629633789755000,2.2207548828125,0.3266587555408478,-1.8293918371200562,-0.19600720703601837
1725629633799789000,2.2307890625,0.43657445907592773,-1.966705083847046,-0.04648939520120621
1725629633809822700,2.24082275390625,0.49183183908462524,-1.8666472434997559,0.07638513296842575
1725629633819857000,2.25085693359375,0.6197996139526367,-2.108497381210327,0.16532093286514282
1725629633829891000,2.26089111328125,0.6090583205223083,-2.3152496814727783,0.2100479155778885
1725629633839924700,2.2709248046875,0.6201850771903992,-2.284369468688965,0.19642560184001923
1725629633849959000,2.280958984375,0.6569745540618896,-2.2783122062683105,0.19563411176204681
1725629633859993000,2.2909931640625,0.699268639087677,-2.2898805141448975,0.20706944167613983
1725629633870026800,2.30102685546875,0.7687063217163086,-2.2845091819763184,0.21376143395900726
1725629633880061000,2.31106103515625,0.8374340534210205,-2.2839040756225586,0.24360515177249908
1725629633890095000,2.32109521484375,0.8367778658866882,-2.398242235183716,0.31244468688964844
1725629633900128800,2.331128662109375,0.7415883541107178,-2.4666340351104736,0.38843631744384766
1725629633910163000,2.341162841796875,0.4728618562221527,-2.3038861751556396,0.4184027314186096
1725629633920196900,2.35119677734375,0.1310005635023117,-1.7870086431503296,0.33100008964538574
1725629633930230800,2.361230712890625,-0.15581655502319336,-0.4256528913974762,0.024473965167999268
1725629633940265000,2.371264892578125,-0.49598637223243713,0.098107248544693,-0.5086256265640259
1725629633950299000,2.381298828125,-0.7478066086769104,0.14148640632629395,-1.0556234121322632
1725629633960333800,2.391333740234375,-0.8893887400627136,0.34730401635169983,-1.2752882242202759
1725629633970368000,2.401367919921875,-0.9610562324523926,0.48996928334236145,-1.1175841093063354
1725629633980402000,2.41140185546875,-0.97419273853302,0.5578868985176086,-0.6546499729156494
1725629633990435800,2.421435791015625,-0.9393628239631653,0.5284680128097534,0.030263112857937813
1725629634000470000,2.431469970703125,-1.0016945600509644,0.6421948075294495,0.793714702129364
1725629634010503700,2.441503662109375,-1.163323163986206,0.6486609578132629,1.343435287475586
1725629634020537900,2.451537841796875,-1.2191567420959473,0.7466273307800293,1.4989831447601318
1725629634030572000,2.461572021484375,-1.1959168910980225,0.8330370187759399,1.3346072435379028
1725629634040605700,2.471605712890625,-1.2299394607543945,0.9572963714599609,1.070955753326416
1725629634050640000,2.481639892578125,-1.2701753377914429,1.084477186203003,0.8245980143547058
1725629634060674000,2.491674072265625,-1.13795006275177,1.0923821926116943,0.5555175542831421
1725629634070707700,2.501707763671875,-0.803212583065033,0.8864223957061768,0.28889864683151245
1725629634080742000,2.511741943359375,-0.3763316869735718,0.7125983238220215,0.1521119326353073
1725629634090776000,2.521776123046875,0.0023988569155335426,0.6058686971664429,0.12406246364116669
1725629634100809700,2.531809814453125,0.35101011395454407,0.4986763894557953,0.08903662115335464
1725629634110844000,2.541843994140625,0.5259142518043518,0.4622432589530945,-0.01556355319917202
1725629634120878000,2.551878173828125,0.483868807554245,0.5465232729911804,-0.23840168118476868
1725629634130911700,2.561911865234375,0.34478524327278137,0.6719728112220764,-0.5432132482528687
1725629634140946000,2.57194580078125,0.1512872576713562,0.7462363243103027,-0.771058976650238
1725629634150980000,2.58197998046875,0.0937347561120987,0.8017520308494568,-0.8760229349136353
1725629634161013800,2.592013671875,0.23225311934947968,0.7464266419410706,-0.7872108817100525
1725629634171048000,2.6020478515625,0.42011889815330505,0.501170814037323,-0.5942427515983582
1725629634181081900,2.612081787109375,0.5326483249664307,0.2880321145057678,-0.3965252637863159
1725629634191115800,2.62211572265625,0.6015176773071289,0.19285684823989868,-0.27334821224212646
1725629634201150000,2.63214990234375,0.6270738244056702,0.13621926307678223,-0.2740292251110077
1725629634211183900,2.642183837890625,0.61468905210495,0.09187949448823929,-0.3437909781932831
1725629634221217800,2.6522177734375,0.6055636405944824,0.023331014439463615,-0.4576455354690552
1725629634231253000,2.6622529296875,0.6362885236740112,-0.04257076978683472,-0.5184226036071777
1725629634241287000,2.672286865234375,0.7569795250892639,0.06211492046713829,-0.443592369556427
1725629634251320800,2.68232080078125,0.8509201407432556,-0.04272947087883949,-0.3871397376060486
1725629634261355000,2.69235498046875,0.829138994216919,-0.1957719922065735,-0.4089609384536743
1725629634271388700,2.702388671875,0.7773450613021851,-0.30066242814064026,-0.507234513759613
1725629634281422800,2.7124228515625,0.7094575762748718,-0.24299722909927368,-0.6027848124504089
1725629634291457000,2.72245703125,0.6574782729148865,-0.1935654878616333,-0.6575052738189697
1725629634301490700,2.73249072265625,0.596930742263794,-0.18913471698760986,-0.582456111907959
1725629634311524900,2.74252490234375,0.4979833662509918,-0.23113888502120972,-0.44270914793014526
1725629634321559000,2.75255908203125,0.32681384682655334,-0.2423250824213028,-0.2793883681297302
1725629634331592700,2.7625927734375,0.20070572197437286,-0.2379487156867981,-0.16528494656085968
1725629634341627000,2.772626953125,0.197150319814682,-0.2045236974954605,-0.1168707013130188
1725629634351661000,2.7826611328125,0.1942211091518402,-0.13680723309516907,-0.09289798885583878
1725629634361694700,2.79269482421875,0.1945834755897522,-0.05194834619760513,-0.05496428534388542
1725629634371729000,2.80272900390625,0.2602602243423462,0.018850194290280342,0.009402988478541374
1725629634381763000,2.81276318359375,0.30602532625198364,0.12016803026199341,0.10402031242847443
1725629634391796700,2.822796630859375,0.35006842017173767,0.31966543197631836,0.2054220288991928
1725629634401831000,2.832830810546875,0.3581002652645111,0.5545735955238342,0.26348742842674255
1725629634411865000,2.842864990234375,0.3963472545146942,0.7070901393890381,0.29538169503211975
1725629634421898800,2.852898681640625,0.3816787898540497,0.8150309324264526,0.32116806507110596
1725629634431933000,2.862932861328125,0.3244059383869171,0.8968312740325928,0.3222717046737671
1725629634441966800,2.872966796875,0.32733315229415894,0.921944260597229,0.27139943838119507
1725629634452000800,2.883000732421875,0.26534995436668396,0.9431065320968628,0.20205816626548767
1725629634462035000,2.893034912109375,0.18415623903274536,0.9839146733283997,0.13747549057006836
1725629634472068900,2.90306884765625,0.18411043286323547,1.0004768371582031,0.0883106142282486
1725629634482103800,2.913103759765625,0.237306147813797,0.9121212363243103,0.061672378331422806
1725629634492138000,2.923137939453125,0.21780648827552795,0.7264102697372437,0.033620238304138184
1725629634502172000,2.933171875,0.13070060312747955,0.6146485805511475,-0.004901589825749397
1725629634512205800,2.943205810546875,0.09034039825201035,0.5759152770042419,-0.08259451389312744
1725629634522240000,2.953239990234375,0.12021681666374207,0.2630317509174347,-0.19935742020606995
1725629634532273700,2.963273681640625,0.28815919160842896,-0.060695186257362366,-0.3050428330898285
1725629634542307800,2.973307861328125,0.4911242723464966,-0.2780618965625763,-0.4131357669830322
1725629634552342000,2.983342041015625,0.8814824223518372,0.5583206415176392,-0.46317896246910095
1725629634562375700,2.993375732421875,0.8856778144836426,0.9425221681594849,-0.3906513452529907
1725629634572409900,3.003409912109375,0.5009735822677612,-0.3297678828239441,-0.43141821026802063
1725629634582444000,3.013444091796875,0.13466978073120117,-1.1191565990447998,-0.5749192237854004
1725629634592477700,3.023477783203125,0.07644375413656235,-0.919105052947998,-0.6367493271827698
1725629634602512000,3.033511962890625,0.03555528447031975,-0.7806130647659302,-0.619559645652771
1725629634612546000,3.043546142578125,-0.18698084354400635,-0.6341245770454407,-0.5602007508277893
1725629634622579700,3.053579833984375,-0.5568332076072693,-0.22512826323509216,-0.494136780500412
1725629634632614000,3.06361376953125,-0.7053425312042236,0.09626200795173645,-0.4819459021091461
1725629634642648000,3.07364794921875,-0.379873663187027,0.12155553698539734,-0.475287526845932
1725629634652681700,3.083681640625,-0.012740148231387138,0.17315028607845306,-0.31378623843193054
1725629634662715100,3.093715087890625,0.11393523961305618,0.15118639171123505,-0.10711003839969635
1725629634672749000,3.1037490234375,0.06118600443005562,0.31208154559135437,-0.0704023614525795
1725629634682783200,3.113783203125,-0.01552281342446804,0.5976044535636902,-0.22927367687225342
1725629634692817200,3.123817138671875,-0.07123587280511856,0.9131059646606445,-0.44487202167510986
1725629634702851000,3.13385107421875,-0.11591044068336487,1.1282191276550293,-0.5567572116851807
1725629634712885200,3.14388525390625,-0.16243025660514832,1.1713322401046753,-0.4631170332431793
1725629634722919000,3.1539189453125,-0.20136599242687225,1.0668010711669922,-0.2646535336971283
1725629634732953000,3.163953125,-0.20942366123199463,0.9754493832588196,0.022438423708081245
1725629634742987300,3.1739873046875,-0.1749373823404312,0.9581581950187683,0.427324503660202
1725629634753022200,3.184022216796875,-0.09090958535671234,0.9221343994140625,0.7998623847961426
1725629634763056000,3.19405615234375,0.0397944301366806,0.8127890825271606,1.0033810138702393
1725629634773090000,3.204090087890625,0.18596576154232025,0.5231636762619019,1.014082908630371
1725629634783124200,3.214124267578125,0.30048859119415283,0.01932661049067974,0.7880051136016846
1725629634793158100,3.224158203125,0.4601653218269348,-0.34531739354133606,0.37423214316368103
1725629634803192000,3.234192138671875,0.5909359455108643,-0.22339095175266266,0.12086047977209091
1725629634813226000,3.24422607421875,0.6141219735145569,-0.050443146377801895,-0.034968532621860504
1725629634823260200,3.25426025390625,0.5985230207443237,0.13564960658550262,-0.12541699409484863
1725629634833294000,3.264294189453125,0.5070098638534546,0.11305028945207596,-0.16265571117401123
1725629634843328000,3.274327880859375,0.4440130591392517,0.22763505578041077,-0.19173996150493622
1725629634853362200,3.284362060546875,0.3808061182498932,0.38593706488609314,-0.2334272265434265
1725629634863396000,3.29439599609375,0.27125269174575806,0.43480977416038513,-0.2512551546096802
1725629634873430000,3.304429931640625,0.1731088012456894,0.5432199239730835,-0.2343510240316391
1725629634883464200,3.314464111328125,0.19258584082126617,1.0835853815078735,-0.28484222292900085
1725629634893498000,3.324498046875,0.2830342650413513,1.6298189163208008,-0.2847801446914673
1725629634903532000,3.334531982421875,0.22461187839508057,1.6390033960342407,-0.3430872857570648
1725629634913566200,3.344566162109375,0.12389885634183884,1.7664273977279663,-0.4012163579463959
1725629634923600100,3.35460009765625,0.06475481390953064,2.0024254322052,-0.48149624466896057
1725629634933634000,3.364634033203125,0.02359725534915924,1.8826637268066406,-0.5440165996551514
1725629634943668200,3.374668212890625,0.03434378281235695,1.437124490737915,-0.5199515223503113
1725629634953702100,3.3847021484375,0.09984023123979568,0.7563351988792419,-0.3898041844367981
1725629634963736000,3.394736083984375,0.1963130235671997,0.0855288952589035,-0.2503659129142761
1725629634973770200,3.404770263671875,0.3643891215324402,-0.015310097485780716,-0.17758040130138397
1725629634983804000,3.414803955078125,0.5597984194755554,0.23121489584445953,-0.27341240644454956
1725629634993839000,3.424839111328125,0.7302306294441223,0.4790654480457306,-0.390541672706604
1725629635003873000,3.434873046875,0.8426337242126465,1.0134496688842773,-0.2953481376171112
1725629635013907200,3.4449072265625,0.739255428314209,1.0635912418365479,-0.17369389533996582
1725629635023941000,3.454941162109375,0.8506844639778137,1.2954753637313843,-0.09984132647514343
1725629635033975000,3.46497509765625,1.3891079425811768,2.2757585048675537,0.12795081734657288
1725629635044009200,3.47500927734375,1.9597344398498535,3.397852659225464,0.3458107113838196
1725629635054043100,3.485043212890625,2.2833101749420166,4.297001838684082,0.538926899433136
1725629635064077000,3.4950771484375,2.2831435203552246,5.168163776397705,0.8291106820106506
1725629635074111000,3.505111083984375,2.0410985946655273,6.199465274810791,1.2973026037216187
1725629635084145200,3.515145263671875,1.6431885957717896,7.195464134216309,1.9647098779678345
1725629635094179000,3.525178955078125,1.477349042892456,6.9751691818237305,2.853318691253662
1725629635104213000,3.535212890625,1.7293578386306763,3.421539545059204,4.353751182556152
1725629635114247200,3.5452470703125,1.8183966875076294,1.6550852060317993,4.626801013946533
1725629635124281000,3.555281005859375,1.3644640445709229,1.4403194189071655,3.2404465675354004
1725629635134315000,3.56531494140625,0.514026403427124,-0.044318415224552155,1.1229009628295898
1725629635144349200,3.57534912109375,0.14968958497047424,-1.544084072113037,-0.8645043969154358
1725629635154383000,3.585383056640625,-0.07364683598279953,-2.297227144241333,-1.9918700456619263
1725629635164417000,3.5954169921875,-0.38398614525794983,-2.433720827102661,-2.3022520542144775
1725629635174451200,3.605451171875,-0.5831335783004761,-2.198745012283325,-2.0995707511901855
1725629635184485000,3.615485107421875,-0.544626772403717,-1.8383232355117798,-1.5867563486099243
1725629635194519000,3.62551904296875,-0.3579373061656952,-1.4169094562530518,-0.9274444580078125
1725629635204553200,3.63555322265625,-0.12991760671138763,-0.8838064074516296,-0.2436804622411728
1725629635214587100,3.645587158203125,0.0882946252822876,-0.2395232766866684,0.3396253287792206
1725629635224621000,3.65562109375,0.2736203372478485,0.23815393447875977,0.694740355014801
1725629635234655200,3.6656552734375,0.3904294967651367,0.18892966210842133,0.7124751806259155
1725629635244690200,3.675690185546875,0.42020201683044434,0.034868158400058746,0.3972724974155426
1725629635254724000,3.68572412109375,0.30150172114372253,-0.05861944705247879,-0.018900733441114426
1725629635264758000,3.695758056640625,0.08482551574707031,-0.10199615359306335,-0.33821025490760803
1725629635274792200,3.705792236328125,-0.1186053678393364,-0.09541574865579605,-0.5037190318107605
1725629635284826000,3.715826171875,-0.20847563445568085,-0.06666262447834015,-0.5611788630485535
1725629635294860000,3.725860107421875,-0.20109175145626068,-0.08459342271089554,-0.5808050632476807
1725629635304894200,3.735894287109375,-0.1570790857076645,-0.11382060497999191,-0.5595765709877014
1725629635314928000,3.74592822265625,-0.09469959139823914,-0.10983198881149292,-0.5159627795219421
1725629635324962000,3.755962158203125,-0.018658217042684555,-0.11322495341300964,-0.4340256452560425
1725629635334996000,3.765995849609375,0.05129024013876915,-0.15442033112049103,-0.3033424913883209
1725629635345030100,3.776030029296875,0.06598822772502899,-0.17374156415462494,-0.13726188242435455
1725629635355064000,3.78606396484375,0.04419105127453804,-0.1494751125574112,-0.027231518179178238
1725629635365098000,3.796097900390625,-0.0019528933335095644,-0.0464496873319149,0.010615082457661629
1725629635375132200,3.806132080078125,-0.037746842950582504,0.010727849788963795,-0.011612992733716965
1725629635385166000,3.816166015625,-0.046451136469841,0.09655339270830154,-0.08302465081214905
1725629635395200000,3.826199951171875,-0.07232161611318588,0.28712198138237,-0.19779491424560547
1725629635405234200,3.836234130859375,-0.08379414677619934,0.42856600880622864,-0.3023025691509247
1725629635415268000,3.84626806640625,-0.12328137457370758,0.46701622009277344,-0.3712851107120514
1725629635425302000,3.856302001953125,-0.1678394079208374,0.5092315673828125,-0.39171093702316284
1725629635435336200,3.866336181640625,-0.22513331472873688,0.5192964673042297,-0.3894725441932678
1725629635445370000,3.8763701171875,-0.4652746319770813,0.46693262457847595,-0.3402351140975952
1725629635455404000,3.886404052734375,-0.7717629075050354,0.37132006883621216,-0.22547924518585205
1725629635465438200,3.896438232421875,-0.9976781010627747,0.3552444577217102,-0.07120716571807861
1725629635475472100,3.90647216796875,-1.193931221961975,0.4549129903316498,0.09332718700170517
1725629635485506000,3.916506103515625,-1.4345916509628296,0.4484352171421051,0.23875662684440613
1725629635495540200,3.926540283203125,-1.6129273176193237,0.49116137623786926,0.35583481192588806
1725629635505574000,3.936573974609375,-1.7076003551483154,0.4566175937652588,0.3983139991760254
1725629635515608000,3.946608154296875,-1.7112451791763306,0.3091522455215454,0.35363706946372986
1725629635525642200,3.956642333984375,-1.6416789293289185,0.14584031701087952,0.2553156912326813
1725629635535677200,3.96667724609375,-1.4788321256637573,0.035346031188964844,0.1136711835861206
1725629635545711000,3.976711181640625,-1.3925822973251343,0.16224202513694763,0.037475667893886566
1725629635555745000,3.9867451171875,-1.3201395273208618,0.3148947060108185,-0.02977394498884678
1725629635565779200,3.996779296875,-1.1667436361312866,0.43842223286628723,-0.1212182566523552
1725629635575813000,4.006813232421875,-0.997985303401947,0.5472568273544312,-0.17041590809822083
1725629635585847000,4.016846923828125,-0.8575611710548401,0.6511242985725403,-0.15809912979602814
1725629635595881000,4.026880859375,-0.7650477290153503,0.7002617120742798,-0.0796690359711647
1725629635605915100,4.0369150390625,-0.6435091495513916,0.6245293021202087,-0.006144308485090733
1725629635615949000,4.046948974609375,-0.48269763588905334,0.45396849513053894,-0.005625524558126926
1725629635625983000,4.05698291015625,-0.3269800841808319,0.2439270168542862,-0.06668571382761002
1725629635636017200,4.06701708984375,-0.17545339465141296,0.006756006274372339,-0.16193926334381104
1725629635646051000,4.077051025390625,0.004134302027523518,-0.22347818315029144,-0.23702354729175568
1725629635656085500,4.08708544921875,0.16222992539405823,-0.3377797305583954,-0.268480509519577
1725629635666119700,4.09711962890625,0.25523680448532104,-0.31499210000038147,-0.28746938705444336
1725629635676153300,4.1071533203125,0.3807220160961151,-0.29684266448020935,-0.292167991399765
1725629635686187500,4.1171875,0.5165104269981384,-0.3449806571006775,-0.31344497203826904
1725629635696221400,4.127221435546875,0.6410766243934631,-0.4361904561519623,-0.3598816990852356
1725629635706255400,4.13725537109375,0.7566682696342468,-0.5726875066757202,-0.4393215477466583
1725629635716289500,4.14728955078125,0.8500370979309082,-0.8132026791572571,-0.5838198661804199
1725629635726323500,4.157323486328125,0.9371575713157654,-1.0594723224639893,-0.7561615109443665
1725629635736357400,4.167357421875,1.0347437858581543,-1.2776648998260498,-0.9701012372970581
1725629635746391600,4.1773916015625,1.1488388776779175,-1.3168476819992065,-1.1798386573791504
1725629635756425500,4.187425537109375,1.300193190574646,-1.3340368270874023,-1.3124103546142578
1725629635766459400,4.19745947265625,1.4534106254577637,-1.3647464513778687,-1.3051502704620361
1725629635776494600,4.20749462890625,1.5852916240692139,-1.3078112602233887,-1.1842600107192993
1725629635786528300,4.2175283203125,1.7077293395996094,-1.0834269523620605,-0.9648706316947937
1725629635796562400,4.2275625,1.810737133026123,-0.6906112432479858,-0.6491132378578186
1725629635806596600,4.2375966796875,1.8494044542312622,-0.2255280762910843,-0.26743483543395996
1725629635816630300,4.24763037109375,1.857998251914978,0.20073242485523224,0.11797595769166946
1725629635826664400,4.25766455078125,1.7918670177459717,0.48780179023742676,0.4794682264328003
1725629635836698600,4.26769873046875,1.6185537576675415,0.6806008219718933,0.7454268932342529
1725629635846732300,4.277732177734375,1.381455421447754,0.8492380380630493,0.8503419756889343
1725629635856766500,4.287766357421875,1.1346889734268188,0.9002969264984131,0.833097517490387
1725629635866800600,4.297800537109375,0.8932482600212097,0.7759601473808289,0.7587677240371704
1725629635876834300,4.307834228515625,0.6510119438171387,0.4902559518814087,0.6295178532600403
1725629635886869500,4.317869384765625,0.4269354045391083,0.12270181626081467,0.4667431712150574
1725629635896903400,4.3279033203125,0.2802168130874634,-0.21520058810710907,0.2973613142967224
1725629635906937300,4.337937255859375,0.2237221598625183,-0.44486236572265625,0.16809335350990295
1725629635916971500,4.347971435546875,0.2240031212568283,-0.6389865875244141,0.1202576607465744
1725629635927005400,4.35800537109375,0.2585127651691437,-0.8433036208152771,0.15859389305114746
1725629635937039400,4.368039306640625,0.2870916724205017,-1.0201325416564941,0.27750563621520996
1725629635947073500,4.378073486328125,0.3024471700191498,-1.0508455038070679,0.4090173840522766
1725629635957107500,4.388107421875,0.309498131275177,-0.8010312914848328,0.5530123710632324
1725629635967141400,4.398141357421875,0.30168670415878296,-0.4042919874191284,0.6747381687164307
1725629635977175600,4.408175537109375,0.27249500155448914,-0.06863036751747131,0.7466925382614136
1725629635987209500,4.41820947265625,0.25486987829208374,0.155020073056221,0.6994221806526184
1725629635997243400,4.428243408203125,0.25020721554756165,0.27928850054740906,0.5281298160552979
1725629636007277600,4.438277587890625,0.23227337002754211,0.3299929201602936,0.3564160168170929
1725629636017311500,4.4483115234375,0.2131824940443039,0.3854857385158539,0.269135445356369
1725629636027345400,4.458345458984375,0.20365950465202332,0.3987951874732971,0.28789424896240234
1725629636037379600,4.468379638671875,0.1523803323507309,0.3071073293685913,0.409263014793396
1725629636047413200,4.478413330078125,0.12803639471530914,0.2513217031955719,0.5375247001647949
1725629636057447400,4.488447509765625,0.1384834498167038,0.2395758479833603,0.6526222229003906
1725629636067481600,4.498481689453125,0.19177468121051788,0.23882392048835754,0.720335841178894
1725629636077515300,4.508515380859375,0.22178559005260468,0.24801981449127197,0.7439271807670593
1725629636087549400,4.518549560546875,0.21363234519958496,0.31307530403137207,0.6764596700668335
1725629636097583600,4.52858349609375,0.17481331527233124,0.3112241327762604,0.5486385822296143
1725629636107618600,4.53861865234375,0.09975357353687286,0.28565654158592224,0.3854057788848877
1725629636117652500,4.548652587890625,-0.017527244985103607,0.29295146465301514,0.23952604830265045
1725629636127686400,4.558686279296875,-0.1311592012643814,0.21029610931873322,0.13749192655086517
1725629636137720600,4.568720458984375,-0.23385043442249298,0.09869182854890823,0.08431392163038254
1725629636147754500,4.57875439453125,-0.3104667663574219,-0.042028699070215225,0.06647716462612152
1725629636157788400,4.588788330078125,-0.38027966022491455,-0.18811559677124023,0.07273559272289276
1725629636167822300,4.598822265625,-0.44065243005752563,-0.3340791165828705,0.10970733314752579
1725629636177856500,4.6088564453125,-0.5073995590209961,-0.49872586131095886,0.2392277866601944
1725629636187890400,4.618890380859375,-0.5176116824150085,-0.5393326878547668,0.40035703778266907
1725629636197924400,4.62892431640625,-0.5262613296508789,-0.4406876266002655,0.5686382055282593
1725629636207958500,4.63895849609375,-0.5374271869659424,-0.2852950692176819,0.7450147867202759
1725629636217992400,4.648992431640625,-0.5092746615409851,-0.2709645926952362,0.9304502010345459
1725629636228026400,4.6590263671875,-0.4647217094898224,-0.3830152750015259,1.093435287475586
1725629636238060500,4.669060546875,-0.43403518199920654,-0.4528263211250305,1.1975986957550049
1725629636248094500,4.679094482421875,-0.44409629702568054,-0.5145654678344727,1.2268794775009155
1725629636258128400,4.68912841796875,-0.5001310706138611,-0.6297953724861145,1.166422724723816
1725629636268162600,4.69916259765625,-0.5533224940299988,-0.6615803837776184,1.0000569820404053
1725629636278196500,4.709196533203125,-0.6055638790130615,-0.5668759346008301,0.7784987688064575
1725629636288230400,4.71923046875,-0.6675791144371033,-0.4466857314109802,0.5761429071426392
1725629636298264600,4.7292646484375,-0.7357656359672546,-0.29541870951652527,0.43730250000953674
1725629636308298200,4.73929833984375,-0.7916790843009949,-0.1934444159269333,0.36984506249427795
1725629636318332400,4.74933251953125,-0.814825177192688,-0.07675188034772873,0.3254813253879547
1725629636328367400,4.759367431640625,-0.8101950883865356,0.046060945838689804,0.2605675458908081
1725629636338401500,4.769401611328125,-0.7841147780418396,0.12264466285705566,0.18216833472251892
1725629636348435500,4.779435546875,-0.7622532248497009,0.22538454830646515,0.09324663877487183
1725629636358469400,4.789469482421875,-0.7260520458221436,0.24527223408222198,0.029074305668473244
1725629636368503600,4.799503662109375,-0.6746264100074768,0.19333644211292267,0.003590069245547056
1725629636378537500,4.809537353515625,-0.6345900297164917,0.11311964690685272,0.016828376799821854
1725629636388571400,4.8195712890625,-0.5818239450454712,-0.009057343937456608,0.049025341868400574
1725629636398605600,4.82960546875,-0.5266587138175964,-0.1364336758852005,0.038924239575862885
1725629636408639500,4.839639404296875,-0.573292076587677,-0.20997734367847443,-0.018209049478173256
1725629636418673400,4.84967333984375,-0.7310595512390137,-0.208793044090271,-0.12445586174726486
1725629636428707300,4.859707275390625,-0.920811653137207,-0.14659608900547028,-0.2857924699783325
1725629636438741500,4.869741455078125,-1.0925465822219849,-0.12439624220132828,-0.5017873048782349
1725629636448775400,4.879775390625,-1.280708909034729,0.015603850595653057,-0.6175931096076965
1725629636458809300,4.889809326171875,-1.463944435119629,0.12542222440242767,-0.6353369355201721
1725629636468843500,4.899843505859375,-1.6215249300003052,0.1615285873413086,-0.5841424465179443
1725629636478877400,4.90987744140625,-1.7230358123779297,0.23277507722377777,-0.48893997073173523
1725629636488911400,4.919911376953125,-1.8366984128952026,0.2831049859523773,-0.36816900968551636
1725629636498945500,4.929945556640625,-1.942999005317688,0.37996816635131836,-0.16544093191623688
1725629636508979500,4.9399794921875,-1.9844889640808105,0.5744311213493347,0.04837680980563164
1725629636519013400,4.950013427734375,-1.9497746229171753,0.5489132404327393,0.1857098937034607
1725629636529048300,4.96004833984375,-1.84396493434906,0.34369853138923645,0.27098527550697327
1725629636539082500,4.97008251953125,-1.6617858409881592,0.1942720115184784,0.23440703749656677
1725629636549116400,4.980116455078125,-1.4531105756759644,0.2233690619468689,0.1305796205997467
1725629636559150300,4.990150390625,-1.288150668144226,0.2988976538181305,0.11278731375932693
1725629636569184500,5.0001845703125,-1.1222164630889893,0.31610652804374695,0.18447081744670868
1725629636579218400,5.010218505859375,-0.9088448286056519,0.2464294284582138,0.25652796030044556
1725629636589252400,5.02025244140625,-0.6954027414321899,0.2502783536911011,0.3161955177783966
1725629636599286500,5.03028662109375,-0.5175576210021973,0.34586453437805176,0.3785473108291626
1725629636609320400,5.040320556640625,-0.46097278594970703,0.47382843494415283,0.41170376539230347
1725629636619354400,5.050354248046875,-0.45783185958862305,0.5200600624084473,0.4203648865222931
1725629636629388500,5.060388427734375,-0.4237188994884491,0.4740062654018402,0.4241543710231781
1725629636639422500,5.07042236328125,-0.3191687762737274,0.3673085868358612,0.4104364514350891
1725629636649456400,5.080456298828125,-0.17143377661705017,0.2551031708717346,0.3743768632411957
1725629636659490300,5.090490234375,-0.006354276090860367,0.09171052277088165,0.29455074667930603
1725629636669524500,5.1005244140625,0.19925016164779663,-0.04420100897550583,0.22292998433113098
1725629636679558400,5.110558349609375,0.31538742780685425,-0.03784564137458801,0.14409375190734863
1725629636689592300,5.12059228515625,0.3617108464241028,0.01292132306843996,0.037614356726408005
1725629636699626500,5.13062646484375,0.41258174180984497,-0.038462504744529724,-0.06400414556264877
1725629636709660400,5.140660400390625,0.4654204845428467,-0.15061821043491364,-0.17921607196331024
1725629636719694300,5.1506943359375,0.5644268989562988,-0.24431167542934418,-0.284079909324646
1725629636729728500,5.160728515625,0.7047781348228455,-0.339272677898407,-0.3692585229873657
1725629636739762400,5.170762451171875,0.8504258990287781,-0.44756612181663513,-0.45120105147361755
1725629636749797400,5.18079736328125,1.0148887634277344,-0.5417068600654602,-0.5293296575546265
1725629636759831600,5.19083154296875,1.1801214218139648,-0.6940977573394775,-0.6020962595939636
1725629636769865200,5.200865234375,1.298317790031433,-0.8265432119369507,-0.6838270425796509
1725629636779899400,5.2108994140625,1.417336344718933,-0.8188341856002808,-0.7197579145431519
1725629636789933600,5.22093359375,1.5321780443191528,-0.8114500045776367,-0.7267889976501465
1725629636799967200,5.23096728515625,1.609790325164795,-0.744777262210846,-0.735480010509491
1725629636810001400,5.24100146484375,1.6786316633224487,-0.6075173616409302,-0.7453935146331787
1725629636820035600,5.25103564453125,1.796002745628357,-0.42637714743614197,-0.7242235541343689
1725629636830069200,5.2610693359375,1.927219271659851,-0.16704145073890686,-0.6219810843467712
1725629636840103400,5.271103515625,2.0023274421691895,0.1791524440050125,-0.389813631772995
1725629636850137300,5.281137451171875,1.9720631837844849,0.46207195520401,-0.08188274502754211
1725629636860171300,5.291171142578125,1.8470908403396606,0.6547855138778687,0.2442663460969925
1725629636870205400,5.301205322265625,1.619301438331604,0.760094404220581,0.5302361249923706
1725629636880239400,5.3112392578125,1.299659013748169,0.714520275592804,0.7006549835205078
1725629636890273300,5.321273193359375,0.9612894058227539,0.48061704635620117,0.7004382610321045
1725629636900307500,5.331307373046875,0.5781787633895874,0.11865803599357605,0.4430631399154663
1725629636910341400,5.34134130859375,0.26260265707969666,-0.19722698628902435,0.02361186407506466
1725629636920375300,5.351375244140625,0.14820843935012817,-0.45055004954338074,-0.3790474534034729
1725629636930409500,5.361409423828125,0.1555572897195816,-0.6369653940200806,-0.6249011158943176
1725629636940443400,5.371443359375,0.19557875394821167,-0.6943594217300415,-0.7039514183998108
1725629636950477300,5.381477294921875,0.26761841773986816,-0.5853369235992432,-0.6459270119667053
1725629636960512500,5.391512451171875,0.3367634117603302,-0.3329890966415405,-0.4910317063331604
1725629636970546200,5.401546142578125,0.37948504090309143,-0.05711603909730911,-0.3038657307624817
1725629636980580400,5.411580322265625,0.3949982225894928,0.1516270488500595,-0.17824150621891022
1725629636990614500,5.421614501953125,0.42189180850982666,0.2802657186985016,-0.15840037167072296
1725629637000648200,5.431648193359375,0.4519304037094116,0.349425345659256,-0.16906952857971191
1725629637010682400,5.441682373046875,0.524727463722229,0.36217883229255676,-0.17067985236644745
1725629637020716500,5.451716552734375,0.6160387396812439,0.29689010977745056,-0.16066689789295197
1725629637030750200,5.461750244140625,0.6717954874038696,0.2216876894235611,-0.10862307995557785
1725629637040784400,5.471784423828125,0.7250890135765076,0.2460380345582962,-0.07345550507307053
1725629637050818600,5.481818603515625,0.8306072950363159,0.26587992906570435,-0.06970987468957901
1725629637060852200,5.491852294921875,1.0174992084503174,0.2794298231601715,-0.10928738117218018
1725629637070886400,5.501886474609375,1.1823152303695679,0.26121148467063904,-0.13777735829353333
1725629637080920600,5.511920654296875,1.1800205707550049,0.19797366857528687,-0.1188497394323349
1725629637090954200,5.521954345703125,1.0444018840789795,0.13123466074466705,-0.10566780716180801
1725629637100988400,5.531988525390625,0.9287203550338745,0.0667177215218544,-0.1500840038061142
1725629637111022300,5.542022216796875,0.8088945746421814,-0.06083447113633156,-0.2590721547603607
1725629637121056300,5.55205615234375,0.6703814268112183,-0.17582176625728607,-0.436317503452301
1725629637131090400,5.56209033203125,0.5086721777915955,-0.2772865891456604,-0.5976028442382812
1725629637141124400,5.572124267578125,0.31334927678108215,-0.2809377908706665,-0.6880807876586914
1725629637151158300,5.582158203125,0.040291860699653625,-0.03427445888519287,-0.7260968685150146
1725629637161193500,5.592193359375,-0.18476468324661255,0.13165432214736938,-0.6269500851631165
1725629637171227400,5.602227294921875,-0.265949010848999,0.1911327987909317,-0.48372045159339905
1725629637181261300,5.61226123046875,-0.31976696848869324,0.2150019109249115,-0.3940616548061371
1725629637191295500,5.62229541015625,-0.40367257595062256,0.19790862500667572,-0.3059825599193573
1725629637201329200,5.6323291015625,-0.47747302055358887,0.1382591426372528,-0.1994694173336029
1725629637211363300,5.64236328125,-0.49768349528312683,0.06054377183318138,-0.12755602598190308
1725629637221397500,5.6523974609375,-0.5377121567726135,-0.0007696535321883857,-0.11568311601877213
1725629637231431200,5.66243115234375,-0.5561930537223816,-0.048003360629081726,-0.1245790496468544
1725629637241465300,5.67246533203125,-0.525303065776825,-0.06878134608268738,-0.15653884410858154
1725629637251499500,5.68249951171875,-0.43771442770957947,-0.06969119608402252,-0.1960706263780594
1725629637261533200,5.692533203125,-0.311590313911438,-0.12922324240207672,-0.18368880450725555
1725629637271567400,5.7025673828125,-0.15428957343101501,-0.31167539954185486,-0.07763104885816574
1725629637281601500,5.7126015625,0.008068442344665527,-0.4973864257335663,0.09980152547359467
1725629637291635200,5.72263525390625,0.10894934087991714,-0.4667954742908478,0.23409025371074677
1725629637301669400,5.73266943359375,0.10696528851985931,-0.2581373453140259,0.2561390697956085
1725629637311703600,5.74270361328125,0.03990789130330086,-0.045350827276706696,0.1785978078842163
1725629637321737200,5.7527373046875,-0.03254660218954086,0.06228109449148178,0.039272405207157135
1725629637331771400,5.762771484375,-0.09295457601547241,0.06708920001983643,-0.07332232594490051
1725629637341805600,5.7728056640625,-0.14922744035720825,-0.003642223309725523,-0.12924844026565552
1725629637351839200,5.782839111328125,-0.19681908190250397,-0.08997990190982819,-0.15156836807727814
1725629637361873400,5.792873291015625,-0.21806737780570984,-0.10462196171283722,-0.16231556236743927
1725629637371908400,5.802908447265625,-0.21154268085956573,-0.13946925103664398,-0.13013112545013428
1725629637381942300,5.8129423828125,-0.1849411576986313,-0.1524292528629303,-0.07839097082614899
1725629637391976400,5.8229765625,-0.17488394677639008,-0.01848531700670719,-0.0681341215968132
1725629637402010400,5.83301025390625,-0.1382007598876953,0.11162261664867401,-0.08700314909219742
1725629637412044300,5.843044189453125,-0.13016293942928314,0.16197218000888824,-0.12884564697742462
1725629637422078500,5.853078369140625,-0.19358240067958832,0.26993539929389954,-0.24801145493984222
1725629637432112400,5.8631123046875,-0.30527645349502563,0.38499918580055237,-0.44385072588920593
1725629637442146300,5.873146240234375,-0.41636329889297485,0.4544948935508728,-0.6662888526916504
1725629637452180500,5.883180419921875,-0.5029503107070923,0.35765281319618225,-0.8461249470710754
1725629637462214100,5.893214111328125,-0.5457223057746887,0.15055207908153534,-0.9352665543556213
1725629637472248300,5.903248291015625,-0.6699271202087402,0.18624211847782135,-0.8651894927024841
1725629637482282500,5.913282470703125,-0.8144273161888123,0.2729242742061615,-0.7358487844467163
1725629637492316200,5.923316162109375,-0.9206939935684204,0.269759863615036,-0.5819085240364075
1725629637502350300,5.933350341796875,-1.0319722890853882,0.2710863947868347,-0.41817495226860046
1725629637512384500,5.943384521484375,-1.17976713180542,0.30306583642959595,-0.22419589757919312
1725629637522418200,5.953418212890625,-1.2936841249465942,0.33603179454803467,-0.049271490424871445
1725629637532452400,5.963452392578125,-1.3268249034881592,0.39303645491600037,0.04625098407268524
1725629637542486500,5.973486572265625,-1.3399995565414429,0.48957526683807373,0.07482030987739563
1725629637552520200,5.983520263671875,-1.352169394493103,0.5955007672309875,0.08266638219356537
1725629637562554400,5.993554443359375,-1.3256338834762573,0.6741122007369995,0.09007103741168976
1725629637572589300,6.00358935546875,-1.2716889381408691,0.6739131212234497,0.10064957290887833
1725629637582623200,6.013623291015625,-1.2182981967926025,0.6737932562828064,0.12882289290428162
1725629637592657400,6.023657470703125,-1.1467844247817993,0.7152822613716125,0.19324658811092377
1725629637602691300,6.03369140625,-1.0756516456604004,0.7134391069412231,0.27788183093070984
1725629637612725200,6.043725341796875,-0.9824433326721191,0.6296107769012451,0.33221688866615295
1725629637622759400,6.053759521484375,-0.8931843042373657,0.5412737131118774,0.3571493923664093
1725629637632793300,6.06379345703125,-0.8135197758674622,0.49957552552223206,0.3799118995666504
1725629637642827300,6.0738271484375,-0.7900424003601074,0.5608543753623962,0.3887631893157959
1725629637652861400,6.083861328125,-0.7539047002792358,0.671780526638031,0.39768651127815247
1725629637662895600,6.0938955078125,-0.7203579545021057,0.6945569515228271,0.4018138647079468
1725629637672929500,6.103929443359375,-0.7153714895248413,0.6657769083976746,0.40741169452667236
1725629637682963700,6.113963623046875,-0.7561247944831848,0.6719522476196289,0.41485893726348877
1725629637692997600,6.12399755859375,-0.8083016872406006,0.6525846719741821,0.39090466499328613
1725629637703031600,6.134031494140625,-0.829197108745575,0.5959293842315674,0.3229983150959015
1725629637713065700,6.144065673828125,-0.8318048715591431,0.4470115303993225,0.19458916783332825
1725629637723099600,6.154099609375,-0.8225224614143372,0.3429218828678131,0.053598757833242416
1725629637733133600,6.164133544921875,-0.7127373218536377,0.19462674856185913,-0.06367365270853043
1725629637743167700,6.174167724609375,-0.38054680824279785,-0.11210734397172928,-0.07826937735080719
1725629637753201700,6.18420166015625,0.04873717203736305,-0.3213260769844055,-0.001183114480227232
1725629637763236600,6.194236572265625,0.45546337962150574,-0.3408140242099762,-0.005893980152904987
1725629637773270500,6.2042705078125,0.6648882627487183,-0.3489002585411072,-0.09878017753362656
1725629637783304700,6.2143046875,0.6760998964309692,-0.41208961606025696,-0.19528408348560333
1725629637793338600,6.224338623046875,0.5591322779655457,-0.4890303611755371,-0.25018608570098877
1725629637803372500,6.23437255859375,0.5765296816825867,-0.6134145855903625,-0.2838553488254547
1725629637813406700,6.24440673828125,0.671347975730896,-0.8212507963180542,-0.3476395010948181
1725629637823440600,6.254440673828125,0.7717936038970947,-0.9956244826316833,-0.4314614236354828
1725629637833474600,6.264474609375,0.8355754017829895,-1.0383599996566772,-0.46754196286201477
1725629637843508700,6.2745087890625,0.8691464066505432,-1.0463491678237915,-0.48014721274375916
1725629637853542700,6.284542724609375,0.897311270236969,-0.9809772968292236,-0.5018587708473206
1725629637863576600,6.29457666015625,0.9668735861778259,-0.8111951947212219,-0.5126792192459106
1725629637873610800,6.30461083984375,1.1014683246612549,-0.594566285610199,-0.49909207224845886
1725629637883644700,6.314644775390625,1.275039792060852,-0.41972658038139343,-0.43129733204841614
1725629637893678600,6.3246787109375,1.4700343608856201,-0.2150627076625824,-0.32935285568237305
1725629637903712800,6.334712646484375,1.647517442703247,0.014744924381375313,-0.21244965493679047
1725629637913746700,6.34474658203125,1.7591606378555298,0.1276654303073883,-0.08143601566553116
1725629637923780600,6.354780517578125,1.777998685836792,0.1728198528289795,0.07682686299085617
1725629637933814500,6.364814453125,1.768702745437622,0.23206880688667297,0.256573349237442
1725629637943848700,6.3748486328125,1.7629618644714355,0.2847900986671448,0.4489992558956146
1725629637953882600,6.384882568359375,1.770073652267456,0.3847505748271942,0.6123912930488586
1725629637963916500,6.39491650390625,1.7139997482299805,0.5083255171775818,0.7515678405761719
1725629637973951500,6.404951416015625,1.6123886108398438,0.47412288188934326,0.8463605642318726
1725629637983985700,6.414985595703125,1.4381134510040283,0.31951066851615906,0.8388631939888
1725629637994019800,6.425019775390625,1.2274441719055176,0.16538147628307343,0.7532668709754944
1725629638004053500,6.435053466796875,1.0158661603927612,0.13968968391418457,0.6519668698310852
1725629638014087700,6.445087646484375,0.7955250144004822,0.12487319111824036,0.5606271028518677
1725629638024121600,6.45512158203125,0.581781268119812,0.0044471793808043,0.4280826151371002
1725629638034155500,6.465155517578125,0.3907337188720703,-0.17593900859355927,0.24740341305732727
1725629638044189700,6.475189697265625,0.26346126198768616,-0.24866673350334167,0.029369885101914406
1725629638054223600,6.4852236328125,0.21568477153778076,-0.24400773644447327,-0.17149841785430908
1725629638064257500,6.495257568359375,0.2050321251153946,-0.22058549523353577,-0.28229284286499023
1725629638074291700,6.505291748046875,0.1941167563199997,-0.1652052253484726,-0.270783931016922
1725629638084325600,6.51532568359375,0.19737061858177185,-0.06405437737703323,-0.1764686405658722
1725629638094359600,6.525359619140625,0.23577353358268738,0.04880549758672714,-0.07723289728164673
1725629638104393700,6.535393798828125,0.29596656560897827,0.08723144978284836,-0.0013501201756298542
1725629638114427600,6.545427734375,0.31540870666503906,0.06822127103805542,0.048416901379823685
1725629638124461600,6.555461669921875,0.2859826385974884,0.034070760011672974,0.06268718838691711
1725629638134495700,6.565495849609375,0.25392434000968933,0.0693393349647522,0.040071554481983185
1725629638144529700,6.57552978515625,0.269905149936676,0.13743956387043,-0.03053443692624569
1725629638154563600,6.5855634765625,0.3047233521938324,0.1481180191040039,-0.10016123205423355
1725629638164597800,6.59559765625,0.43748486042022705,0.259548157453537,-0.2262430042028427
1725629638174632400,6.605632568359375,0.5544314384460449,0.29253190755844116,-0.317597359418869
1725629638184666600,6.61566650390625,0.6260907053947449,0.22392700612545013,-0.2975541651248932
1725629638194700800,6.62570068359375,0.7151290774345398,0.2708815932273865,-0.2554788291454315
1725629638204734500,6.635734375,0.784970760345459,0.39203837513923645,-0.2801058888435364
1725629638214768600,6.6457685546875,0.8225147724151611,0.40388524532318115,-0.34514790773391724
1725629638224802800,6.655802734375,0.8321710824966431,0.3537469506263733,-0.40085989236831665
1725629638234836500,6.66583642578125,0.7935535311698914,0.30378586053848267,-0.41460272669792175
1725629638244870700,6.67587060546875,0.6553913950920105,0.22587957978248596,-0.33802247047424316
1725629638254904800,6.68590478515625,0.5299233198165894,-0.009132778272032738,-0.2536737322807312
1725629638264938500,6.6959384765625,0.4022550880908966,-0.2840551733970642,-0.2349807471036911
1725629638274972700,6.70597265625,0.26763126254081726,-0.5902429819107056,-0.20960652828216553
1725629638285006600,6.716006591796875,0.12716495990753174,-0.8429969549179077,-0.12347910553216934
1725629638295040500,6.72604052734375,-0.012498714961111546,-0.9966431856155396,0.015611983835697174
1725629638305074700,6.73607470703125,-0.16667230427265167,-0.9601083397865295,0.18638773262500763
1725629638315108600,6.746108642578125,-0.3527161777019501,-0.7426495552062988,0.37305161356925964
1725629638325142500,6.756142578125,-0.43249863386154175,-0.4167121946811676,0.39328232407569885
1725629638335176700,6.7661767578125,-0.4724041819572449,-0.23192472755908966,0.27240103483200073
1725629638345210600,6.776210693359375,-0.5987085700035095,-0.15077048540115356,0.16267110407352448
1725629638355244500,6.78624462890625,-0.7528688311576843,-0.162007138133049,0.1664964109659195
1725629638365278700,6.79627880859375,-0.8689025044441223,-0.24243168532848358,0.25509577989578247
1725629638375313400,6.8063134765625,-0.9414632320404053,-0.28796425461769104,0.36719754338264465
1725629638385347600,6.81634765625,-0.9806569814682007,-0.38166093826293945,0.4878115653991699
1725629638395381800,6.8263818359375,-0.9917108416557312,-0.5254564881324768,0.6265182495117188
1725629638405415400,6.83641552734375,-0.9877200722694397,-0.5555984377861023,0.7365195751190186
1725629638415449600,6.84644970703125,-0.9511681199073792,-0.4723285734653473,0.8041316270828247
1725629638425483800,6.85648388671875,-0.859955370426178,-0.3193989396095276,0.820469319820404
1725629638435517400,6.866517333984375,-0.7326992750167847,-0.12563227117061615,0.789103090763092
1725629638445551600,6.876551513671875,-0.5722309947013855,0.051004279404878616,0.7584484815597534
1725629638455585800,6.886585693359375,-0.4921441674232483,0.11196409910917282,0.756549060344696
1725629638465619500,6.896619384765625,-0.5299256443977356,0.1417779177427292,0.749593198299408
1725629638475653600,6.906653564453125,-0.6235498189926147,0.22830617427825928,0.743938684463501
1725629638485687800,6.916687744140625,-0.6803111433982849,0.30481666326522827,0.7401540875434875
1725629638495721500,6.926721435546875,-0.6805845499038696,0.37873709201812744,0.7003110647201538
1725629638505755600,6.936755615234375,-0.6442201733589172,0.43185171484947205,0.6006665229797363
1725629638515789800,6.946789794921875,-0.5777572989463806,0.32837122678756714,0.5313470363616943
1725629638525823500,6.956823486328125,-0.509070098400116,0.2338114231824875,0.45090919733047485
1725629638535857700,6.966857666015625,-0.45495912432670593,0.1814063936471939,0.3325884938240051
1725629638545891600,6.9768916015625,-0.42725375294685364,0.09468933939933777,0.2143705189228058
1725629638555925500,6.986925537109375,-0.4262627363204956,-0.01577722281217575,0.12166715413331985
1725629638565959700,6.996959716796875,-0.44994065165519714,-0.11178631335496902,0.06182432174682617
1725629638575994600,7.00699462890625,-0.5586661696434021,-0.14141541719436646,0.004561265930533409
1725629638586028500,7.017028564453125,-0.6857080459594727,-0.11739608645439148,-0.05107856169342995
1725629638596062700,7.027062744140625,-0.8597727417945862,-0.038191020488739014,-0.03166917711496353
1725629638606096600,7.0370966796875,-1.0787615776062012,0.026246558874845505,0.06075423210859299
1725629638616130600,7.047130615234375,-1.2925935983657837,0.01017345767468214,0.11121982336044312
1725629638626164700,7.057164794921875,-1.418180227279663,-0.028102291747927666,0.07800114899873734
1725629638636198400,7.067198486328125,-1.4392096996307373,0.028784317895770073,-0.006131229922175407
1725629638646232600,7.077232666015625,-1.4659123420715332,0.10458454489707947,-0.06442462652921677
1725629638656266800,7.087266845703125,-1.4662644863128662,0.23457078635692596,0.04687132313847542
1725629638666300700,7.09730078125,-1.4320238828659058,0.2684432566165924,0.25196295976638794
1725629638676334600,7.10733447265625,-1.375714898109436,0.19831815361976624,0.37514764070510864
1725629638686368800,7.11736865234375,-1.305249810218811,0.1984926015138626,0.3528929352760315
1725629638696402700,7.127402587890625,-1.2431577444076538,0.2030138224363327,0.26703524589538574
1725629638706436600,7.1374365234375,-1.1784868240356445,0.24276256561279297,0.22060434520244598
1725629638716470800,7.147470703125,-1.116228699684143,0.32185089588165283,0.1875114142894745
1725629638726504700,7.157504638671875,-1.0828888416290283,0.44324442744255066,0.14358337223529816
1725629638736538600,7.16753857421875,-1.040987253189087,0.6517821550369263,0.12382981181144714
1725629638746572800,7.17757275390625,-0.9824081063270569,0.9152033925056458,0.21366356313228607
1725629638756606700,7.187606689453125,-0.9602683782577515,0.9414485692977905,0.39629045128822327
1725629638766640600,7.197640625,-0.8974829912185669,0.8543879985809326,0.5748964548110962
1725629638776675600,7.207675537109375,-0.7606668472290039,0.8764173984527588,0.7130196690559387
1725629638786709800,7.217709716796875,-0.5887888073921204,0.9833462238311768,0.7871535420417786
1725629638796743700,7.22774365234375,-0.4444160759449005,1.075624704360962,0.8151292204856873
1725629638806777600,7.237777587890625,-0.30106690526008606,1.1048707962036133,0.7490204572677612
1725629638816811800,7.247811767578125,-0.20626991987228394,1.0394351482391357,0.6135337948799133
1725629638826845700,7.257845703125,-0.13323113322257996,0.8735617995262146,0.4759324789047241
1725629638836879600,7.267879638671875,-0.058741357177495956,0.49221575260162354,0.3387806713581085
1725629638846913800,7.277913818359375,0.05874692276120186,0.037574492394924164,0.22263912856578827
1725629638856947700,7.28794775390625,0.1318991780281067,-0.18518991768360138,0.049327533692121506
1725629638866981600,7.297981689453125,0.14853808283805847,-0.2811689078807831,-0.0970216915011406
1725629638877015800,7.308015869140625,0.21971912682056427,-0.3659321665763855,-0.14773565530776978
1725629638887049700,7.3180498046875,0.2922985255718231,-0.3996506929397583,-0.1964145004749298
1725629638897083600,7.328083740234375,0.33252623677253723,-0.430546373128891,-0.27549898624420166
1725629638907117600,7.33811767578125,0.33849036693573,-0.48859795928001404,-0.3931880593299866
1725629638917151700,7.34815185546875,0.3365902006626129,-0.5811536908149719,-0.5390104651451111
1725629638927185700,7.358185546875,0.34931159019470215,-0.7238237857818604,-0.6880737543106079
1725629638937219600,7.368219482421875,0.3899975121021271,-0.863127589225769,-0.8371961116790771
1725629638947253800,7.378253662109375,0.43842044472694397,-1.0869112014770508,-1.0213873386383057
1725629638957287700,7.38828759765625,0.5308595299720764,-1.268168330192566,-1.1789883375167847
1725629638967321600,7.398321533203125,0.6513590812683105,-1.3489971160888672,-1.3035694360733032
1725629638977356800,7.408356689453125,0.8158559799194336,-1.3420284986495972,-1.3901772499084473
1725629638987390700,7.418390625,1.0089788436889648,-1.3367747068405151,-1.4216300249099731
1725629638997424600,7.428424560546875,1.2262343168258667,-1.2242411375045776,-1.358134388923645
1725629639007458600,7.43845849609375,1.4175653457641602,-1.0950391292572021,-1.1897634267807007
1725629639017492700,7.44849267578125,1.5523946285247803,-0.916700005531311,-0.9630876779556274
1725629639027526700,7.458526611328125,1.6251771450042725,-0.6576991081237793,-0.7309188842773438
1725629639037560600,7.468560546875,1.6268304586410522,-0.31603166460990906,-0.5004285573959351
1725629639047594800,7.4785947265625,1.5652402639389038,0.06817300617694855,-0.24206413328647614
1725629639057628700,7.488628662109375,1.4799944162368774,0.3782801628112793,0.028652869164943695
1725629639067662600,7.49866259765625,1.4143065214157104,0.5238283276557922,0.2781745493412018
1725629639077696800,7.50869677734375,1.3528085947036743,0.46209800243377686,0.45450446009635925
1725629639087730700,7.518730712890625,1.2408902645111084,0.2386302649974823,0.5040669441223145
1725629639097764600,7.5287646484375,1.0748414993286133,0.04214680939912796,0.46583735942840576
1725629639107798800,7.538798828125,0.880439817905426,-0.05485057085752487,0.43481019139289856
1725629639117832700,7.548832763671875,0.6586801409721375,-0.018044432625174522,0.3991522490978241
1725629639127866600,7.55886669921875,0.4470296800136566,0.08159534633159637,0.39543288946151733
1725629639137900800,7.56890087890625,0.3061699867248535,0.047967758029699326,0.31807941198349
1725629639147934700,7.578934814453125,0.2529621720314026,0.06853828579187393,0.1832190603017807
1725629639157968600,7.58896875,0.2557792663574219,0.07864147424697876,0.029363734647631645
1725629639168002600,7.59900244140625,0.27451300621032715,0.002047895919531584,-0.08246026933193207
1725629639178037800,7.609037841796875,0.3388502895832062,-0.12295668572187424,-0.12594254314899445
1725629639188071700,7.61907177734375,0.38852277398109436,-0.17639780044555664,-0.13020385801792145
1725629639198105900,7.62910595703125,0.3687605857849121,-0.0985369086265564,-0.10292349010705948
1725629639208139800,7.639139892578125,0.3019607663154602,-0.019778979942202568,-0.012864974327385426
1725629639218173700,7.649173583984375,0.19871321320533752,0.0606623999774456,0.14695818722248077
1725629639228207900,7.659207763671875,0.13115574419498444,0.20209729671478271,0.3021986186504364
1725629639238241800,7.66924169921875,0.11544319242238998,0.22575262188911438,0.4169124960899353
1725629639248275700,7.679275634765625,0.17819499969482422,0.16671539843082428,0.49297797679901123
1725629639258309600,7.6893095703125,0.3011588454246521,0.14610861241817474,0.5616496801376343
1725629639268343800,7.69934375,0.40174296498298645,0.10984114557504654,0.6253700852394104
1725629639278377700,7.709377685546875,0.4766015410423279,0.018550630658864975,0.6969028115272522
1725629639288411600,7.71941162109375,0.5616738796234131,-0.025964107364416122,0.7388668060302734
1725629639298445800,7.72944580078125,0.6041207313537598,0.06062769144773483,0.7158783674240112
1725629639308479700,7.739479736328125,0.5666601657867432,0.14653034508228302,0.6371558308601379
1725629639318513700,7.749513671875,0.5369234085083008,0.2131621390581131,0.4411640763282776
1725629639328547800,7.7595478515625,0.526977002620697,0.2776029109954834,0.18017084896564484
1725629639338581800,7.769581787109375,0.5837163925170898,0.3003293573856354,-0.096037857234478
1725629639348615700,7.77961572265625,0.5702754259109497,0.26073774695396423,-0.3378280997276306
1725629639358649900,7.78964990234375,0.4740407466888428,0.23640653491020203,-0.48508620262145996
1725629639368683800,7.799683837890625,0.3379899561405182,0.12707364559173584,-0.523780882358551
1725629639378718700,7.80971875,0.2093254029750824,-0.025547828525304794,-0.47395017743110657
1725629639388752600,7.819752685546875,0.09191063791513443,-0.11715364456176758,-0.3828756511211395
1725629639398786800,7.829786865234375,-0.051158104091882706,-0.20029407739639282,-0.28399941325187683
1725629639408820700,7.83982080078125,-0.09983882308006287,-0.3375595211982727,-0.18382884562015533
1725629639418854700,7.849854736328125,-0.0997772365808487,-0.4123769700527191,-0.07925675064325333
1725629639428888800,7.859888916015625,-0.11550400406122208,-0.4289095997810364,0.04761357605457306
1725629639438922800,7.8699228515625,-0.16185669600963593,-0.40940263867378235,0.17351554334163666
1725629639448956700,7.879956787109375,-0.2590990960597992,-0.25278881192207336,0.21608884632587433
1725629639458990800,7.889990966796875,-0.3913764953613281,-0.17291764914989471,0.24283289909362793
1725629639469024800,7.900024658203125,-0.5265910625457764,-0.05315449833869934,0.3019827604293823
1725629639479058700,7.91005859375,-0.6520735025405884,0.08048326522111893,0.35872310400009155
1725629639489092900,7.9200927734375,-0.7082520723342896,0.1339358240365982,0.4059004485607147
1725629639499126800,7.930126708984375,-0.7002459764480591,0.12856656312942505,0.3981412649154663
1725629639509160700,7.94016064453125,-0.6165353655815125,0.02471686527132988,0.38026025891304016
1725629639519194600,7.950194580078125,-0.476019024848938,-0.1403065174818039,0.36958569288253784
1725629639529228800,7.960228759765625,-0.35948124527931213,-0.25307250022888184,0.36818379163742065
1725629639539262700,7.9702626953125,-0.3050818145275116,-0.3994448781013489,0.371614933013916
1725629639549296600,7.980296630859375,-0.3093934655189514,-0.5658447742462158,0.37883448600769043
1725629639559330800,7.990330810546875,-0.36884790658950806,-0.5775598883628845,0.3339143693447113
1725629639569364700,8.00036474609375,-0.4337616562843323,-0.46788686513900757,0.24245236814022064
1725629639579398700,8.010398681640625,-0.46744421124458313,-0.30627527832984924,0.12997661530971527
1725629639589432800,8.020432861328125,-0.4930092394351959,-0.09079597890377045,-0.005001970566809177
1725629639599466800,8.030466796875,-0.5150015950202942,0.08225997537374496,-0.12272386997938156
1725629639609500700,8.040500732421876,-0.5329161286354065,0.1327817440032959,-0.1693664789199829
1725629639619534800,8.050534912109375,-0.538041353225708,0.11255181580781937,-0.15082746744155884
1725629639629568800,8.06056884765625,-0.524061918258667,0.01389235444366932,-0.111393503844738
1725629639639602700,8.070602783203125,-0.5043830871582031,-0.059566982090473175,-0.10347176343202591
1725629639649636900,8.080636962890624,-0.4798724055290222,-0.10075569897890091,-0.13540998101234436
1725629639659670300,8.090670166015625,-0.4611186683177948,-0.11171271651983261,-0.1726953685283661
1725629639669704400,8.100704345703125,-0.43842747807502747,-0.05183979496359825,-0.21261802315711975
1725629639679738600,8.110738525390625,-0.4198722839355469,0.02464504912495613,-0.25929853320121765
1725629639689773600,8.120773681640625,-0.4245448112487793,0.07012119144201279,-0.29527410864830017
1725629639699807500,8.130807373046874,-0.4392161965370178,0.12737540900707245,-0.30143046379089355
1725629639709841400,8.14084130859375,-0.548747181892395,0.20921753346920013,-0.21958300471305847
1725629639719875600,8.15087548828125,-0.6886159777641296,0.1098802462220192,-0.137217178940773
1725629639729909500,8.160909423828125,-0.8370043635368347,0.023381303995847702,-0.08429457992315292
1725629639739943400,8.170943359375,-1.0325648784637451,-0.05663114786148071,-0.026739804074168205
1725629639749977300,8.180977294921876,-1.2278128862380981,-0.1346825361251831,0.01423825416713953
1725629639760011500,8.191011474609375,-1.3981964588165283,-0.044903844594955444,0.03726430609822273
1725629639770045400,8.20104541015625,-1.569833755493164,0.13792429864406586,0.10157378762960434
1725629639780079400,8.211079345703125,-1.7530245780944824,0.2440577894449234,0.22791774570941925
1725629639790113500,8.221113525390624,-1.819487452507019,0.3868173360824585,0.3713201582431793
1725629639800147500,8.2311474609375,-1.764931559562683,0.49493107199668884,0.4572693109512329
1725629639810181400,8.241181396484375,-1.705077052116394,0.4812498986721039,0.48462262749671936
1725629639820215600,8.251215576171875,-1.6908773183822632,0.46994295716285706,0.4351503849029541
1725629639830249500,8.26124951171875,-1.6439275741577148,0.3774031698703766,0.3416217565536499
1725629639840283400,8.271283447265626,-1.5739048719406128,0.2729160487651825,0.29071691632270813
1725629639850317600,8.281317626953125,-1.4209494590759277,0.28275004029273987,0.2694060206413269
1725629639860352500,8.2913525390625,-1.2385056018829346,0.418404221534729,0.27512529492378235
1725629639870386400,8.301386474609375,-1.0542380809783936,0.6138360500335693,0.31375017762184143
1725629639880420400,8.31142041015625,-0.9126588702201843,0.7017792463302612,0.3793196380138397
1725629639890454500,8.32145458984375,-0.7698076963424683,0.7166090607643127,0.4137535095214844
1725629639900488400,8.331488525390625,-0.6316909193992615,0.7120701670646667,0.44400346279144287
1725629639910522400,8.3415224609375,-0.49635013937950134,0.6130354404449463,0.4727831780910492
1725629639920556500,8.351556640625,-0.3860721290111542,0.500760018825531,0.4454384446144104
1725629639930590500,8.361590576171874,-0.29217758774757385,0.398516982793808,0.3629150688648224
1725629639940624400,8.371624267578126,-0.2177477329969406,0.2513746917247772,0.2682611048221588
1725629639950658600,8.381658447265625,-0.11588207632303238,0.12083161622285843,0.203751340508461
1725629639960692500,8.3916923828125,0.07605071365833282,0.03808574378490448,0.15991973876953125
1725629639970726400,8.401726318359374,0.2317207306623459,0.033002033829689026,0.11421855539083481
1725629639980760600,8.411760498046876,0.28893110156059265,-0.023953011259436607,0.04768568277359009
1725629639990794500,8.42179443359375,0.3241279721260071,-0.16541293263435364,-0.057090796530246735
1725629640000828400,8.431828369140625,0.35039830207824707,-0.3485128879547119,-0.18278983235359192
1725629640010862300,8.4418623046875,0.3893510401248932,-0.44782933592796326,-0.2951398193836212
1725629640020896500,8.451896484375,0.4088893234729767,-0.42306387424468994,-0.41262108087539673
1725629640030930400,8.461930419921876,0.4932561218738556,-0.44895967841148376,-0.5332084894180298
1725629640040964400,8.47196435546875,0.5342470407485962,-0.532015323638916,-0.7241021394729614
1725629640050999300,8.481999267578125,0.5888887047767639,-0.6197332143783569,-0.9267010688781738
1725629640061033500,8.492033447265625,0.7367226481437683,-0.8230909705162048,-1.0678471326828003
1725629640071067600,8.502067626953124,0.9403005838394165,-1.0775620937347412,-1.2109853029251099
1725629640081101300,8.512101318359376,1.1585969924926758,-1.3162457942962646,-1.330575704574585
1725629640091135500,8.522135498046875,1.4276492595672607,-1.4007254838943481,-1.3689470291137695
1725629640101169700,8.532169677734375,1.694945216178894,-1.3595613241195679,-1.308119297027588
1725629640111203300,8.542203369140625,1.8949024677276611,-1.2408617734909058,-1.1926968097686768
1725629640121237500,8.552237548828124,2.0136704444885254,-0.9349768757820129,-1.0403797626495361
1725629640131271400,8.562271484375,2.0303597450256348,-0.4547596275806427,-0.8432698845863342
1725629640141305300,8.572305419921875,1.9594488143920898,0.17478448152542114,-0.5518220663070679
1725629640151339500,8.582339599609375,1.855287790298462,0.6714581251144409,-0.22897347807884216
1725629640161373400,8.59237353515625,1.7199162244796753,0.8743411898612976,0.022265253588557243
1725629640171407400,8.602407470703126,1.6146595478057861,0.7907053828239441,0.16187961399555206
1725629640181441500,8.612441650390625,1.4938011169433594,0.6070830821990967,0.19788460433483124
1725629640191475500,8.622475341796875,1.3046109676361084,0.369344025850296,0.1584911197423935
1725629640201509400,8.63250927734375,1.0489470958709717,0.07900598645210266,0.08995135128498077
1725629640211543600,8.64254345703125,0.7832813858985901,-0.16033628582954407,-0.010260465554893017
1725629640221577500,8.652577392578126,0.532195508480072,-0.25170981884002686,-0.12556684017181396
1725629640231611400,8.662611328125,0.3337279260158539,-0.24121853709220886,-0.22366517782211304
1725629640241646600,8.672646484375,0.22762063145637512,-0.23143433034420013,-0.30503320693969727
1725629640251680300,8.68268017578125,0.18866391479969025,-0.13550648093223572,-0.3916762173175812
1725629640261714400,8.69271435546875,0.1875428557395935,0.024973377585411072,-0.4729575514793396
1725629640271748600,8.70274853515625,0.2371266484260559,0.15311776101589203,-0.5358009338378906
1725629640281782300,8.7127822265625,0.3159548044204712,0.18634195625782013,-0.5548481941223145
1725629640291816400,8.72281640625,0.38851794600486755,0.1932094395160675,-0.524763286113739
1725629640301850600,8.7328505859375,0.3952999711036682,0.2626282274723053,-0.41878074407577515
1725629640311884300,8.74288427734375,0.35638800263404846,0.3823152184486389,-0.27027222514152527
1725629640321918500,8.75291845703125,0.3388819694519043,0.4767134189605713,-0.1594592183828354
1725629640331952600,8.76295263671875,0.3491646945476532,0.4296678900718689,-0.13479168713092804
1725629640341986300,8.772986328125,0.3278616666793823,0.3668636679649353,-0.1170131266117096
1725629640352020500,8.7830205078125,0.30050647258758545,0.34190160036087036,-0.06489027291536331
1725629640362054700,8.7930546875,0.37740498781204224,0.28663012385368347,-0.06864054501056671
1725629640372088300,8.80308837890625,0.5305551290512085,0.15762019157409668,-0.12262840569019318
1725629640382122500,8.81312255859375,0.7332725524902344,0.11365143209695816,-0.23190408945083618
1725629640392156400,8.823156494140624,0.9546360969543457,0.11104340106248856,-0.350422739982605
1725629640402190300,8.8331904296875,1.0164144039154053,0.1041909009218216,-0.38046160340309143
1725629640412224500,8.843224609375,1.0814259052276611,0.14939406514167786,-0.3346365988254547
1725629640422258400,8.853258544921875,1.178181767463684,0.1527651995420456,-0.2959442734718323
1725629640432292400,8.863292236328125,1.1877909898757935,0.12373889237642288,-0.2635437250137329
1725629640442327600,8.87332763671875,1.0794097185134888,0.09212249517440796,-0.24663878977298737
1725629640452361500,8.883361572265626,0.9272283315658569,0.06671514362096786,-0.2599220871925354
1725629640462395400,8.8933955078125,0.8120777010917664,0.0006472968962043524,-0.2964780032634735
1725629640472429600,8.9034296875,0.6978523135185242,-0.13240715861320496,-0.3480392098426819
1725629640482463200,8.913463134765625,0.5667297840118408,-0.4056614935398102,-0.35182666778564453
1725629640492497400,8.923497314453124,0.4106898605823517,-0.6560670733451843,-0.2638794779777527
1725629640502531600,8.933531494140626,0.2194393128156662,-0.806487500667572,-0.11503680795431137
1725629640512565200,8.943565185546875,-0.014339095912873745,-0.7662069201469421,0.041626572608947754
1725629640522599400,8.953599365234375,-0.26444968581199646,-0.6724386811256409,0.23264192044734955
1725629640532633600,8.963633544921874,-0.4068731367588043,-0.47642043232917786,0.3514902889728546
1725629640542667300,8.973667236328126,-0.39684805274009705,-0.3312147557735443,0.3256398141384125
1725629640552701400,8.983701416015625,-0.4298134446144104,-0.2857644259929657,0.2573414742946625
1725629640562735600,8.993735595703125,-0.549363374710083,-0.31991899013519287,0.2721080482006073
1725629640572769300,9.003769287109375,-0.6905367374420166,-0.32449963688850403,0.354770690202713
1725629640582803500,9.013803466796874,-0.8131863474845886,-0.2642270624637604,0.4336923062801361
1725629640592837600,9.023837646484376,-0.8897269368171692,-0.33668580651283264,0.4997464418411255
1725629640602871300,9.033871337890625,-0.9182103872299194,-0.40725958347320557,0.5013322830200195
1725629640612905500,9.043905517578125,-0.8540639281272888,-0.32222938537597656,0.4208470582962036
1725629640622939600,9.053939697265625,-0.710252583026886,-0.19657811522483826,0.2824516296386719
1725629640632973300,9.063973388671876,-0.5488865971565247,-0.1772795170545578,0.14747066795825958
1725629640643008500,9.074008544921876,-0.4249122738838196,-0.20872005820274353,0.0437004454433918
1725629640653042400,9.08404248046875,-0.3992106318473816,-0.303170382976532,0.0017082541016861796
1725629640663076600,9.09407666015625,-0.4343544840812683,-0.3622983396053314,-0.009950598701834679
1725629640673110500,9.104110595703125,-0.4528839588165283,-0.39193347096443176,-0.00487301591783762
1725629640683144400,9.11414453125,-0.42506101727485657,-0.3921128213405609,0.033078383654356
1725629640693178600,9.1241787109375,-0.38182246685028076,-0.2348363995552063,0.06973359733819962
1725629640703212500,9.134212646484375,-0.3658142387866974,-0.07190582901239395,0.10394542664289474
1725629640713246500,9.14424658203125,-0.3434966802597046,0.11244324594736099,0.14668409526348114
1725629640723280600,9.15428076171875,-0.3433813452720642,0.2844891846179962,0.14520666003227234
1725629640733314600,9.164314453125,-0.3957252502441406,0.20696085691452026,0.1256452053785324
1725629640743348500,9.174348388671875,-0.430008202791214,0.15722903609275818,0.05298888310790062
1725629640753382700,9.184382568359375,-0.4501059949398041,0.15196795761585236,-0.03678600862622261
1725629640763416600,9.19441650390625,-0.4772839844226837,0.13258284330368042,-0.1050211563706398
1725629640773450500,9.204450439453124,-0.5356870889663696,0.05022752657532692,-0.1295672506093979
1725629640783484700,9.214484619140626,-0.5957068204879761,-0.06686512380838394,-0.10657119750976562
1725629640793518600,9.2245185546875,-0.6576463580131531,-0.08405449986457825,-0.033632542937994
1725629640803552500,9.234552490234375,-0.6870121955871582,-0.08630634844303131,0.060256753116846085
1725629640813586700,9.244586669921874,-0.7689871788024902,-0.09295492619276047,0.19115829467773438
1725629640823620600,9.25462060546875,-0.9457774758338928,-0.13211047649383545,0.30351197719573975
1725629640833654500,9.264654541015625,-1.1480414867401123,-0.05485056713223457,0.29412513971328735
1725629640843688400,9.2746884765625,-1.3719549179077148,0.13838812708854675,0.2555311322212219
1725629640853723600,9.2847236328125,-1.5561586618423462,0.4848499596118927,0.3297494351863861
1725629640863757600,9.294757568359374,-1.7041302919387817,0.8608275651931763,0.5490030646324158
1725629640873791700,9.304791748046876,-1.726598858833313,0.9109176397323608,0.7798488140106201
1725629640883825700,9.31482568359375,-1.6259924173355103,0.782390296459198,0.9341332912445068
1725629640893859600,9.324859619140625,-1.5602307319641113,0.6289059519767761,0.9458094239234924
1725629640903893800,9.334893798828125,-1.5239040851593018,0.47864145040512085,0.8383637070655823
1725629640913927700,9.344927734375,-1.43084716796875,0.4105337858200073,0.6826153993606567
1725629640923961600,9.354961669921876,-1.2655047178268433,0.6364681720733643,0.5577701926231384
1725629640933995500,9.36499560546875,-1.10524320602417,0.9628774523735046,0.4721601903438568
1725629640944029700,9.37502978515625,-0.9521216750144958,1.021009087562561,0.507055401802063
1725629640954063600,9.385063720703124,-0.7898030281066895,0.9217730760574341,0.5960643887519836
1725629640964097500,9.39509765625,-0.5916094779968262,0.8867919445037842,0.6565505266189575
1725629640974131700,9.405131591796875,-0.4103379547595978,0.8919219970703125,0.6521139740943909
1725629640984165600,9.41516552734375,-0.32094594836235046,0.8760991096496582,0.6188796758651733
1725629640994199600,9.425199462890625,-0.30226707458496094,0.8364936709403992,0.5578985810279846
1725629641004233500,9.4352333984375,-0.2886081337928772,0.7737359404563904,0.4873749017715454
1725629641014267600,9.445267578125,-0.23190943896770477,0.6027564406394958,0.38636547327041626
1725629641024301600,9.455301513671875,-0.10192674398422241,0.37506189942359924,0.2600761353969574
1725629641034335500,9.46533544921875,0.06087629124522209,0.10234515368938446,0.12552021443843842
1725629641044370700,9.47537060546875,0.14269760251045227,-0.017319977283477783,-0.0001782798208296299
1725629641054404600,9.485404541015624,0.21497473120689392,-0.08554963022470474,-0.12867340445518494
1725629641064438500,9.4954384765625,0.29630354046821594,-0.19261866807937622,-0.2521594166755676
1725629641074472700,9.50547265625,0.3672477602958679,-0.2943199872970581,-0.37169912457466125
1725629641084506600,9.515506591796875,0.4394570291042328,-0.38612857460975647,-0.506023108959198
1725629641094540500,9.52554052734375,0.551572322845459,-0.46210429072380066,-0.6361392736434937
1725629641104574700,9.53557470703125,0.6656919717788696,-0.6521750688552856,-0.7484563589096069
1725629641114608600,9.545608642578125,0.7821972966194153,-0.8928747177124023,-0.8502218723297119
1725629641124642600,9.555642578125,0.8963958024978638,-1.092168927192688,-0.9503731727600098
1725629641134676700,9.5656767578125,0.9988641142845154,-1.2094191312789917,-1.0640270709991455
1725629641144710700,9.575710693359374,1.106589913368225,-1.2449828386306763,-1.182164192199707
1725629641154744600,9.58574462890625,1.208738923072815,-1.304039478302002,-1.2927889823913574
1725629641164778800,9.59577880859375,1.343603491783142,-1.305021047592163,-1.3251867294311523
1725629641174812700,9.605812744140625,1.4836622476577759,-1.231350302696228,-1.2692838907241821
1725629641184846600,9.6158466796875,1.576760172843933,-1.0068917274475098,-1.121290683746338
1725629641194880500,9.625880615234376,1.607606291770935,-0.556612491607666,-0.884284496307373
1725629641204914700,9.635914794921876,1.5560319423675537,0.06820502877235413,-0.5288978219032288
1725629641214948600,9.645948486328125,1.4533718824386597,0.5771611928939819,-0.12004507333040237
1725629641224982500,9.655982421875,1.3522971868515015,0.7855151891708374,0.2404150366783142
1725629641235016700,9.6660166015625,1.3125969171524048,0.705520510673523,0.465027391910553
1725629641245051600,9.6760517578125,1.2708007097244263,0.49717649817466736,0.5298241972923279
1725629641255085800,9.6860859375,1.1633881330490112,0.3226281404495239,0.4516548216342926
1725629641265119500,9.696119384765625,0.9746343493461609,0.18398888409137726,0.28157761693000793
1725629641275153700,9.706153564453125,0.7697930932044983,0.02673482336103916,0.09460665285587311
1725629641285187600,9.7161875,0.5767557621002197,-0.11880569905042648,-0.05933143198490143
1725629641295221500,9.726221435546876,0.43681275844573975,-0.18182994425296783,-0.1692158579826355
1725629641305255700,9.736255615234375,0.3643442988395691,-0.22973719239234924,-0.2552146315574646
1725629641315289600,9.74628955078125,0.33566975593566895,-0.20376737415790558,-0.3313000798225403
1725629641325323500,9.756323486328125,0.3198671042919159,-0.11178071796894073,-0.39963412284851074
1725629641335357700,9.766357666015624,0.3222748637199402,-0.04693354293704033,-0.4337311089038849
1725629641345391600,9.7763916015625,0.36128389835357666,-0.055997610092163086,-0.43514934182167053
1725629641355425500,9.786425537109375,0.39598914980888367,-0.09516018629074097,-0.37188756465911865
1725629641365459700,9.796459716796875,0.38053783774375916,-0.0931282490491867,-0.26750633120536804
1725629641375493600,9.80649365234375,0.37498462200164795,-0.020603453740477562,-0.19647768139839172
1725629641385527600,9.816527587890626,0.30738627910614014,0.121605783700943,-0.11033990234136581
1725629641395561700,9.826561767578125,0.2224692404270172,0.24953073263168335,-0.02401912957429886
1725629641405595600,9.836595703125,0.19021175801753998,0.2869119346141815,0.030119413509964943
1725629641415629600,9.846629638671875,0.2489464432001114,0.2578240931034088,0.05792468041181564
1725629641425663700,9.856663818359374,0.3454519510269165,0.2424992024898529,0.07730663567781448
1725629641435697700,9.86669775390625,0.4530172646045685,0.27405232191085815,0.09333699941635132
1725629641445732600,9.876732666015625,0.5425057411193848,0.2692088782787323,0.13899992406368256
1725629641455766800,9.886766845703125,0.6020500063896179,0.28685498237609863,0.1681242436170578
1725629641465800400,9.896800537109375,0.6137898564338684,0.36778751015663147,0.14618708193302155
1725629641475834600,9.906834716796874,0.5821893215179443,0.38373398780822754,0.0696592852473259
1725629641485868800,9.916868896484376,0.5080008506774902,0.4006724953651428,-0.04903034865856171
1725629641495902500,9.92690234375,0.4531428813934326,0.45062726736068726,-0.1799851655960083
1725629641505936600,9.9369365234375,0.36764734983444214,0.42855218052864075,-0.2668931782245636
1725629641515970800,9.946970703125,0.27505457401275635,0.3884255290031433,-0.2919705808162689
1725629641526004500,9.95700439453125,0.19931837916374207,0.2882043421268463,-0.26307645440101624
1725629641536038700,9.96703857421875,0.13981005549430847,0.08471061289310455,-0.1955658495426178
1725629641546072600,9.977072509765625,0.1015305146574974,-0.16508595645427704,-0.09564526379108429
1725629641556106500,9.9871064453125,0.04036569222807884,-0.3777494728565216,0.0653018057346344
1725629641566140700,9.997140625,-0.0776991993188858,-0.44311684370040894,0.25866633653640747
1725629641576174600,10.007174560546876,-0.2399943768978119,-0.37855997681617737,0.41527244448661804
1725629641586208500,10.01720849609375,-0.3648533523082733,-0.40928977727890015,0.5117964148521423
1725629641596242700,10.02724267578125,-0.4518361985683441,-0.46583670377731323,0.557175874710083
1725629641606276600,10.037276611328124,-0.5240728259086609,-0.38400059938430786,0.5830968022346497
1725629641616310500,10.047310546875,-0.5819619297981262,-0.28219035267829895,0.6114290952682495
1725629641626344700,10.0573447265625,-0.5882960557937622,-0.3096069395542145,0.6512728929519653
1725629641636379400,10.06737939453125,-0.5613070726394653,-0.3535158038139343,0.6952499747276306
1725629641646412500,10.07741259765625,-0.5477643609046936,-0.3372134864330292,0.7478558421134949
1725629641656447700,10.08744775390625,-0.5099173784255981,-0.34959107637405396,0.7967631816864014
1725629641666482200,10.097482177734374,-0.46439599990844727,-0.40151578187942505,0.8091093897819519
1725629641676516000,10.10751611328125,-0.45574951171875,-0.41914963722229004,0.754331648349762
1725629641686550000,10.117550048828125,-0.45763230323791504,-0.44593918323516846,0.6687910556793213
1725629641696584000,10.127583984375,-0.46947965025901794,-0.42884862422943115,0.5546607375144958
1725629641706618000,10.1376181640625,-0.4981304109096527,-0.38715672492980957,0.42276063561439514
1725629641716652000,10.147652099609376,-0.5505869388580322,-0.3436284363269806,0.2623983919620514
1725629641726686000,10.15768603515625,-0.557407557964325,-0.19616574048995972,0.07929649204015732
1725629641736720100,10.16772021484375,-0.5697683691978455,-0.12664471566677094,-0.053348638117313385
1725629641746754000,10.177754150390625,-0.6137894988059998,-0.10217859596014023,-0.1333325207233429
1725629641756788000,10.1877880859375,-0.6645682454109192,-0.051088783890008926,-0.19419613480567932
1725629641766822100,10.197822265625,-0.6882303953170776,-0.11486061662435532,-0.2135823369026184
1725629641776856000,10.20785595703125,-0.6735070943832397,-0.15806640684604645,-0.1670108437538147
1725629641786890000,10.217889892578125,-0.6562862992286682,-0.05091645196080208,-0.11279027163982391
1725629641796924200,10.227924072265624,-0.6534779667854309,0.1445196270942688,-0.08087281882762909
1725629641806958000,10.2379580078125,-0.6545799374580383,0.3481084704399109,-0.08388497680425644
1725629641816992000,10.247991943359375,-0.663049042224884,0.4479767382144928,-0.11981288343667984
1725629641827026200,10.258026123046875,-0.6823925375938416,0.5103674530982971,-0.14024855196475983
1725629641837060000,10.26806005859375,-0.7130228877067566,0.5483289957046509,-0.1719774603843689
1725629641847094000,10.278093994140624,-0.7460384368896484,0.421895831823349,-0.21384882926940918
1725629641857129200,10.288129150390626,-0.8016923666000366,0.19869364798069,-0.257542222738266
1725629641867163100,10.2981630859375,-0.8958110213279724,-0.04068361222743988,-0.3033726215362549
1725629641877197000,10.308197021484375,-1.0213087797164917,-0.09147302061319351,-0.3159286379814148
1725629641887231200,10.318231201171875,-1.1610172986984253,-0.06303467601537704,-0.337814062833786
1725629641897265200,10.32826513671875,-1.2723872661590576,0.0014026371063664556,-0.3765486776828766
1725629641907299000,10.338299072265626,-1.3804932832717896,-0.006032958161085844,-0.3794144093990326
1725629641917333200,10.348333251953125,-1.4663664102554321,-0.024303043261170387,-0.3011923134326935
1725629641927367200,10.3583671875,-1.5590832233428955,-0.021522002294659615,-0.09719417989253998
1725629641937401000,10.368401123046874,-1.6066848039627075,-0.16285410523414612,0.16743668913841248
1725629641947435300,10.378435302734376,-1.5376356840133667,-0.2781718969345093,0.37631532549858093
1725629641957469000,10.388468994140625,-1.4450767040252686,-0.2836689352989197,0.4483641982078552
1725629641967503000,10.398503173828125,-1.3380759954452515,-0.29450854659080505,0.42513352632522583
1725629641977537300,10.408537353515625,-1.237991213798523,-0.2403840720653534,0.34136059880256653
1725629641987571000,10.418571044921874,-1.11399245262146,0.08828712999820709,0.26749783754348755
1725629641997605000,10.428605224609376,-1.0119330883026123,0.4321606159210205,0.27139297127723694
1725629642007639300,10.438639404296875,-0.9051499962806702,0.6399356722831726,0.38354992866516113
1725629642017673000,10.4486728515625,-0.8237276077270508,0.702223539352417,0.5191982984542847
1725629642027707100,10.45870703125,-0.7742637395858765,0.6977707743644714,0.6235101222991943
1725629642037741300,10.4687412109375,-0.7205075621604919,0.6445469856262207,0.6701311469078064
1725629642047775000,10.47877490234375,-0.6171280145645142,0.562630832195282,0.6293068528175354
1725629642057810200,10.48881005859375,-0.480865478515625,0.4769555926322937,0.5302327275276184
1725629642067844000,10.498843994140625,-0.3011404573917389,0.3512016534805298,0.39199623465538025
1725629642077878000,10.5088779296875,-0.0801287293434143,0.19997459650039673,0.21225684881210327
1725629642087912200,10.518912109375,0.09887027740478516,0.08117648959159851,0.016113825142383575
1725629642097946000,10.528946044921875,0.12659165263175964,0.012127644382417202,-0.11090004444122314
1725629642107980000,10.53897998046875,0.1315218061208725,-0.06689859181642532,-0.20673787593841553
1725629642118014200,10.54901416015625,0.1815122663974762,-0.1722812056541443,-0.2970941364765167
1725629642128048000,10.559048095703124,0.28232908248901367,-0.28188154101371765,-0.39612412452697754
1725629642138082000,10.56908203125,0.3751985728740692,-0.38773205876350403,-0.4897313117980957
1725629642148116200,10.5791162109375,0.46398743987083435,-0.4592743217945099,-0.5681890845298767
1725629642158150100,10.589150146484375,0.5293048620223999,-0.4643351137638092,-0.6381463408470154
1725629642168184000,10.59918408203125,0.6804431080818176,-0.47611290216445923,-0.7240344882011414
1725629642178218200,10.60921826171875,0.8389430046081543,-0.5091827511787415,-0.7855910658836365
1725629642188252200,10.619252197265626,1.021581768989563,-0.6323975920677185,-0.8212753534317017
1725629642198286000,10.6292861328125,1.1956108808517456,-0.7583778500556946,-0.8351368308067322
1725629642208320300,10.6393203125,1.332288146018982,-0.8199164867401123,-0.8337650895118713
1725629642218354000,10.64935400390625,1.4281134605407715,-0.823682427406311,-0.8427780270576477
1725629642228388000,10.65938818359375,1.495840072631836,-0.7410663366317749,-0.8618680834770203
1725629642238422300,10.66942236328125,1.5483709573745728,-0.4893187880516052,-0.8718818426132202
1725629642248456000,10.6794560546875,1.5839532613754272,-0.14852820336818695,-0.7831370830535889
1725629642258491100,10.6894912109375,1.6175205707550049,0.24677731096744537,-0.5364633798599243
1725629642268525000,10.699525146484374,1.6534744501113892,0.5195499062538147,-0.20495381951332092
1725629642278559200,10.709559326171876,1.6927711963653564,0.5721694827079773,0.08459198474884033
1725629642288593200,10.71959326171875,1.6713206768035889,0.5467843413352966,0.27799534797668457
1725629642298627000,10.729626953125,1.6129406690597534,0.39101898670196533,0.3583778142929077
1725629642308661000,10.739660888671875,1.4857227802276611,0.1654404252767563,0.3569650650024414
1725629642318695200,10.749695068359374,1.2939873933792114,0.009690777398645878,0.28136056661605835
1725629642328729000,10.75972900390625,1.0732486248016357,-0.006910861469805241,0.15082472562789917
1725629642338763000,10.769762939453125,0.8741725087165833,0.018669866025447845,0.02328248880803585
1725629642348797200,10.779797119140625,0.6779396533966064,0.07376399636268616,-0.08472206443548203
1725629642358831000,10.7898310546875,0.5094907283782959,0.1404506117105484,-0.18857122957706451
1725629642368865000,10.799864990234376,0.42342475056648254,0.17861883342266083,-0.2901633083820343
1725629642378899200,10.809899169921875,0.4147540330886841,0.15224021673202515,-0.3647336959838867
1725629642388933000,10.81993310546875,0.4505816102027893,0.10144759714603424,-0.4090285003185272
1725629642398967000,10.829967041015625,0.49522337317466736,0.04437445476651192,-0.4212481677532196
1725629642409001200,10.840001220703124,0.5214434266090393,0.05645199120044708,-0.40884873270988464
1725629642419035100,10.85003515625,0.49479207396507263,0.17491339147090912,-0.3762449622154236
1725629642429069000,10.860069091796875,0.41699329018592834,0.31313472986221313,-0.3189467489719391
1725629642439103200,10.870103271484375,0.3723651170730591,0.391292929649353,-0.20791850984096527
1725629642449137200,10.88013720703125,0.4027382433414459,0.3219887316226959,-0.09973914921283722
1725629642459171000,10.890171142578126,0.4837939441204071,0.226248636841774,-0.02682526409626007
1725629642469206000,10.9002060546875,0.5793234705924988,0.12915658950805664,-0.010032091289758682
1725629642479240200,10.910240234375,0.6803779006004333,0.0031046546064317226,-0.03614412248134613
1725629642489274000,10.920274169921875,0.7919678092002869,-0.16998997330665588,-0.06636346876621246
1725629642499308000,10.93030810546875,0.8720181584358215,-0.32101649045944214,-0.09612562507390976
1725629642509342200,10.94034228515625,0.9008482098579407,-0.39049190282821655,-0.12389101088047028
1725629642519376100,10.950376220703125,0.839919924736023,-0.3219647705554962,-0.1448088139295578
1725629642529410000,10.96041015625,0.7344070672988892,-0.11978721618652344,-0.2113441526889801
1725629642539444200,10.9704443359375,0.6017286777496338,0.14399515092372894,-0.3190605044364929
1725629642549478100,10.98047802734375,0.4729743003845215,0.3909560739994049,-0.44219815731048584
1725629642559512000,10.990511962890626,0.49093198776245117,0.5068919658660889,-0.5847595930099487
1725629642569546000,11.0005458984375,0.544916570186615,0.5539153814315796,-0.7385066151618958
1725629642579580200,11.010580078125,0.5470662713050842,0.5133584141731262,-0.789591908454895
1725629642589614000,11.020614013671874,0.4374438524246216,0.37848547101020813,-0.6972688436508179
1725629642599648000,11.03064794921875,0.27860867977142334,0.18607072532176971,-0.530785322189331
1725629642609682200,11.04068212890625,0.12964461743831635,-0.03314993903040886,-0.330748587846756
1725629642619716000,11.050716064453125,-0.02830452471971512,-0.10464276373386383,-0.17113284766674042
1725629642629750000,11.06075,-0.18410053849220276,-0.0332937091588974,-0.08224612474441528
1725629642639784200,11.0707841796875,-0.27382031083106995,0.04259280115365982,-0.022083718329668045
1725629642649818000,11.080818115234376,-0.3308788537979126,0.08132922649383545,0.06626942753791809
1725629642659852000,11.09085205078125,-0.4246218502521515,0.09803816676139832,0.16640721261501312
1725629642669885200,11.10088525390625,-0.4954637885093689,0.020932819694280624,0.25245168805122375
1725629642679920000,11.110920166015624,-0.5205419659614563,-0.07091215252876282,0.30753040313720703
1725629642689954300,11.120954345703124,-0.5400699377059937,-0.1548197716474533,0.3460139036178589
1725629642699988500,11.130988525390626,-0.5433411002159119,-0.2574167251586914,0.40525856614112854
1725629642710022100,11.141022216796875,-0.4794471561908722,-0.296442449092865,0.462310254573822
1725629642720056300,11.151056396484375,-0.35995593667030334,-0.31461000442504883,0.48104721307754517
1725629642730090200,11.16109033203125,-0.25781920552253723,-0.38752952218055725,0.44758090376853943
1725629642740124200,11.171124267578126,-0.23821701109409332,-0.5191267132759094,0.35473912954330444
1725629642750158300,11.181158447265625,-0.28943273425102234,-0.6349893808364868,0.22422148287296295
1725629642760192300,11.191192138671875,-0.3392881751060486,-0.6840314865112305,0.06996454298496246
1725629642770226200,11.20122607421875,-0.34916040301322937,-0.6453980207443237,-0.046878036111593246
1725629642780260400,11.21126025390625,-0.32469555735588074,-0.4356120228767395,-0.0977710410952568
1725629642790294300,11.221294189453126,-0.29473263025283813,-0.11091520637273788,-0.12606094777584076
1725629642800328200,11.231328125,-0.29671934247016907,0.1834397166967392,-0.13941484689712524
1725629642810362400,11.2413623046875,-0.3495623767375946,0.31764328479766846,-0.13312487304210663
1725629642820396300,11.251396240234374,-0.4045039117336273,0.26868265867233276,-0.07748290151357651
1725629642830430200,11.26143017578125,-0.4255888760089874,0.16239209473133087,-0.014442401938140392
1725629642840464400,11.27146435546875,-0.41355058550834656,0.049478329718112946,0.047910984605550766
1725629642850498300,11.281498291015625,-0.3889347314834595,0.00013687805039808154,0.08143512904644012
1725629642860532200,11.2915322265625,-0.39371058344841003,0.010787124745547771,0.08345833420753479
1725629642870566400,11.30156640625,-0.4515244960784912,0.02413620986044407,0.011983178555965424
1725629642880600300,11.311600341796876,-0.5579164624214172,0.06928957253694534,-0.09259170293807983
1725629642890635300,11.32163525390625,-0.6670415997505188,0.0850558653473854,-0.2029062807559967
1725629642900669400,11.33166943359375,-0.8125261068344116,0.08143822848796844,-0.317045122385025
1725629642910703000,11.341703125,-0.9862534999847412,0.075132355093956,-0.37209540605545044
1725629642920737300,11.3517373046875,-1.1280517578125,-0.03429346904158592,-0.3848484754562378
1725629642930771500,11.361771484375,-1.2228997945785522,-0.14702029526233673,-0.3428986966609955
1725629642940805000,11.37180517578125,-1.2999416589736938,-0.1867767721414566,-0.20608945190906525
1725629642950839300,11.38183935546875,-1.3895795345306396,-0.11569667607545853,0.03886426240205765
1725629642960873500,11.39187353515625,-1.4487591981887817,0.08398234844207764,0.26490509510040283
1725629642970907100,11.4019072265625,-1.4113245010375977,0.3253190815448761,0.3681737184524536
1725629642980941300,11.41194140625,-1.3183634281158447,0.5465640425682068,0.30915191769599915
1725629642990975200,11.421975341796875,-1.1678228378295898,0.9238419532775879,0.1881374567747116
1725629643001009200,11.432009033203125,-1.103155493736267,1.2334682941436768,0.09753032773733139
1725629643011043300,11.442043212890624,-1.1256283521652222,1.3093037605285645,0.14309819042682648
1725629643021077200,11.4520771484375,-1.1767388582229614,1.1508121490478516,0.28967753052711487
1725629643031111200,11.462111083984375,-1.1333686113357544,0.9963957071304321,0.4723688066005707
1725629643041145300,11.472145263671875,-1.0033602714538574,0.9261268973350525,0.5814508199691772
1725629643051179300,11.48217919921875,-0.8497332334518433,0.933109700679779,0.6444485783576965
1725629643061213200,11.492213134765626,-0.6754695773124695,0.9509835243225098,0.6914834380149841
1725629643071247400,11.502247314453125,-0.5180428624153137,0.9935036301612854,0.7171604633331299
1725629643081281300,11.51228125,-0.40359702706336975,1.0206687450408936,0.730299711227417
1725629643091316200,11.522316162109375,-0.31141355633735657,0.911391019821167,0.7138682007789612
1725629643101350400,11.532350341796874,-0.21678823232650757,0.7466561198234558,0.6509696841239929
1725629643111384000,11.542384033203126,-0.13223204016685486,0.4707063138484955,0.5235298871994019
1725629643121418200,11.552418212890625,-0.03343756124377251,0.19102352857589722,0.37285831570625305
1725629643131452400,11.562452392578125,0.029271548613905907,0.028803544119000435,0.27134501934051514
1725629643141486000,11.572486083984375,0.08841902017593384,-0.000716000038664788,0.19943858683109283
1725629643151520300,11.582520263671874,0.161796435713768,-0.04439886659383774,0.1515703648328781
1725629643161554400,11.592554443359376,0.23626507818698883,-0.11501550674438477,0.055372994393110275
1725629643171588000,11.602588134765625,0.28718602657318115,-0.23350483179092407,-0.10440202802419662
1725629643181622300,11.612622314453125,0.3305968940258026,-0.43556657433509827,-0.2969541847705841
1725629643191656400,11.622656494140625,0.4182952642440796,-0.6613262295722961,-0.4932346045970917
1725629643201690000,11.632690185546876,0.4911002218723297,-0.8965153098106384,-0.7295445799827576
1725629643211724300,11.642724365234375,0.5750648379325867,-1.023628830909729,-0.9338054656982422
1725629643221758500,11.652758544921875,0.7050817012786865,-1.091673731803894,-1.0665509700775146
1725629643231792000,11.662792236328125,0.8334082365036011,-1.0899990797042847,-1.1510893106460571
1725629643241826300,11.672826416015624,0.9869152307510376,-1.0936611890792847,-1.2090694904327393
1725629643251860200,11.682860107421876,1.1470310688018799,-1.1516926288604736,-1.2472108602523804
1725629643261894100,11.69289404296875,1.32879638671875,-1.1664170026779175,-1.2428299188613892
1725629643271928300,11.70292822265625,1.5479310750961304,-1.0938467979431152,-1.2029576301574707
1725629643281962200,11.712962158203124,1.7885775566101074,-0.8693966269493103,-1.109684705734253
1725629643291996200,11.72299609375,1.9332265853881836,-0.41284096240997314,-0.8610988855361938
1725629643302030300,11.7330302734375,1.9219834804534912,0.23479053378105164,-0.4160878658294678
1725629643312065300,11.743065185546875,1.831498146057129,0.783263087272644,0.13614130020141602
1725629643322099200,11.75309912109375,1.7383551597595215,1.0825594663619995,0.6670417189598083
1725629643332133400,11.76313330078125,1.6535770893096924,1.1938230991363525,1.0400131940841675
1725629643342167300,11.773167236328124,1.5395243167877197,1.2462128400802612,1.1928564310073853
1725629643352201200,11.783201171875,1.333725094795227,1.2933558225631714,1.1186230182647705
1725629643362235400,11.7932353515625,1.082993507385254,1.2910131216049194,0.8570979833602905
1725629643372269000,11.80326904296875,0.8004246354103088,1.2309561967849731,0.48713427782058716
1725629643382303200,11.81330322265625,0.5487639307975769,1.0622036457061768,0.11511170119047165
1725629643392337400,11.82333740234375,0.3554207682609558,0.7574302554130554,-0.20674097537994385
1725629643402371000,11.83337109375,0.2381463497877121,0.3661911189556122,-0.42619290947914124
1725629643412405200,11.8434052734375,0.23588861525058746,-0.09496036171913147,-0.5236735939979553
1725629643422439400,11.853439453125,0.27517157793045044,-0.47769203782081604,-0.5632295608520508
1725629643432473000,11.86347314453125,0.34393370151519775,-0.7062081694602966,-0.584648847579956
1725629643442507300,11.87350732421875,0.4529166519641876,-0.8240053653717041,-0.6203996539115906
1725629643452541400,11.88354150390625,0.551242470741272,-0.8486226797103882,-0.5891672968864441
1725629643462575000,11.8935751953125,0.604226291179657,-0.7075645923614502,-0.4492397606372833
1725629643472609300,11.903609375,0.5854448080062866,-0.42464426159858704,-0.2150285542011261
1725629643482643500,11.9136435546875,0.5396935939788818,-0.1156051829457283,0.04622488468885422
1725629643492677000,11.923677001953125,0.5114138126373291,0.16946998238563538,0.2486564964056015
1725629643502711300,11.933711181640625,0.5235413312911987,0.3885674476623535,0.29031315445899963
1725629643512745200,11.9437451171875,0.5863816142082214,0.5094766616821289,0.17655383050441742
1725629643522779100,11.953779052734374,0.6105710864067078,0.4879245460033417,-0.003728589043021202
1725629643532813300,11.963813232421876,0.5876666903495789,0.502970814704895,-0.22877955436706543
1725629643542847200,11.97384716796875,0.4727397859096527,0.5275285840034485,-0.44457390904426575
1725629643552881200,11.983881103515625,0.3697147071361542,0.5572685599327087,-0.6243510842323303
1725629643562915300,11.993915283203124,0.5973249077796936,0.6664115190505981,-0.7720473408699036
1725629643572949200,12.00394921875,0.8933241367340088,0.8418316841125488,-0.9230818748474121
1725629643582984200,12.013984130859376,0.9451287388801575,0.8719661235809326,-0.8915500640869141
1725629643593018400,12.024018310546875,0.8466299772262573,0.8832453489303589,-0.7298310399055481
1725629643603052300,12.03405224609375,0.7106865644454956,0.8815451860427856,-0.5990575551986694
1725629643613086200,12.044086181640624,0.5876021981239319,0.7523486018180847,-0.5378952026367188
1725629643623120400,12.054120361328126,0.4189288020133972,0.494266152381897,-0.48315051198005676
1725629643633154000,12.064154052734375,0.17456161975860596,0.1561351716518402,-0.33080825209617615
1725629643643188200,12.074188232421875,-0.027073774486780167,-0.18809330463409424,-0.07630085200071335
1725629643653222400,12.084222412109375,-0.18376903235912323,-0.5134090781211853,0.24797004461288452
1725629643663256000,12.094256103515624,-0.3944852650165558,-0.6347965002059937,0.5993794798851013
1725629643673290500,12.10429052734375,-0.5686711668968201,-0.7044541239738464,0.7750647664070129
1725629643683324700,12.11432470703125,-0.6556220650672913,-0.737514078617096,0.7514877915382385
1725629643693358300,12.1243583984375,-0.7008966207504272,-0.7212772965431213,0.6119829416275024
1725629643703392500,12.134392578125,-0.7926089763641357,-0.7203689217567444,0.48849427700042725
1725629643713426700,12.1444267578125,-0.934055507183075,-0.755351185798645,0.4331282675266266
1725629643723460400,12.15446044921875,-1.0375683307647705,-0.7993596792221069,0.4113239049911499
1725629643733494500,12.16449462890625,-1.056530237197876,-0.8562427163124084,0.43270787596702576
1725629643743528700,12.17452880859375,-0.9837938547134399,-0.8744542002677917,0.4784330129623413
1725629643753562400,12.184562255859374,-0.8487650156021118,-0.8788480758666992,0.5587904453277588
1725629643763596500,12.194596435546876,-0.6904951930046082,-0.805640697479248,0.6368697881698608
1725629643773630700,12.204630615234375,-0.5477712750434875,-0.6948931217193604,0.6661192178726196
1725629643783664400,12.214664306640625,-0.4196873605251312,-0.6125966906547546,0.6373909115791321
1725629643793699600,12.224699462890625,-0.32693666219711304,-0.5241294503211975,0.5886452794075012
1725629643803733500,12.2347333984375,-0.2989729344844818,-0.3479461371898651,0.5098215341567993
1725629643813767400,12.244767333984376,-0.34461453557014465,-0.13118159770965576,0.4204602837562561
1725629643823801600,12.254801513671875,-0.42278096079826355,0.08161374926567078,0.30854013562202454
1725629643833835500,12.26483544921875,-0.5101629495620728,0.17681990563869476,0.20314422249794006
1725629643843869400,12.274869384765625,-0.5744903087615967,0.15674366056919098,0.13081490993499756
1725629643853903600,12.284903564453124,-0.5929374694824219,0.09069894999265671,0.13302360475063324
1725629643863937500,12.2949375,-0.5791763663291931,0.03429586440324783,0.19044241309165955
1725629643873971500,12.304971435546875,-0.5483623743057251,0.07799769937992096,0.24372026324272156
1725629643884005600,12.315005615234375,-0.5538657903671265,0.16165052354335785,0.24495622515678406
1725629643894040600,12.32504052734375,-0.6504626274108887,0.18193493783473969,0.2185714989900589
1725629643904074500,12.335074462890624,-0.7340022921562195,0.14698706567287445,0.18087232112884521
1725629643914108400,12.3451083984375,-0.814635694026947,0.013167417608201504,0.18873655796051025
1725629643924142600,12.355142578125,-0.955109715461731,-0.15555742383003235,0.24231348931789398
1725629643934176500,12.365176513671875,-1.1103971004486084,-0.408671498298645,0.2554558217525482
1725629643944210400,12.37521044921875,-1.210612416267395,-0.6287562251091003,0.21621017158031464
1725629643954244600,12.38524462890625,-1.3079586029052734,-0.6780864596366882,0.1544298231601715
1725629643964278500,12.395278564453125,-1.4586213827133179,-0.5774767994880676,0.16098307073116302
1725629643974312400,12.4053125,-1.6213265657424927,-0.5795417428016663,0.24408076703548431
1725629643984346600,12.4153466796875,-1.7332313060760498,-0.5471771359443665,0.421866238117218
1725629643994380500,12.425380615234374,-1.7846983671188354,-0.3435261845588684,0.6269427537918091
1725629644004414500,12.43541455078125,-1.774953842163086,-0.10405313968658447,0.7114334106445312
1725629644014448400,12.445448486328125,-1.7103533744812012,0.14690053462982178,0.6819459199905396
1725629644024482600,12.455482666015625,-1.633557677268982,0.4002915322780609,0.5838984251022339
1725629644034516500,12.4655166015625,-1.5105308294296265,0.6290441751480103,0.4935843050479889
1725629644044550400,12.47555029296875,-1.3794533014297485,0.7712649703025818,0.4251205623149872
1725629644054584600,12.48558447265625,-1.2657721042633057,0.7928403615951538,0.38579806685447693
1725629644064618500,12.495618408203125,-1.1441575288772583,0.7592403292655945,0.36181068420410156
1725629644074652400,12.50565234375,-1.036965250968933,0.641447901725769,0.3428880274295807
