time,seconds_elapsed,z,y,x
1725629101829793500,0.02479345703125,0.9472802660793066,-0.27922961383461953,-1.8642809830985962
1725629101839746600,0.03474658203125,1.1214636975526808,-0.3640530923783779,-0.5887636189095675
1725629101849699600,0.044699462890625,0.6543143878370523,-1.0902017133265733,0.536590546743013
1725629101859653400,0.0546533203125,-0.6456564496070146,-1.5369219829976557,1.2234274767939
1725629101869606400,0.0646064453125,-1.4730664736807346,-0.640002953889966,1.0914098470073192
1725629101879559200,0.07455908203125,-1.3219792556345462,0.7290285602986812,-0.2882831272535026
1725629101889512200,0.08451220703125,-1.7457570411354302,1.2921890975266694,-1.6547896530091761
1725629101899465200,0.09446533203125,-1.7381939124047756,1.207007307064533,-3.0964778226077554
1725629101909418200,0.104418212890625,-1.2878197964012623,0.21064415338635442,-2.932792988795042
1725629101919371300,0.114371337890625,-0.7395259889155625,-0.5418687428742647,-1.4855840099483728
1725629101929324300,0.12432421875,-1.6053051988720892,0.8957973316013812,-1.4711971726775168
1725629101939277300,0.13427734375,-1.8831109173834322,2.0062550664931535,-2.1269895241126417
1725629101949230300,0.144230224609375,-1.7307278143078089,1.7367951515227555,-2.4272357686214145
1725629101959183400,0.154183349609375,-0.24426585248112678,2.470298811408877,-1.4223042546927929
1725629101969136400,0.164136474609375,1.3649199872165918,4.356035401120781,-0.39770051043629645
1725629101979089400,0.17408935546875,1.953328947469592,4.155098987278342,-0.5090667991971597
1725629101989042200,0.184042236328125,2.3000176480710506,5.414214667242765,0.22839818380167706
1725629101998995200,0.1939951171875,1.062208375507593,3.6388083377748726,-1.1822703406929969
1725629102008948200,0.2039482421875,1.6699404603898524,0.1441921978354454,-3.426928505113721
1725629102018901200,0.2139013671875,4.640394194537401,2.002179779878259,-1.599183208860457
1725629102028854300,0.223854248046875,6.428130428746342,5.889807980176806,4.184049479691684
1725629102038807300,0.233807373046875,5.009339735132455,9.552928921431302,3.655866440081596
1725629102048760300,0.24376025390625,2.1266110461890695,10.008279656803607,0.6039652796946465
1725629102058713300,0.25371337890625,0.6836006880760193,8.970486760628223,-0.502778695371002
1725629102068666400,0.263666259765625,1.3988450531721115,9.01409676977396,0.014031886353343724
1725629102078620400,0.273620361328125,2.383378652846813,9.928859498608112,1.1210448876187205
1725629102088573400,0.283573486328125,2.8272382723897693,10.78020043336749,1.5244883256211876
1725629102098526700,0.293526611328125,3.309470000424981,10.691045647621154,3.009990210244059
1725629102108479700,0.303479736328125,4.032383877235651,11.21579432886839,4.582335973322391
1725629102118432800,0.313432861328125,3.570904429849982,11.547940709376334,5.138785030212998
1725629102128385800,0.3233857421875,4.440736714589596,11.13197739701867,4.398891084767878
1725629102138338800,0.3333388671875,3.5126714365899563,10.67040501065254,3.3590833416387436
1725629102148291600,0.34329150390625,2.026063928812742,10.84314525758028,3.5841748303115364
1725629102158244600,0.35324462890625,0.7081266420453787,11.885562890946865,3.65962725391984
1725629102168197600,0.36319775390625,-0.378926251861453,11.573919200241566,2.2952380125790834
1725629102178150700,0.373150634765625,-0.4789174889206886,10.025310286581515,0.409171167999506
1725629102188103700,0.383103759765625,-1.0497919615268707,8.665800049453972,-0.6542331392943859
1725629102198056700,0.393056640625,-1.073137181279063,7.9832222746849055,-1.425856978738308
1725629102208009700,0.403009765625,0.1824608459532261,6.918064401721954,-2.4196949978530404
1725629102217962800,0.412962646484375,1.6238766283512114,6.144883395963907,-4.425648451051115
1725629102227915800,0.422915771484375,1.9931445327684283,5.341632246112823,-7.423716752833127
1725629102237868800,0.432868896484375,0.18012509648203848,2.160575128980726,-11.0420650709033
1725629102247821800,0.44282177734375,-0.3434244381085038,-0.14188001190293578,-14.472656774699686
1725629102257774600,0.452774658203125,0.49727235303968187,-0.13367116914726793,-15.469961008620261
1725629102267727600,0.4627275390625,0.49330344940870996,-3.4319106774404644,-15.849404562354087
1725629102277681700,0.472681640625,1.6217992375552652,-8.33381675055325,-20.609182676684856
1725629102287634700,0.482634765625,4.699223984646797,-9.38564109469056,-22.703807516026494
1725629102297587700,0.492587646484375,6.304982187983393,-9.959675492632389,-17.39181286780834
1725629102307540700,0.502540771484375,3.9591123047977685,-6.393899073320627,-14.502344641476869
1725629102317493800,0.51249365234375,-0.785339061063528,-7.7754235738575455,-14.337255786085128
1725629102327446800,0.52244677734375,0.05905906882062554,-16.742745732975006,-21.37119113104343
1725629102337399800,0.53239990234375,1.9485253465801475,-9.38096141244173,-16.75512006137967
1725629102347352800,0.542352783203125,-3.2235598956882954,8.755175784474611,6.793007112467288
1725629102357305900,0.552305908203125,-8.318264961156249,9.638249243581294,9.390991223546862
1725629102367259000,0.5622587890625,-9.519664949733018,-4.328686790946126,-6.105158119297027
1725629102377211600,0.572211669921875,-7.196188100141287,-9.194846135634183,-13.927021957290172
1725629102387164700,0.58216455078125,-4.986350489211082,7.805200872483849,-7.019070953303575
1725629102397117700,0.59211767578125,-7.10147684931159,11.605198135602473,12.556931873959302
1725629102407070700,0.60207080078125,-16.02456356086135,14.108567441964148,10.841786828708647
1725629102417023700,0.612023681640625,-20.172247887969014,5.6242176001161335,9.35518925780356
1725629102426976800,0.621976806640625,-17.26857694876194,9.118868811368941,4.618121572452783
1725629102436929800,0.6319296875,-11.13438679624796,11.094888314074277,-0.13835223963558674
1725629102446882800,0.6418828125,-7.138583467912674,6.919187268272042,-0.9271744666397571
1725629102456835800,0.6518359375,-4.471437557801604,4.5640416072189804,-2.4496634351372717
1725629102466788900,0.661788818359375,2.4057915601849555,3.195403476262092,-9.894491949582099
1725629102476742000,0.671741943359375,9.738859489321708,1.193446983745694,-13.121373098647593
1725629102486695700,0.68169580078125,3.261833804503083,-0.7660007388651371,-8.522401047822832
1725629102496648700,0.691648681640625,-6.0719450010031455,-3.58295668669343,-14.62882699509859
1725629102506601500,0.7016015625,-11.256536673623323,3.5824867310941215,-0.09289777166694402
1725629102516554500,0.711554443359375,-3.0977535416319966,3.381875311422348,-5.920675412127375
1725629102526507500,0.721507568359375,-4.293385760462284,-0.23490707250535486,-8.406770343083142
1725629102536460500,0.73146044921875,-1.2279969036012888,-1.1437760671257973,-7.616490903007984
1725629102546413600,0.74141357421875,1.2035253101676702,-0.5414291824132204,-3.196674811372161
1725629102556366600,0.75136669921875,0.4079670529067516,1.6634394079327581,0.22979338275343178
1725629102566319600,0.761319580078125,-2.862698292827606,2.435703298845887,1.5105929251290857
1725629102576272600,0.771272705078125,-4.527210298427939,1.3957733906418084,0.468303886578232
1725629102586225700,0.7812255859375,-3.5556457781806587,-2.1338684699714183,-2.130652430534363
1725629102596178700,0.7911787109375,-2.4766712690502404,-4.611930316597223,-2.2786070496432482
1725629102606131700,0.801131591796875,-16.775200726377964,-1.9798177259445189,0.2259424977452494
1725629102616084500,0.81108447265625,-15.934267788386345,-2.967123712942004,-5.1767742768675085
1725629102626037500,0.82103759765625,-1.9331471601843833,-8.536825294494628,-6.926589653483033
1725629102635990500,0.830990478515625,9.336900736919045,-12.940062591773271,-10.175517214661836
1725629102645943600,0.840943603515625,13.752394873702526,-18.05342851856947,-13.644441863983868
1725629102655896600,0.850896484375,3.46001478215754,-12.549204494577646,-12.545609684956073
1725629102665849600,0.860849609375,4.368915925481915,-11.15079549473524,-11.529030257201194
1725629102675802600,0.870802734375,4.644470650196075,-9.912921924763918,-10.117255579829216
1725629102685756700,0.880756591796875,1.3571718573078513,-6.5428498638600106,-4.56851962941587
1725629102695709700,0.890709716796875,3.654620531673729,-6.1539230269879095,-1.4093728769272564
1725629102705662700,0.900662841796875,5.053098212838172,-7.582071916055679,-1.2354822909206151
1725629102715615700,0.91061572265625,5.418963323074579,-8.863725591042638,-1.3961213272966444
1725629102725568800,0.92056884765625,4.762173777295649,-8.038844793185591,-1.0126296672157942
1725629102735521800,0.930521728515625,2.9374688716515895,-3.80854706479907,2.343816457787156
1725629102745474600,0.940474609375,-2.0383535015434027,-0.7319125913023948,1.3645067302405833
1725629102755427600,0.950427490234375,-4.815829964159429,2.073983617851138,3.042445495907962
1725629102765380600,0.960380615234375,-2.758859148168564,3.151451521810889,2.483966102233529
1725629102775333600,0.970333740234375,-4.553483096064627,4.001401878994703,0.5055909032475203
1725629102785286700,0.98028662109375,-4.295362028971314,3.9966023697584867,-1.0115303276717662
1725629102795239700,0.99023974609375,-1.351527129419148,2.8077953207731245,-2.2057165854774414
1725629102805192700,1.000192626953125,6.527537143915891,-1.6954092481672762,-1.3904025112584233
1725629102815145700,1.010145751953125,0.4739145660668611,1.0557172599226237,-2.8044395806044338
1725629102825098800,1.0200986328125,-0.08492313952594994,2.286872335293889,-0.4416043879620731
1725629102835051800,1.0300517578125,-0.7666431284219026,3.239979115569591,0.09941000310517847
1725629102845004800,1.0400048828125,-2.7544994916543364,3.071834379738569,-0.9533458497285843
1725629102854957600,1.04995751953125,-2.7280630278885365,2.4061399352312085,-1.1925615792132913
1725629102864910600,1.05991064453125,-3.12095759934783,2.51505389893651,-1.687958493769914
1725629102874863600,1.069863525390625,-2.610066763061285,2.3166858742773533,-1.3320125738710165
1725629102884816600,1.079816650390625,-1.7156199692860246,1.8545511778533457,-0.9344923884376883
1725629102894769700,1.089769775390625,-0.8701461729943751,1.0459282718360423,-0.5869792197108269
1725629102904723700,1.0997236328125,0.4037760309576988,-0.005585106655955315,-0.23856661792621014
1725629102914676700,1.1096767578125,0.7118196513444185,-0.43225569098889827,0.355154915651679
1725629102924629800,1.119629638671875,0.33907238037884235,-0.9616355391681194,0.4847212067633867
1725629102934582800,1.129582763671875,-0.00858428847193718,-0.8668126446574926,0.3309159619301557
1725629102944535800,1.139535888671875,-0.41588878581672906,-0.9835101018458604,0.37263723471984267
1725629102954488800,1.14948876953125,0.48184068289101123,-0.8640700679510831,0.01902121907323599
1725629102964441900,1.15944189453125,4.675196920110285,-3.840511059814691,0.14932780715823174
1725629102974395000,1.169394775390625,0.8940358748868107,-4.48599273737669,-2.22617353644222
1725629102984347600,1.17934765625,-3.695964933975041,-2.643302677708864,-0.211988699863106
1725629102994300700,1.18930078125,1.500908128069341,-5.560006116968393,-1.9216889237113295
1725629103004253700,1.199253662109375,-0.06432166552394628,-4.578381098216772,-2.4710887927427887
1725629103014206700,1.209206787109375,3.936231195425987,-4.26245227753818,-2.337897296871245
1725629103024159700,1.21915966796875,4.348493315178156,-3.3167543122142553,-2.0624396027907728
1725629103034112800,1.22911279296875,2.7131203103005883,-2.520971014025807,-0.6922676863953471
1725629103044065800,1.239065673828125,-0.7130313652217388,5.955844340664148,4.859061495381593
1725629103054018800,1.249018798828125,0.2377804359845817,2.0183143375992776,1.321397656354308
1725629103063971800,1.258971923828125,-1.3018873385898768,6.40066257610619,0.18804302999973296
1725629103073924900,1.2689248046875,-1.1516945851653813,5.927659279665351,0.5892176462873816
1725629103083878000,1.2788779296875,-0.31176117960512634,3.675178458794951,-2.0918623888909815
1725629103093830700,1.28883056640625,-0.4594282870095223,3.933869726991653,-0.5655401258409023
1725629103103784000,1.298783935546875,-0.396533804744482,3.043546442887187,0.07050970650911331
1725629103113737700,1.30873779296875,0.016197101563215254,5.495570177415013,-0.032061317910254
1725629103123690800,1.318690673828125,-0.012140446583554149,4.918630121159553,-0.2236380749940872
1725629103133643800,1.328643798828125,0.1953566409487277,3.807338858053088,-0.25660569409430023
1725629103143596800,1.3385966796875,0.42860425580926237,2.939537202358246,0.80920742790699
1725629103153549600,1.348549560546875,0.03447035181336105,1.232466742491722,-0.21293343336731194
1725629103163502600,1.358502685546875,-0.3290565247338265,0.4425479524224996,1.04962537278831
1725629103173455600,1.36845556640625,-0.875047315974161,-1.5686755501329899,1.4422346975654363
1725629103183408600,1.37840869140625,-0.14994228579476473,-0.20669746158719063,0.8612386439174413
1725629103193361700,1.388361572265625,-0.29308278262019155,0.44703415792584417,0.2798176428556442
1725629103203314700,1.398314697265625,0.3243972276858985,-0.6938520329773425,0.4846621700525284
1725629103213267700,1.408267822265625,-0.7322621353924273,-0.9805015676796436,0.02061404122263193
1725629103223220700,1.418220703125,-0.2820989587258547,-1.855031654846668,-1.183538168671727
1725629103233173800,1.428173828125,-0.0024625176560133695,-0.28473405646979805,-0.4094786265134811
1725629103243126800,1.438126708984375,0.17345161006748674,0.3524760518312454,-0.36578999917358157
1725629103253079800,1.448079833984375,-0.0819989957075566,0.673507748606801,-0.7276739308193325
1725629103263032600,1.458032470703125,-0.2328724979378283,0.009041969111561774,-0.3692956692069769
1725629103272985600,1.467985595703125,-0.22825338676981627,-10.861543668580055,5.690138225269317
1725629103282938600,1.477938720703125,-0.6171797852504998,-18.671644588065146,6.07258972864747
1725629103292891600,1.4878916015625,-1.0357703773718328,-1.0650392150193453,-1.63847301671952
1725629103302844700,1.4978447265625,0.0312923793643713,-1.106552544146776,0.9060963150367141
1725629103312797700,1.507797607421875,0.15662965460419653,-0.3077303166538477,0.20194237601459025
1725629103322751700,1.517751708984375,-0.0021363909741863607,0.43447336703836914,-0.14237754962891339
1725629103332704800,1.527704833984375,-0.5889490584790706,-0.43869186151623724,-1.5279758754760027
1725629103342657800,1.53765771484375,-0.7935556852668524,1.2348323025792836,-1.408290342387557
1725629103352610800,1.54761083984375,0.06342709130439907,2.8019559470951556,-0.8094754311934113
1725629103362563800,1.557563720703125,0.07358721425831317,2.2623943121194836,-0.7384764798626303
1725629103372516900,1.567516845703125,-0.29639994434416295,1.6884452543735504,-0.023045067761838435
1725629103382469600,1.5774697265625,-0.6258183611929417,1.0202373657405377,-0.9825339502900838
1725629103392422700,1.587422607421875,-0.8030711901742964,0.961535585924983,-0.5417383944928645
1725629103402375700,1.597375732421875,-0.42362982839755714,0.9396581006377935,-0.6332879664212465
1725629103412328700,1.60732861328125,0.08846512298174201,1.1108902810901402,-0.32724341089725495
1725629103422281700,1.61728173828125,0.20238091356232762,2.170059142771363,-0.32157617891579865
1725629103432234800,1.62723486328125,0.4549363824177533,4.2391818765878675,-1.4102964215129612
1725629103442187800,1.637187744140625,0.6667710607629269,12.084749246251583,-3.0486291529789566
1725629103452140800,1.647140869140625,-0.1342313237806782,11.535057846927643,-4.299077250102162
1725629103462093800,1.65709375,-0.8555296186208724,1.5519570550441741,-3.6903348191335796
1725629103472046800,1.667046875,0.40485089364759624,-2.911563738283515,-0.8748618033394217
1725629103482000000,1.676999755859375,-0.5054086785484105,-2.8398768046885725,1.6785139352068303
1725629103491952600,1.68695263671875,-1.2367103714108467,0.40391806977689265,-0.43803105951994653
1725629103501905700,1.69690576171875,0.38159569026641543,-0.08244272088706493,-1.2145800804063678
1725629103511858700,1.706858642578125,1.0133522824019192,-2.169270038220286,-0.8544578977361321
1725629103521811700,1.716811767578125,-0.3882622354835272,-2.9017601371496915,-0.14972002134621143
1725629103531764700,1.7267646484375,-1.3356284262806177,-2.3881577038168906,-0.94819708866328
1725629103541718800,1.73671875,-0.9426543598443269,-1.6722826396018267,-1.1603045926004647
1725629103551671800,1.746671875,-0.6329062736272811,-0.9395821127921342,-0.26697452789545056
1725629103561624800,1.756624755859375,-0.47446986186206336,-0.7791226707667112,-0.8527820734784006
1725629103571577900,1.766577880859375,-0.18664828770570455,-1.3354594994544982,-0.6123199971944093
1725629103581531000,1.77653076171875,-0.2878126967301592,-1.0433774183094502,-0.32572803789824245
1725629103591484000,1.78648388671875,-0.20030162307024002,-0.8187947559416293,-0.39833179407715796
1725629103601437000,1.79643701171875,-0.2432757089326158,-0.8244353921771049,-0.45885435957908627
1725629103611390000,1.806389892578125,-0.23672552010416983,-0.8421060734242201,-0.14641571910381315
1725629103621342700,1.8163427734375,-0.26989012308120724,-0.5264841267377138,-0.1385971543073654
1725629103631295700,1.826295654296875,-0.2055558903366327,-0.45469022563695904,-0.4795850129187107
1725629103641248800,1.836248779296875,-0.3975485347449779,-0.4744207620233297,-0.7021203873679042
1725629103651201800,1.846201904296875,-0.42133331495821474,-0.6270581321209668,-0.9157201756894588
1725629103661154800,1.85615478515625,-0.00992225907742977,-0.5612333685576916,-0.7741685554906725
1725629103671107800,1.86610791015625,0.2683235678842291,-0.00805704972743988,-0.882407104152441
1725629103681060900,1.876060791015625,0.36514381022453307,0.552274986076355,-1.354106039996445
1725629103691014000,1.886013916015625,0.031568839951884,0.7177203998208046,-1.5086176795333623
1725629103700967000,1.895966796875,0.02826689406335354,1.1181243239969014,-1.6356901080027222
1725629103710920000,1.905919921875,0.08240474523054435,0.886323400813341,-1.2042609309658407
1725629103720873000,1.915873046875,0.49543257039189337,1.0664356378138065,-1.347955408412218
1725629103730825700,1.92582568359375,0.34398294877409935,0.7878489980578423,-1.1100313261732457
1725629103740778800,1.93577880859375,0.2669464708447456,0.8758277257621288,-1.5346689433738587
1725629103750731800,1.945731689453125,0.005944012229377404,0.18930676632523535,-1.3407897545665501
1725629103760685600,1.955685546875,0.25625322739481926,-0.45692368377745146,-1.3602823905438184
1725629103770638600,1.965638671875,0.10948680429034865,-0.11294658022224903,-1.0910644676357506
1725629103780591600,1.975591552734375,0.39788463483154773,-0.8296405596047639,-0.6121463941931724
1725629103790544600,1.985544677734375,0.5775760160714387,-0.5158358914732932,-0.6899407047525048
1725629103800497700,1.99549755859375,0.21153262665867803,-0.3215688723921776,-0.4963987850755453
1725629103810450700,2.00545068359375,0.3404191188126802,-0.5904401738196611,-0.22648002042174337
1725629103820403700,2.01540380859375,0.3051472961570136,-0.9867793327748775,0.10192249738276005
1725629103830356700,2.025356689453125,0.41383510468993334,-1.0793693536669016,0.11261807892024517
1725629103840309800,2.035309814453125,0.8668278422266245,-0.4963286424487829,0.12290303383022547
1725629103850262800,2.0452626953125,1.175434941715002,-0.596287146282196,0.16811784782409667
1725629103860215600,2.055215576171875,1.263036068278551,-0.12158990540504455,-0.17815087379962205
1725629103870168600,2.06516845703125,1.2770990804225206,0.07004559612870216,-0.24358371543586252
1725629103880121600,2.07512158203125,1.3184013971477746,0.003898176482319832,0.013211656011641025
1725629103890074600,2.08507470703125,1.212691709376499,0.1526356165319681,0.2501350367754698
1725629103900027600,2.095027587890625,1.069961473852396,0.4254086015731096,0.4869938278704881
1725629103909980700,2.104980712890625,0.7901245417743921,0.38969314506947994,0.7688005987167358
1725629103919933700,2.11493359375,0.44916707830131053,0.3899760536640882,0.8365291500747203
1725629103929886700,2.12488671875,0.3012105594962835,0.3729547762364149,0.7522220966205
1725629103939839700,2.13483984375,0.3558838144481182,0.6407610787808895,0.29732173536419865
1725629103949792800,2.144792724609375,0.3958019833385944,0.8682230959773063,-0.38612083954066034
1725629103959745800,2.154745849609375,-0.05923252569139004,0.951522141432762,-0.9925777899205684
1725629103969698600,2.164698486328125,-0.7097836154721677,0.5647410844177008,-1.3059095798432827
1725629103979652900,2.17465283203125,-1.0781669921398163,0.3333487420350313,-1.0949456929832697
1725629103989605600,2.184605712890625,-0.8020423585832118,0.27978958580493923,-0.9214125421121716
1725629103999558700,2.19455859375,-0.17493801270034162,0.19142799626290796,-0.6560778903782367
1725629104009511700,2.20451171875,-0.05158515274338424,0.1402975284844637,-0.38049218600392337
1725629104019464700,2.214464599609375,0.025298034320399163,-0.17561726366877556,-0.24137305364906786
1725629104029417700,2.224417724609375,-0.24211072027385233,-0.2590302908927202,-0.20405688395053148
1725629104039370800,2.234370849609375,-0.41149577502217144,-0.3525684062898159,-0.02124795521199703
1725629104049323800,2.24432373046875,-0.23679803735110908,-0.3311591230362654,0.1468535259991884
1725629104059276800,2.25427685546875,-0.3530284615496173,-0.2569435477465391,0.41697570427060127
1725629104069229800,2.264229736328125,-0.45837676866259425,-0.15988661057353018,0.428613827355206
1725629104079182800,2.274182861328125,-0.2842921213885769,-0.07375555656254291,0.3522416585534811
1725629104089135900,2.284135986328125,-0.3047170697798952,0.23108663743436336,-0.08040361627489329
1725629104099088100,2.294088134765625,-0.3774847843488678,0.41742870873510834,-0.6286538768798112
1725629104109041200,2.304041259765625,-0.273057683734037,0.14555764096975327,-0.980523194989562
1725629104118994200,2.313994140625,-0.5259217801472171,0.12302607568800449,-1.311975455753505
1725629104128947200,2.323947265625,-0.6975900504618883,-0.13366729668974875,-1.1294497278705238
1725629104138900000,2.33389990234375,-1.07030809533298,-0.21181611977517603,-1.3515166080251335
1725629104148853000,2.34385302734375,-1.2010627194464205,-0.4090940111100673,-1.1456371848225593
1725629104158806000,2.353805908203125,-0.9260223739951848,-0.5561743316024541,-0.7941182875856757
1725629104168759000,2.363759033203125,-0.9133627989083528,-0.314665668874979,-0.7958528562933206
1725629104178712000,2.373712158203125,-0.701072631880641,-0.24494857404828072,-0.7800339403927325
1725629104188665000,2.3836650390625,-0.7819640316724776,-0.05447919368445873,-0.8853869967460631
1725629104198618000,2.3936181640625,-0.8290776650249958,-0.08220189786851406,-0.9025856765672564
1725629104208572200,2.403572265625,-0.967014894118905,-0.08406535365283489,-1.0905147247985005
1725629104218525200,2.413525146484375,-1.002602924850583,-0.39674598619043827,-0.9919804085493087
1725629104228478200,2.423478271484375,-0.8464303663641214,-0.4761819264769554,-1.1249705366298555
1725629104238431200,2.43343115234375,-0.6734808605998754,-0.542170356169343,-1.147306579339504
1725629104248384300,2.44338427734375,-0.5403098229944706,-0.4786714052051306,-0.6671826372385025
1725629104258337300,2.453337158203125,-0.5757370736738666,-0.26379063716232776,-0.43633185438662764
1725629104268290000,2.4632900390625,-0.44921321899797767,-0.1654459982663393,-0.33589579616934057
1725629104278243000,2.4732431640625,-0.5558323862969875,-0.11683072817921637,-0.06156798290163278
1725629104288196000,2.483196044921875,-0.5547755707204342,-0.38155250871181484,-0.11426730743199587
1725629104298149000,2.493149169921875,-0.42778939576242114,-0.6593547200918197,0.10330518391281365
1725629104308102100,2.50310205078125,-0.5698188626060262,-0.5676590176910161,0.0341027606099844
1725629104318055200,2.51305517578125,-0.7363999658495187,-0.5769570073902607,0.031251462832093235
1725629104328008200,2.52300830078125,-0.6826701292276383,-0.23851474160850047,-0.10251637162268161
1725629104337961200,2.532961181640625,-0.26884382889866826,-0.1217097323924303,0.10953268012553453
1725629104347914200,2.542914306640625,-0.2579846542973071,0.12403262238204478,0.029721769046783447
1725629104357867300,2.5528671875,-0.5497796255966648,0.15840250949561596,-0.11254852081537246
1725629104367820300,2.5628203125,-0.5674234553694725,0.018264555487036704,-0.1874552932396531
1725629104377773000,2.57277294921875,-0.5317997688025236,0.01651625051498413,-0.09182838886976241
1725629104387726000,2.58272607421875,-0.12660393417477606,0.007407061386108398,-0.014155951124429703
1725629104397679000,2.59267919921875,-0.054251814669370645,0.3866320039331913,0.0682791709780693
1725629104407632100,2.602632080078125,-0.12873802359402178,0.4372843328058719,-0.02620586988031864
1725629104417585200,2.612585205078125,-0.0970838251799345,0.4870680621504783,-0.15952742187231778
1725629104427538200,2.6225380859375,-0.173288455395028,0.44408875212371346,0.032387773385643956
1725629104437492200,2.6324921875,-0.06266951440274715,0.5270780009776354,-0.006458382359147072
1725629104447445200,2.6424453125,0.07225918052494526,0.6139484751790761,0.05092646963894367
1725629104457398300,2.652398193359375,0.14056816211938858,0.6780600050836801,-0.0020420272216200826
1725629104467351300,2.662351318359375,0.33844401934742924,0.44074762500226494,0.3428209192574024
1725629104477304300,2.67230419921875,0.296608618658781,0.13099486261010168,0.1557981722161174
1725629104487257300,2.68225732421875,0.5620918850831688,-0.11795710186064243,0.26317484335154295
1725629104497210400,2.69221044921875,0.5331107052706182,-0.12496727288365363,0.14658727627843618
1725629104507163100,2.7021630859375,0.2174042951710522,-0.5221551576226949,0.16298077719658613
1725629104517116200,2.7121162109375,0.45862873412966726,-0.5332955603182316,0.5333306316316128
1725629104527069200,2.722069091796875,0.6353647726953029,-0.2252589541941881,0.8928478341460228
1725629104537022200,2.732022216796875,0.4343231449127197,-0.29364743076562877,0.7111094572484493
1725629104546975200,2.741975341796875,0.2593191908366978,-0.3328758638262749,0.7726219105705618
1725629104556928300,2.75192822265625,0.33279169267416,-0.594095773717761,0.5551645700380206
1725629104566881300,2.76188134765625,0.5759656582653522,-0.30704759508669377,0.5186757910743356
1725629104576834300,2.771834228515625,0.7834146688722073,-0.15828852772712707,0.3049497460246086
1725629104586787300,2.781787353515625,0.8812022584073245,-0.3180523887038231,0.29114801516532895
1725629104596740400,2.791740234375,1.1635200475156307,-0.027404724276065825,0.2588064190089702
1725629104606693000,2.801693115234375,0.8576426652520894,0.16362112092673778,0.19354747263491154
1725629104616646100,2.811646240234375,0.7922258979678154,0.13624620726704598,0.33428251575380563
1725629104626599200,2.82159912109375,0.7451010125689208,0.22102350858151912,0.3512602463006973
1725629104636552200,2.83155224609375,0.6414455539137125,0.20029986950457096,0.20509148769527671
1725629104646505200,2.841505126953125,0.45360959079340096,0.11491583446860312,0.2805690457448363
1725629104656458200,2.851458251953125,0.05735811012163758,0.3762012108117342,0.11418839697688818
1725629104666412000,2.861412109375,-0.06593582272231578,0.1950344963222742,0.07664923217743634
1725629104676365000,2.871364990234375,-0.10725859771370887,0.09833937819898128,0.19675094485133884
1725629104686318000,2.881318115234375,-0.2846966470688581,0.24083003281354903,0.26305940027832986
1725629104696271000,2.89127099609375,-0.3581649111226201,0.20379881753623486,0.20349018997848034
1725629104706224000,2.90122412109375,-0.324272286131978,-0.11637889275848864,0.01964110453724861
1725629104716177200,2.91117724609375,0.08418810324966906,-0.08622750012278556,0.14215192417949438
1725629104726130200,2.921130126953125,-0.1762378797851503,-0.04800970540940761,-0.038974166038632393
1725629104736083000,2.9310830078125,-0.16836276249587534,-0.29882044948935504,-0.10087795676589012
1725629104746036000,2.941035888671875,0.036143326526880265,-0.5289683447688818,0.04810848960876465
1725629104755989000,2.950989013671875,0.25405308700203894,-0.48049335993528364,0.41821109128445383
1725629104765942000,2.96094189453125,0.2906586242131889,-0.388708225685358,0.5795727428466081
1725629104775895000,2.97089501953125,-0.08432780398130417,-0.6307312676757574,0.45466655250042676
1725629104785848000,2.98084814453125,-0.06531023816987871,-0.7675392004787921,0.5739399976566434
1725629104795801000,2.990801025390625,0.08892506864368915,-0.47294192164242266,0.4298863315090537
1725629104805754000,3.000754150390625,0.01669642938748002,0.010498013138771056,-0.00525543631017208
1725629104815707100,3.01070703125,-0.07842121028602123,0.07326514269709587,-0.39881110202670095
1725629104825660200,3.02066015625,0.07714096121713519,-0.007763619738817214,-0.6539376634791493
1725629104835613200,3.03061328125,-0.12727613434791565,0.15836276200711727,-0.6288347864046693
1725629104845566000,3.04056591796875,-0.37702056437060233,0.11049743350446224,-0.8587044492647051
1725629104855519000,3.05051904296875,-0.20551950384899972,-0.34885610776841636,-0.7292050859093666
1725629104865472000,3.060471923828125,-0.1592797307215631,-0.3324889103353023,-0.6441533515676856
1725629104875425000,3.070425048828125,-0.21317864030003547,-0.18846330123841762,-0.6566957300156354
1725629104885378000,3.0803779296875,-0.25293723471462726,-0.4320616297215223,-0.723991735175252
1725629104895332000,3.09033203125,-0.18326456355154513,-0.7898504010081291,-0.582889027787745
1725629104905285000,3.10028515625,-0.32285555120185017,-0.6851420722991227,-0.41264556611180303
1725629104915238100,3.110238037109375,-0.3485439730793237,-0.6483610323905944,-0.1830477059304714
1725629104925191200,3.120191162109375,-0.06894084975719451,-0.5121428821742534,-0.030332302160561084
1725629104935144200,3.130144287109375,-0.24053652975969014,-0.19368249719142913,-0.13094576277136802
1725629104945097200,3.14009716796875,-0.2968582095056772,-0.03704933545589447,-0.43874417622536416
1725629104955050200,3.15005029296875,-0.08173661844432353,0.05910393087565899,-0.677112787361443
1725629104965003300,3.160003173828125,-0.43028351413309573,-0.18626199180185793,-1.2427493593141437
1725629104974956000,3.1699560546875,-0.5121942470353097,-0.06607201632261275,-0.8411790217071771
1725629104984909000,3.179908935546875,-0.31351174959950145,0.9979396092146634,-0.33192484671175476
1725629104994862000,3.189862060546875,-0.01990640440993011,1.8963222811341285,-0.4187658025577664
1725629105004815000,3.199815185546875,0.36684586490206417,2.161282546597719,-0.6234174375310539
1725629105014768000,3.20976806640625,-0.2595955235600471,1.143202066630125,-1.3826447367385029
1725629105024721200,3.21972119140625,0.1606096641510725,-0.44267304010689257,-1.5174419142410158
1725629105034674200,3.229674072265625,-0.1571668302208185,-0.8792758203893899,-0.47436230983436106
1725629105044627200,3.239627197265625,-0.2379682136416435,-0.5386562105685472,-0.2556222360149026
1725629105054580200,3.249580322265625,0.10923720431029796,-0.4136567889809608,-0.2686407075420022
1725629105064533200,3.259533203125,-0.42637014008164403,-0.21812486453056334,0.15136924985796213
1725629105074486300,3.269486328125,0.03901157543957233,-0.29880875905156135,0.11349895340800285
1725629105084439000,3.27943896484375,0.25943361099660395,-0.07152677459716797,0.22936872760057447
1725629105094392000,3.28939208984375,0.6135001468896866,0.34818566116094585,-0.45361762796938415
1725629105104345900,3.299345947265625,0.18640753775238988,0.6850871272414922,-0.8675733998969197
1725629105114299000,3.309298828125,-0.1659779131859541,0.8955325431853532,-1.0404632844284176
1725629105124252700,3.319252685546875,0.337868265286088,0.9116676854282617,-1.0024076945394278
1725629105134205700,3.329205810546875,-0.007364390146516962,1.0169751490741967,-0.7120531678393482
1725629105144158700,3.33915869140625,-0.0112672439455986,0.6139180800408125,-0.7109399459004402
1725629105154111700,3.34911181640625,-0.16955226454138755,0.04768237315118313,-0.4609378878548741
1725629105164064800,3.359064697265625,0.05527589702010154,-0.5024772282063961,-0.07877659959495067
1725629105174017800,3.369017822265625,-0.0876245074391365,-0.5262321978032589,0.18183336170464753
1725629105183970800,3.378970703125,0.32821839340925213,-0.6362164210885762,0.19454466697871683
1725629105193923600,3.388923583984375,0.3656733870565891,-0.7518880423605442,0.023489888919889925
1725629105203876600,3.398876708984375,0.1681809761881828,-0.5067991830587387,0.34365561651587484
1725629105213829600,3.40882958984375,0.6438672281026839,-0.40789457219243047,0.09952888024449348
1725629105223782700,3.41878271484375,0.34033670122623444,-0.42028351364433764,0.2535276018232107
1725629105233735700,3.428735595703125,0.20282441954612732,0.17244798598289487,0.43573505753725766
1725629105243688700,3.438688720703125,0.711844785785675,-0.19190730421245097,0.21853490663617847
1725629105253641700,3.448641845703125,0.4066857809245586,-0.27700375447869297,-0.008660568578541278
1725629105263594800,3.4585947265625,0.3287047156214714,-0.24230185893177986,0.08918342731893063
1725629105273547800,3.4685478515625,0.17059388254880903,0.15509119299054144,0.009434183299541472
1725629105283500500,3.47850048828125,0.058255789613723755,0.1196007774144411,-0.2240659450173378
1725629105293453600,3.48845361328125,0.20468904437422752,-0.1781815611988306,-0.5883586913704871
1725629105303406600,3.498406494140625,0.0034779052436351775,0.059551090121269225,-0.39155192467868327
1725629105313359600,3.508359619140625,-0.11990297523140907,0.4435381325036287,-0.4766527588590979
1725629105323312600,3.518312744140625,0.13554478099942208,0.11555004071891307,-0.6850397809684277
1725629105333265700,3.528265625,0.3271826206207275,0.009354688322544097,-0.46866994341164825
1725629105343218700,3.53821875,0.14669395152330397,0.1399438927412033,-0.259493232229352
1725629105353172700,3.5481728515625,0.10412789847254753,0.32430034318268297,-0.5525187317043543
1725629105363125800,3.558125732421875,-0.03879354877471924,0.019945640441775322,-0.34636896712779996
1725629105373078800,3.568078857421875,0.11781389399766921,-0.4432411953836679,0.2174588018372655
1725629105383031800,3.57803173828125,0.3236228823125362,-0.3306067498505115,0.21754823368638754
1725629105392984800,3.58798486328125,0.2972188595116138,-0.2927127802640199,-0.058922144567966454
1725629105402937900,3.597937744140625,0.22689620000720023,-0.4531745603770017,-0.05643062001317739
1725629105412890600,3.607890625,0.10695347728729247,-0.4309229810804128,0.10845073010772466
1725629105422843600,3.61784375,-0.10213584787249565,-0.3215928377896547,0.06864683524668216
1725629105432796700,3.627796630859375,-0.21661796709895131,-0.3069581632375717,0.3512330660328269
1725629105442749700,3.637749755859375,-0.26046178500056266,-0.19365853179395198,0.20886896040737626
1725629105452702700,3.64770263671875,-0.2339642386972904,-0.3468956213504076,0.37490035734623667
1725629105462655700,3.65765576171875,-0.08319266247153281,-0.27810265563130376,0.46016661122143265
1725629105472608800,3.66760888671875,-0.20613865866065023,-0.18191256442070006,0.29382658672481776
1725629105482561800,3.677561767578125,-0.23624971928596494,-0.0835159030765295,0.2715495807260275
1725629105492514800,3.687514892578125,-0.4121463844180107,0.07581307361423968,0.11385755758732556
1725629105502467800,3.6974677734375,-0.10757891570925712,0.23727204807102678,0.07155220129936933
1725629105512420600,3.707420654296875,-0.20578268482983111,0.41328678662478924,0.15126666626632213
1725629105522373600,3.71737353515625,-0.5016249952912331,0.417397729074955,-0.004316986416280269
1725629105532326700,3.72732666015625,-0.552198413708806,0.08953414045274258,0.09791443078517913
1725629105542279700,3.73727978515625,-0.43389410584568977,-0.09685819973051547,0.14665069690346716
1725629105552232700,3.747232666015625,-0.4664204109191894,-0.13573299704790115,0.1682321218535304
1725629105562185700,3.757185791015625,-0.5971405482411384,-0.0651373658210039,0.0861623259320855
1725629105572138800,3.767138671875,-0.3742524148315191,0.002128244200348854,-0.060001464237272734
1725629105582092800,3.7770927734375,-0.28678572830259796,0.17665011384785173,-0.17743863387703895
1725629105592045800,3.7870458984375,-0.5285100796073675,0.2178571535050869,-0.41599750688821074
1725629105601998800,3.796998779296875,-0.4928951608687639,0.1505576412141323,-0.30084406427145005
1725629105611951900,3.806951904296875,-0.32348376610279084,0.2519651748120785,-0.5448556497305631
1725629105621905000,3.81690478515625,-0.2171814096679911,0.2786380776822567,-0.3836941969156265
1725629105631858000,3.82685791015625,-0.5982189911276101,0.4950555537730455,-0.6821604261398315
1725629105641810700,3.836810791015625,-0.8992448417067527,0.2947667901843786,-0.8688385975271463
1725629105651763700,3.846763671875,-0.89561320720613,0.15802373931109903,-0.8714896965578198
1725629105661716700,3.856716796875,-0.6884031199216842,0.08816986636221408,-0.4571364497452974
1725629105671669800,3.866669677734375,-0.6157903036534785,0.22642799797356128,-0.4210860621988773
1725629105681622800,3.876622802734375,-0.5948614973932504,-0.11370295154750347,-0.5828419737756252
1725629105691575800,3.886575927734375,-0.20428576080296187,-0.44801030948162074,-0.21860826413333415
1725629105701528800,3.89652880859375,-0.04528342225067317,-0.20891279954910277,0.02671995688229799
1725629105711481900,3.90648193359375,-0.24906769980490207,0.03132335902452469,0.08465805884897708
1725629105721435000,3.916434814453125,-0.3459359094727784,0.1916366705775261,0.13627104944735766
1725629105731388000,3.926387939453125,-0.13692012447323648,0.3687538174152374,0.3566454464703798
1725629105741341000,3.9363408203125,-0.30104857386760414,0.48637832632064815,0.4064692155644297
1725629105751293700,3.946293701171875,-0.48249585886411367,0.3971633348196745,0.5499570645228028
1725629105761246700,3.956246826171875,-0.09177234783358872,0.3790899179905653,0.7465738616004586
1725629105771199700,3.96619970703125,0.08215396707355975,0.4502414295345545,0.8992547785788774
1725629105781152800,3.97615283203125,0.03555880463719368,0.5163415029078722,0.8953694615781307
1725629105791105800,3.986105712890625,-0.07301204471886158,0.5638543647110462,0.6775377347752451
1725629105801059800,3.996059814453125,-0.030237828810140487,0.4049181867301464,0.6211693663433194
1725629105811012900,4.006012939453125,0.03579612052440643,0.4674509230107069,0.6151490831404924
1725629105820966000,4.0159658203125,0.16610373152270913,0.5974357317954302,0.6660483725115657
1725629105830919000,4.0259189453125,0.28506379988081754,0.7210936756461859,0.7269295421928167
1725629105840872000,4.035871826171875,0.10120236641466616,0.5779086090266704,0.7830795916989445
1725629105850825000,4.045824951171875,0.14408230772018432,0.26483283969163895,0.5083271232783794
1725629105860777700,4.05577783203125,0.055227966225147244,0.01329553490281105,0.7864049367293715
1725629105870730800,4.065730712890625,0.5405578064061701,0.615155512881279,1.0182444383576512
1725629105880683800,4.075683837890625,0.2387019347436726,0.10374854376614093,0.7578595179855823
1725629105890636800,4.08563671875,0.3793307410091161,0.4410901548296213,1.2655348993569613
1725629105900589800,4.09558984375,0.5353467937596142,0.4195733195483684,1.1132809756189583
1725629105910542800,4.10554296875,0.5172434201836585,-0.09807575882673263,1.3467980550706387
1725629105920495900,4.115495849609375,0.7891653413534164,0.05227086998522281,1.4066443287461996
1725629105930449000,4.125448974609375,1.02394381904304,-0.12409575074613094,1.5249375306934116
1725629105940402000,4.13540185546875,0.7347352475076914,-0.4907078799575567,1.3030670498937367
1725629105950354700,4.145354736328125,0.5647141964107751,-0.20756021589636803,1.2544582095474004
1725629105960307700,4.1553076171875,0.35723245257809755,-0.37554362368583677,0.8295739241093396
1725629105970260700,4.1652607421875,0.31557386976107954,-0.14677227745652197,0.6519120028704405
1725629105980213800,4.1752138671875,0.3012659429453313,0.1746791060358286,0.3927992943912744
1725629105990166800,4.185166748046875,0.15560425707921385,0.2873562216669321,0.24732582457363603
1725629106000119800,4.195119873046875,0.09868716872334479,0.3083732907325029,-0.07761924625337123
1725629106010072800,4.20507275390625,0.20715689579248428,0.21867080797553062,0.19286708915531633
1725629106020025900,4.21502587890625,0.3105249158084392,0.39102819306552405,0.3071580697238445
1725629106029979600,4.224979736328125,0.14892857870757578,0.3004933511376381,0.10909808810055255
1725629106039932700,4.2349326171875,0.18543708528503774,0.09518120642900467,0.1793096884459257
1725629106049885700,4.2448857421875,0.24875965676903722,-0.18881927506923674,0.3087807024896145
1725629106059838700,4.254838623046875,0.3743798406034708,-0.2815343836456537,-0.03493979595601558
1725629106069791700,4.264791748046875,0.2757407488055527,-0.39137715263366696,-0.07724047606885433
1725629106079744800,4.274744873046875,0.17689926630333064,-0.23698680138885975,0.20296587384343145
1725629106089697800,4.28469775390625,0.009206950414925813,-0.13365619077384472,0.06256254689693451
1725629106099650800,4.29465087890625,-0.2488331603966653,-0.2628419581353664,-0.008920388558506966
1725629106109603300,4.304603271484375,-0.08611410287618637,-0.10464403130114078,0.10883972942531109
1725629106119556400,4.314556396484375,-0.1296779347926378,0.009254150557518005,0.17354338000416755
1725629106129509400,4.32450927734375,-0.20878581216856837,-0.17782266475856304,0.19587328523397446
1725629106139462400,4.33446240234375,-0.174613055062294,-0.18274667715728282,0.13571253878176212
1725629106149415400,4.34441552734375,0.012411591675132512,-0.1241454351067543,0.22245558721125125
1725629106159368400,4.354368408203125,-0.164798494143039,-0.4083160124748945,0.08264847259223461
1725629106169321500,4.364321533203125,-0.045523587682098146,-0.459863828882575,0.0322638547450304
1725629106179274500,4.3742744140625,0.07402911280691624,-0.19447452435195445,0.021955811220407486
1725629106189227500,4.3842275390625,0.11242357926145195,-0.09128945968747139,0.09427461297810077
1725629106199180500,4.3941806640625,0.05629062702059746,-0.06218903740942478,0.02046411135792732
1725629106209133600,4.404133544921875,-0.2405003624677658,-0.2601233468264341,-0.04090279601365328
1725629106219086300,4.41408642578125,-0.14188231345787644,-0.23290859216451643,0.3030263767465949
1725629106229039400,4.424039306640625,-0.16995492705814538,-0.11009119079113006,0.19851970808953046
1725629106238992400,4.433992431640625,-0.14113456383049489,-0.3400152141869068,-0.09263210646808147
1725629106248945400,4.4439453125,-0.3616220658391714,-0.40898529003858564,-0.2900619734942913
1725629106258899500,4.4538994140625,-0.02167589830048382,-0.37552667255103583,-0.09693360305428504
1725629106268852500,4.4638525390625,-0.05462181702554226,-0.03508066573143005,-0.2097454509809613
1725629106278805500,4.473805419921875,-0.6307640009015798,-0.1586480086892843,-0.5585398916900157
1725629106288758500,4.483758544921875,-0.5136486105620861,-0.34048341622054573,-0.3781511758357286
1725629106298711600,4.493711669921875,-0.34772396193332966,-0.01303542266190052,0.10309037211835384
1725629106308664600,4.50366455078125,-0.6109743912717327,0.3212421246558428,-0.17539836022108793
1725629106318617600,4.51361767578125,-0.8480828828115016,0.25914719527065755,-0.39048867936134335
1725629106328570600,4.523570556640625,-0.4798310966342687,0.17684242154955862,-0.17009557763785124
1725629106338523600,4.533523681640625,-0.0762567257285118,0.24878128407895564,-0.1498340031147003
1725629106348476400,4.543476318359375,-0.16797347091734408,0.251736626753211,-0.3147434102863073
1725629106358429400,4.553429443359375,-0.25087624706421047,0.22497487655580042,-0.28777532386183735
1725629106368382500,4.563382568359375,-0.28597382739782334,0.18648820177316663,-0.29626375074386596
1725629106378335500,4.57333544921875,-0.3315221111297607,0.19698855299949644,-0.27221856602877376
1725629106388288500,4.58328857421875,-0.4742202710151672,0.1760854657024145,-0.15767770235240458
1725629106398241500,4.593241455078125,-0.3381178561329841,0.3336129459291696,-0.010100538253784179
1725629106408194600,4.603194580078125,-0.39076691178083417,0.37648178131878374,-0.10709697741121053
1725629106418147600,4.613147705078125,-0.3861030116230249,0.2070943519502878,-0.02802928591519594
1725629106428100600,4.6231005859375,-0.5177917017161846,0.11440087068378925,0.06771773770302533
1725629106438053600,4.6330537109375,-0.17683423824310301,-0.10134732784330844,-0.08722527898848056
1725629106448006700,4.643006591796875,0.17129472429454326,0.2050204682856798,-0.16898381700366735
1725629106457959400,4.65295947265625,0.17357728227376937,0.38293782559037204,-0.26406331662386656
1725629106467912400,4.662912353515625,-0.03186813342571258,0.5899456683009863,-0.41870647358596325
1725629106477866500,4.672866455078125,-0.1497393105685711,0.5967337210059166,-0.1779535976618528
1725629106487819500,4.682819580078125,0.2152899333655834,0.7321113287448883,-0.04333411481380462
1725629106497772500,4.6927724609375,0.2623287479162216,0.7150035420775414,0.02044891378879547
1725629106507725600,4.7027255859375,-0.33101240804195403,0.2917512417554855,0.08343436227291821
1725629106517678600,4.7126787109375,-0.08994973551630973,-0.08094400676190852,0.23709376889467237
1725629106527631600,4.722631591796875,0.1712356875836849,-0.2983469867587089,0.3205804458767175
1725629106537584600,4.732584716796875,-0.2052560306072235,-0.42126901755034923,0.3224082458257675
1725629106547537700,4.74253759765625,0.14797755245990118,-0.4064712613910436,0.36121494634300466
1725629106557490700,4.75249072265625,0.25603812333941456,-0.2761965297490358,0.4346504771709442
1725629106567443700,4.762443603515625,-0.20914543926119802,0.04407178143858909,0.5845014314204454
1725629106577396700,4.772396728515625,0.2946259204089641,-0.3234001794725656,0.7344619835242628
1725629106587349500,4.782349609375,0.3162310184955597,-0.37114275837838645,0.6340820394083857
1725629106597302500,4.792302490234375,0.46048400660753247,-0.20294483105540273,0.5827551722750067
1725629106607255600,4.802255615234375,0.5033715466976165,-0.06173895555436611,0.5116393165662885
1725629106617208600,4.81220849609375,0.4118365878164768,-0.01883680241703987,0.6446668540477752
1725629106627161600,4.82216162109375,0.610990794417262,0.32041502618193624,0.6045768357217312
1725629106637114600,4.832114501953125,0.36078444597125053,0.5962199262648821,0.3119052642509341
1725629106647067600,4.842067626953125,-0.033959552747011186,0.4139356059223413,0.18502543574422597
1725629106657020700,4.852020751953125,0.14783318468630313,0.4077718225955963,0.09205839823335409
1725629106666973700,4.8619736328125,0.3861076877981424,0.26432255208194255,-0.2947413634821772
1725629106676926700,4.8719267578125,0.03470542094456032,0.5080851312160491,-0.43963849471658467
1725629106686879700,4.881879638671875,0.20125262191845103,0.0022504092752933503,-0.7157020457357168
1725629106696833500,4.89183349609375,-0.1787018039469607,-0.01714461154639721,-0.6586617693915963
1725629106706786600,4.90178662109375,-0.17244741972731426,-0.02171206559240818,-0.4925844874843955
1725629106716739300,4.9117392578125,-0.22264555682539938,0.06609072102308274,-0.35112814435362816
1725629106726692400,4.9216923828125,0.00402677129805088,0.04512099823057651,-0.21594927405714986
1725629106736645400,4.931645263671875,0.2507295320698991,0.0328869550794363,-0.3391901615396142
1725629106746598400,4.941598388671875,0.04792670330107212,0.10616671082377434,-0.0009419570252299308
1725629106756551400,4.951551513671875,-0.34009237107634543,0.08720248263478278,0.13945289435386657
1725629106766504400,4.96150439453125,-0.49528936252892014,-0.0674865592956543,0.18751900612562894
1725629106776457500,4.97145751953125,-0.7308826637327671,-0.026764088284969328,0.7875468002408742
1725629106786410500,4.981410400390625,-0.4110913224071264,-0.5515262135356664,0.3007575550317764
1725629106796363500,4.991363525390625,-0.4376730398625135,-0.6562789659082889,0.30370588344335553
1725629106806316500,5.001316650390625,-0.2511983003591187,-0.2938303861171007,0.22954408416748046
1725629106816269600,5.01126953125,-0.17188801401257514,0.050179450663924215,-0.1688295032247901
1725629106826222300,5.021222412109375,-0.49981180838942524,0.10503683001101016,-0.35069296780675646
1725629106836175400,5.03117529296875,-0.3673568100988865,-0.0075683894276618955,-0.12105740596354007
1725629106846128400,5.04112841796875,-0.26434533016933126,0.2566875271588564,-0.035865678629279134
1725629106856081400,5.051081298828125,-0.8203823173940181,0.6068237378656863,0.01816840163618326
1725629106866034400,5.061034423828125,-0.859840467557311,0.38313480946719647,0.09765198045670985
1725629106875987500,5.070987548828125,-0.6654243953943252,0.21678747844696045,0.32884003243893384
1725629106885940500,5.0809404296875,-0.7364999190926551,0.31390228328704833,0.43875966605544087
1725629106895893500,5.0908935546875,-0.7686129671901464,0.2638093418627977,0.18369389487951993
1725629106905846500,5.100846435546875,-0.7427735925346612,0.024529461100697515,0.10158815086185932
1725629106915800600,5.110800537109375,-0.5005120656132698,-0.14522154088318348,0.0452566073089838
1725629106925753600,5.120753662109375,-0.3368810443470254,-0.16864157943725586,0.09156535401940345
1725629106935706600,5.13070654296875,-0.4876870708316564,0.0019528876334428786,-0.08867577005773782
1725629106945659600,5.14065966796875,-0.5274591457823291,0.022252163818478582,-0.0931426863387227
1725629106955612400,5.1506123046875,-0.5092161445399745,0.31129180852770805,-0.2542088620856404
1725629106965565400,5.1605654296875,-1.0681722523480652,0.3168172939509153,-0.34891192960888145
1725629106975518500,5.1705185546875,-1.2295254283428192,0.27561609951257704,-0.3792114985436201
1725629106985471500,5.180471435546875,-0.9375035529524087,0.17766659741401672,-0.26055647754669187
1725629106995424500,5.190424560546875,-0.9871522577404975,0.34585575690865517,-0.2392696516290307
1725629107005377500,5.20037744140625,-0.8495610656052828,0.20116437737941742,-0.3402569139882922
1725629107015330600,5.21033056640625,-0.22245507575459778,0.004149520894885063,-0.3816857797026634
1725629107025283600,5.22028369140625,-0.370199924570322,-0.20053367826044557,-0.1004430724799633
1725629107035236600,5.230236572265625,-0.5457254183024167,-0.4027601319134235,-0.2477218381538987
1725629107045189600,5.240189697265625,-0.3935317733842879,-0.5153133289039135,-0.03587415419667959
1725629107055142700,5.250142578125,-0.27426059325039387,-0.1723568005681038,0.07853051587939262
1725629107065095400,5.260095458984375,-0.184724626166746,-0.009137830701470374,0.1238593116417527
1725629107075048400,5.27004833984375,0.014037293180823326,-0.1053010339051485,-0.1451966987028718
1725629107085001500,5.28000146484375,0.2202664796691388,-0.22702479482293128,-0.07927198189646005
1725629107094954500,5.28995458984375,-0.17304770544171333,-0.3038987756669521,-0.1465510359212756
1725629107104907500,5.299907470703125,-0.18105149061195552,-0.2701841375917196,-0.11226444317698478
1725629107114860500,5.309860595703125,-0.11233984650075435,-0.05225274980664253,0.04430032949745655
1725629107124814600,5.319814697265625,-0.08082900208011269,0.20638123524487018,0.21619360420703887
1725629107134767600,5.329767578125,-0.12193579623326659,0.4113929357022047,0.2981935497626662
1725629107144720600,5.339720703125,-0.013097381982207298,0.5397983663409948,0.21701924137622117
1725629107154673400,5.34967333984375,0.026312837386131285,0.3646715165376663,0.1731467819020152
1725629107164626400,5.35962646484375,0.12478490205407142,0.3541378475636244,0.4602487365469336
1725629107174579500,5.369579345703125,0.5754929261870682,0.37153614161014553,0.3429255486756563
1725629107184532500,5.379532470703125,0.4705674475960433,0.2647287947952747,0.6044105392441154
1725629107194485500,5.389485595703125,0.21736323250830172,0.23493337599039077,0.5433648266509175
1725629107204438500,5.3994384765625,0.22345395059883594,-0.013369184660911559,0.35450288148373366
1725629107214391600,5.4093916015625,0.5312719455361365,-0.02321779398024082,0.7779501198559999
1725629107224344600,5.419344482421875,0.38271921440362927,-0.04444412188231945,0.7185340542912483
1725629107234297600,5.429297607421875,0.3478906237371266,-0.02443827568590641,0.7480190919727087
1725629107244250600,5.439250732421875,0.5228152289666235,-0.5376596007466315,0.40620881106257434
1725629107254203400,5.449203369140625,0.5582714500121772,-0.3716828566044569,0.9365554584473371
1725629107264156400,5.459156494140625,0.6966140450365841,0.5728460649400949,0.3893576295047998
1725629107274109400,5.469109375,0.36228389074876904,-0.10665303303599356,0.34290976658463473
1725629107284062500,5.4790625,0.6277788476109505,0.17641455152630806,0.49472237629592414
1725629107294015500,5.489015380859375,0.4472428322404623,-0.0683574969112873,0.3680786946326494
1725629107303968500,5.498968505859375,0.42091479728519915,-0.3740864106148481,0.17483809598982333
1725629107313921500,5.508921630859375,0.5931605386942624,-0.4119955777704715,0.3393319080978632
1725629107323874600,5.51887451171875,0.6216033738464116,-0.2736222953468561,0.39679859316051
1725629107333827600,5.52882763671875,0.32461423143744467,-0.20563713887929916,0.3850795137941837
1725629107343781400,5.538781494140625,0.23565657569840548,-0.08094634484946728,0.326570041680336
1725629107353734400,5.548734375,0.041757659277319906,0.014689035087823868,0.5690881737112998
1725629107363687400,5.5586875,-0.3109413876548409,-0.19417057296931742,0.47184652762115
1725629107373640400,5.568640380859375,-0.18041604225262997,-0.5700146409064532,0.2553705993413925
1725629107383593200,5.57859326171875,-0.03624444881379604,-0.530099979147315,0.3427700658529997
1725629107393546200,5.588546142578125,-0.24206483530551193,-0.3283990106731653,0.19825287384688853
1725629107403499300,5.598499267578125,-0.3838536252610385,-0.21866496275663375,-0.044193361991643906
1725629107413452300,5.608452392578125,-0.17971300854980946,-0.05232639956474304,0.12481821980178355
1725629107423405300,5.6184052734375,-0.27832784268930555,-0.12179039641320705,0.1707049417078495
1725629107433358300,5.6283583984375,-0.1635024629831314,-0.4473071296483278,0.13230360712110995
1725629107443311400,5.638311279296875,0.14657412453591823,-0.3999181864857673,0.2538391519904136
1725629107453264400,5.648264404296875,0.024248890593647956,-0.3011106062531471,0.1338768477872014
1725629107463217400,5.658217529296875,-0.15208835791274905,-0.6310170988798142,-0.32323739012628794
1725629107473170400,5.66817041015625,-0.05222571566924453,-0.6841846254438162,-0.21999475005567073
1725629107483123500,5.67812353515625,0.13792904578745363,-0.15236439837515353,0.17358838818967343
1725629107493076200,5.688076171875,-0.25704160129353404,0.03758358846306801,-0.24323329456299542
1725629107503029200,5.698029296875,-0.33044965959265826,-0.38283436521589753,-0.4743254849553108
1725629107512982300,5.707982177734375,-0.2302694758325815,-0.2077133606314659,-0.21711042679101228
1725629107522935300,5.717935302734375,-0.2175735873233527,-0.021837737798690793,-0.49514440110027785
1725629107532888300,5.727888427734375,-0.3062572484266013,-0.28002865525782106,-0.9043795742467046
1725629107542841300,5.73784130859375,-0.2304867718450725,-0.42118835352957246,-0.8007996650457382
1725629107552795400,5.74779541015625,-0.41446978586427863,-0.1918716483771801,-0.8055132495641708
1725629107562748400,5.75774853515625,-0.22496420903131364,-0.18717267690598963,-1.0163190232530235
1725629107572701400,5.767701416015625,0.09920688174851239,-0.0663882426649332,-0.7689478982329369
1725629107582654500,5.777654541015625,-0.3083925799548626,0.35001696824133394,-0.7643962262779473
1725629107592607500,5.787607421875,-0.9035784139316528,0.2747673737287521,-1.1942892797887326
1725629107602560500,5.797560546875,-1.0387404061585663,-0.14311550851464272,-1.0024453962013125
1725629107612513500,5.807513427734375,-0.33133148392848666,-0.43363866977989673,-0.528535214048624
1725629107622466300,5.81746630859375,-0.34154147390611467,0.05888356612324714,-0.26710312271118164
1725629107632419300,5.82741943359375,-0.6135417210090905,0.2450181321531534,-0.5287371663615107
1725629107642372400,5.837372314453125,-0.1765910771369934,0.29058979676067825,-0.23403028967082498
1725629107652325400,5.847325439453125,0.17799805785808712,0.5364899724453688,0.0778930947586894
1725629107662278400,5.8572783203125,-0.6228723708689212,0.6676449940532445,-0.2663014509394765
1725629107672231400,5.8672314453125,-1.2077601712584496,0.3042465661913156,-0.24826544351130722
1725629107682184400,5.877184326171875,-0.947663712438941,0.2839046199083328,0.07117693824619055
1725629107692137500,5.887137451171875,-0.3235030918577686,0.5419301176726817,0.23782120638638735
1725629107702090500,5.897090576171875,-0.18479308829307556,0.8075795344442128,0.330630130726099
1725629107712043500,5.90704345703125,-0.4262976593673229,0.7255939096748828,0.2809229737490415
1725629107721996500,5.91699658203125,-0.36127602888047694,0.3020838351994753,0.008156418448686599
1725629107731949300,5.92694921875,-0.15614567047953604,0.1463274562984705,0.1532376740783453
1725629107741902300,5.93690234375,-0.10772739340239204,0.40998248438239093,0.3272290901109576
1725629107751855400,5.94685546875,0.050655256048706354,0.45735681449770926,0.08335574407875537
1725629107761808400,5.956808349609375,-0.027644378250837324,0.17233575778007507,-0.12581512188464403
1725629107771761400,5.966761474609375,-0.17772154247164726,0.24419863246381282,0.046773441612720484
1725629107781714400,5.97671435546875,0.039574470019340516,-0.0014110358417034148,-0.1553022053927183
1725629107791668500,5.98666845703125,-0.007721534162759781,-0.45296939319372176,-0.2551917356431484
1725629107801621500,5.99662158203125,0.025665196265513075,-0.28245091396868227,0.09727437931597233
1725629107811574500,6.006574462890625,0.22357845376133917,-0.29310791706144806,-0.047502048148214814
1725629107821527600,6.016527587890625,-0.12510521091646515,-0.3411228831678629,-0.46906683377474545
1725629107831480600,6.02648046875,-0.15453003371013327,-0.5297878444582224,-0.3452595445811748
1725629107841433600,6.03643359375,-0.21658991004824638,-0.39260640216767784,-0.08189590065926312
1725629107851386600,6.04638671875,0.369466934120655,-0.2707704130470753,0.15450316396951674
1725629107861339400,6.05633935546875,0.45271103451848027,-0.14845160884559153,0.3166290779024362
1725629107871292400,6.06629248046875,0.4234147974073887,0.1530453663766384,0.49098143620193
1725629107881245400,6.076245361328125,0.9274737418472766,-0.0159989486426115,0.48014440036714073
1725629107891198500,6.086198486328125,0.6744353848457336,0.0957809258878231,0.3513388644948601
1725629107901151500,6.0961513671875,0.6277361775130033,0.15578268238604068,0.29084610960930585
1725629107911104500,6.1061044921875,0.4215887510240078,0.23809563941359518,0.12205109317600726
1725629107921057500,6.1160576171875,0.2181564287126064,0.35588264540433884,-0.5255103132694959
1725629107931010600,6.126010498046875,0.07059856296950019,-0.019176409634947777,-0.789063342283666
1725629107940963600,6.135963623046875,-0.20743861707700414,-0.18644027097821234,-0.8864826830282807
1725629107950917400,6.14591748046875,-0.15489769797874614,-0.19683599278628824,-0.8782543683871626
1725629107960870400,6.155870361328125,-0.2469745269179344,-0.02911737341284752,-0.5771946155384182
1725629107970823400,6.165823486328125,-0.3294540726840496,0.1810001257508993,-0.35726913132667537
1725629107980776400,6.1757763671875,-0.10093642722116783,0.01916004302203655,-0.3060995005816221
1725629107990729200,6.185729248046875,0.009486772003304212,-0.15071546212434767,0.0880213978022337
1725629108000682200,6.19568212890625,-0.28158755687130615,-0.04503916516602039,0.014642857858538626
1725629108010635300,6.20563525390625,-0.4962327808588743,-0.4232458705812692,0.018814882846176623
1725629108020588300,6.21558837890625,-0.20677695656418799,-0.758074622040987,0.15822159997075796
1725629108030541300,6.225541259765625,-0.2366331839119084,-0.6757020437806844,0.34911855809688563
1725629108040494300,6.235494384765625,-0.22368193240212275,-0.6405792924731969,0.16623510281741619
1725629108050447400,6.245447265625,-0.059779071924556046,-0.4303396282345056,0.40863896081894635
1725629108060400400,6.255400390625,0.0003793547064065933,0.13770517390370368,0.2995373655870557
1725629108070353400,6.265353515625,-0.3331201939761638,0.2449696168363094,0.04076689467430115
1725629108080306400,6.275306396484375,-0.3788403271436691,0.18495792346596718,0.20211305640637872
1725629108090259500,6.285259521484375,-0.5021837982177734,0.4281389033198356,0.13139496784359217
1725629108100212200,6.295212158203125,-0.6508171933710575,0.3959896148651838,0.2930047489479184
1725629108110165000,6.3051650390625,-0.46010348285734654,0.4670844277858734,0.40094986762106416
1725629108120118800,6.315118896484375,-0.5261094482064247,0.3677694825530052,0.4816124270930886
1725629108130071800,6.32507177734375,-0.5679817103067413,0.2748895388036966,0.6536161764398217
1725629108140024800,6.33502490234375,-0.5108960604509338,0.29159166727960106,0.6302800167769194
1725629108149977900,6.344977783203125,-0.28128537732064723,0.2559755794972181,0.56911593850106
1725629108159930600,6.3549306640625,-0.28859949972629545,0.30650983494818207,0.674968176548183
1725629108169883600,6.364883544921875,0.20981588586866853,0.6303413915753364,0.637494478200376
1725629108179836700,6.374836669921875,0.11742522347364574,0.8124766588360071,0.26323621814996
1725629108189789700,6.384789794921875,-0.22997191765811292,0.7414198398381471,0.1918988286450505
1725629108199742700,6.39474267578125,-0.5538958287438377,0.6915911023080349,0.23492051650881765
1725629108209695700,6.40469580078125,-0.406063813101314,0.5130214185744524,0.08848813853114842
1725629108219648800,6.414648681640625,-0.48986967556774613,0.5451093322306871,0.1912149380341172
1725629108229601800,6.424601806640625,-0.3844026374459266,0.5847971994966268,0.2341837266668677
1725629108239554800,6.434554931640625,0.19254384855031967,0.5534902070850134,0.10635141974091529
1725629108249507800,6.4445078125,0.10443594150841236,0.6182938109070062,0.1158972467213869
1725629108259460900,6.4544609375,-0.025174115679785607,0.441961676967144,0.03561053482443094
1725629108269413600,6.46441357421875,-0.25023550147525964,-0.07913198890388011,-0.03254208716452121
1725629108279366700,6.47436669921875,-0.08525719378590584,-0.3873948049992323,0.013038345271348952
1725629108289319700,6.484319580078125,-0.024968290909379718,-0.17122516618967054,-0.14161328725814817
1725629108299273700,6.494273681640625,0.28087511601932347,0.17527122671008108,-0.18287468745112417
1725629108309226800,6.504226806640625,0.44148821423649787,0.7008797396570444,-0.2980877513006329
1725629108319179800,6.5141796875,0.20596973183453082,0.8988719167411326,-0.546935378614068
1725629108329132800,6.5241328125,0.048988195052742954,0.6147405023396015,-0.6627735886245966
1725629108339085800,6.5340859375,0.2606242820858955,0.4673971469968557,-0.39071196672320363
1725629108349038800,6.544038818359375,0.17652034998834132,0.7037678623139858,-0.12522446251511574
1725629108358992000,6.553991943359375,-0.04050897439047694,0.7272849315017461,-0.21124533414989707
1725629108368945000,6.56394482421875,0.3156891667038202,0.5238941102445125,-0.08799012588113546
1725629108378898000,6.57389794921875,0.4005671519137919,0.5034878665536642,0.43798575907349585
1725629108388851000,6.583850830078125,0.1424694656960666,0.5046119021475315,0.23876491697728633
1725629108398803700,6.5938037109375,0.2765408131420612,0.1987596543252468,0.19972060831189153
1725629108408756700,6.6037568359375,0.5785206034451723,-0.1198842705309391,0.7203004794418811
1725629108418709800,6.613709716796875,0.6473772820502519,-0.15578443595170974,0.7519061625391245
1725629108428662800,6.623662841796875,0.5308056431986391,-0.39486850188076494,0.550700868627429
1725629108438615800,6.63361572265625,0.4841805240154266,-0.4995411747545004,0.7476818228423595
1725629108448568800,6.64356884765625,0.5917793134689331,-0.5766957261055707,0.8860124351680279
1725629108458521900,6.65352197265625,0.8585412215270102,-0.4958218619704246,0.8104577202290296
1725629108468475000,6.663474853515625,0.5150954483695328,-0.14775252066552638,0.4396165751457214
1725629108478429000,6.673428955078125,0.1592804613739252,0.10881810211539268,0.3343202174156904
1725629108488382000,6.6833818359375,0.20281798980534074,0.04594458957314491,0.2991366758316755
1725629108498335000,6.6933349609375,0.18645722211301324,0.18399696947932243,0.30980186223089695
1725629108508288000,6.7032880859375,0.06441855002716183,-0.010910685592889786,0.43940264013409613
1725629108518241000,6.713240966796875,0.27540406419709323,-0.21915596114397048,0.7071756249308586
1725629108528193800,6.72319384765625,0.37440322147905825,-0.4811731588929891,0.7639449753791093
1725629108538146800,6.733146728515625,0.32575828690603376,-0.7129962939083576,0.852218302115798
1725629108548099800,6.743099853515625,0.3192985893726349,-0.763826317435503,0.8450649232298135
1725629108558052900,6.753052978515625,0.3406267702139914,-0.4510884017527103,0.9010995296627282
1725629108568006000,6.763005859375,0.12504822916537522,-0.011654197436571121,1.0201946956425905
1725629108577959000,6.772958984375,0.06887246069610119,-0.03577215512692928,0.7029793422847986
1725629108587912000,6.782911865234375,0.23290172403231263,-0.1413683725863695,0.5321972436875104
1725629108597865000,6.792864990234375,0.3774083946444094,0.010402736070752143,0.465223894611001
1725629108607818000,6.80281787109375,0.21974515920877455,-0.01661854184567928,0.1052227079719305
1725629108617771000,6.81277099609375,0.15255670607686042,-0.14737141239345072,0.10336334384083748
1725629108627724000,6.82272412109375,0.07004910326004028,0.01824117461144924,0.34032267270088196
1725629108637676800,6.8326767578125,-0.12840440772548317,0.08175766123235226,0.212567814925313
1725629108647629800,6.8426298828125,0.19604557306095957,0.03724924194216728,0.13631576537191867
1725629108657583600,6.85258349609375,0.1287976448267698,0.10833470251262187,-0.1515688640832901
1725629108667536600,6.86253662109375,-0.06345920347571372,0.03229074275195598,-0.3534948734849691
1725629108677489700,6.87248974609375,0.11446750617921352,-0.08544774792194366,-0.2941808069899678
1725629108687442700,6.882442626953125,-0.11430106357112527,0.10531506243050098,-0.39757717631757256
1725629108697395700,6.892395751953125,-0.1874134999245405,0.2325263148486614,-0.36238691273182627
1725629108707348700,6.9023486328125,-0.22972835469320416,0.2001110689342022,-0.17244272528588772
1725629108717301800,6.9123017578125,-0.005173603245615959,0.25328151810765265,-0.1755839459210634
1725629108727254800,6.9222548828125,-0.3952490256309509,0.15794190624654292,-0.4844841831371188
1725629108737207800,6.932207763671875,-0.014592735106498002,-0.2637228326231241,-0.38893852730989453
1725629108747160800,6.942160888671875,0.007480711144208908,-0.2518248895585537,-0.27891046488285065
1725629108757113600,6.952113525390625,0.008206687331199645,-0.11871347318589687,-0.3260173762336373
1725629108767066600,6.962066650390625,-0.1660894107364118,-0.15583645839989185,-0.6343170172080397
1725629108777019600,6.97201953125,0.13440912803299723,-0.2417722820997238,-0.2592532859936356
1725629108786972700,6.98197265625,-0.1706037463556975,0.15276538039147852,-0.3075499916508794
1725629108796925700,6.99192578125,-0.617637319759652,0.04195639671981335,-0.658173693613708
1725629108806878700,7.001878662109375,-0.45155828428678213,-0.6298866335451603,-0.8717699748039245
1725629108816831700,7.011831787109375,-0.2655955676924437,-0.806840698775649,-0.16550035880208014
1725629108826784800,7.02178466796875,-0.5206768652310595,-0.26945757688283917,-0.34286914231330157
1725629108836738800,7.03173876953125,0.018307846639491615,-0.029942718321084975,-0.6102034434318542
1725629108846691800,7.04169189453125,1.2128197927355766,-0.19603344423174857,-0.8863628560408949
1725629108856644900,7.051644775390625,0.16698212179243563,-0.026422142979502676,-0.3140001907035708
1725629108866598000,7.061597900390625,-0.21344167515039442,-0.3511632156670093,-0.90731621222049
1725629108876551000,7.071551025390625,-0.15595277825593948,-0.5503717828035354,-0.2968351208910346
1725629108886503700,7.081503662109375,-0.7578267847597598,-0.22954057703614233,-0.443580510340631
1725629108896456700,7.091456787109375,-0.7821843964248896,-0.07034194872677325,-0.6377227339982986
1725629108906409700,7.10140966796875,-0.4828741541245952,0.3098392716318369,-0.6410767206013203
1725629108916362800,7.11136279296875,0.07705984053863212,0.7009405299335718,-0.9008809184759855
1725629108926315800,7.121315673828125,-0.034261184308398515,1.2103688924521208,-1.0599310782253741
1725629108936268800,7.131268798828125,-0.6348164911627769,1.4241647878676653,-1.0971759362533688
1725629108946221800,7.141221923828125,-0.4548837023824453,1.3144798397898674,-1.1081257848128676
1725629108956174800,7.1511748046875,-0.7170920387893914,1.2181880417704583,-0.9573469020634889
1725629108966127900,7.1611279296875,-0.2227016709268093,0.7585691275596618,-0.7339531572192907
1725629108976081000,7.171080810546875,-0.36468203793168064,0.760277100521326,-0.3597784837990999
1725629108986034000,7.181033935546875,0.2841080335259437,0.25379005215168,-0.44594256329685444
1725629108995986700,7.190986572265625,0.4294166681706905,-0.19156360534131525,-0.30345015511661766
1725629109005939700,7.200939697265625,0.23262217643857,-0.1536860023677349,-0.041296763767302035
1725629109015893800,7.210893798828125,0.32090134839415546,-0.5871469774931669,-0.057822658893465995
1725629109025846800,7.2208466796875,-0.13317279117107392,-0.3752332425624132,0.5094014745116233
1725629109035799800,7.2307998046875,0.5690741451859473,-0.561098344001174,0.2631967629224062
1725629109045752800,7.2407529296875,0.16757891864180563,-0.42633097711503504,0.3430564815789461
1725629109055705900,7.250705810546875,0.3651344578742981,-0.4028127388834953,0.4951026077851653
1725629109065659000,7.260658935546875,0.7194751345336436,-0.20554244633316993,0.34672669452428817
1725629109075612000,7.27061181640625,0.5696574980318546,-0.10777356149852275,0.17638006473481654
1725629109085565000,7.28056494140625,0.3337923941493034,-0.17135551457107065,0.1760106469005346
1725629109095518000,7.29051806640625,0.4638566979110241,-0.08348024724125862,0.5096636325791478
1725629109105471200,7.30047119140625,0.5443552989929914,-0.17088205184042451,0.4691106729164719
1725629109115424300,7.31042431640625,0.8557067287534474,0.037491818526387215,0.13240882106125354
1725629109125377300,7.320377197265625,0.6884937208145856,-0.23004618847072122,-0.03451104914993047
1725629109135330300,7.330330322265625,0.15510054534077644,-0.3416664885252714,-0.19278759417831898
1725629109145283300,7.340283447265625,0.02942366744962055,-0.12175006440281867,-0.2997501315549016
1725629109155236400,7.350236328125,-0.035272973433136935,-0.28879239194989204,-0.33321079486906524
1725629109165189400,7.360189453125,-0.17153963896632193,-0.5620505301594734,-0.5566533472910523
1725629109175142100,7.37014208984375,-0.04209901549431961,-0.5126227746456862,-0.5596501910194754
1725629109185095200,7.38009521484375,0.011567108241585083,-0.3570119416952133,-0.24877076268494128
1725629109195049000,7.390049072265625,-0.045893147080275226,-0.16052958465218542,-0.13579524862915276
1725629109205002000,7.400001953125,-0.05200667065766174,-0.3041746699988842,-0.0596413987532258
1725629109214955000,7.409955078125,-0.31120997546315193,-0.42615094437301154,0.3279825388267636
1725629109224908000,7.419907958984375,-0.5699561887174844,-0.4459691590428352,0.5280509376630187
1725629109234861000,7.429861083984375,-0.1912438718676567,-0.5500532183736563,0.5272618331119417
1725629109244814000,7.43981396484375,-0.1615109969049692,-0.2672837399750948,0.365225935550034
1725629109254767000,7.44976708984375,-0.4533434872031212,-0.17245090859234333,0.23578034820854663
1725629109264720100,7.45972021484375,-0.28245149849057194,-0.14510814363658428,0.12345569927692412
1725629109274673200,7.469673095703125,-0.4176093259990215,-0.0048322424620389935,0.10763824468106031
1725629109284626200,7.479626220703125,-0.658080462372303,0.0738081635326147,0.09724573774337768
1725629109294579000,7.489578857421875,-0.839931651994586,0.039671500653028484,0.23874942714720962
1725629109304532000,7.499531982421875,-0.6288537833660841,0.26859248448610307,0.4184931230962276
1725629109314485000,7.509485107421875,-0.44869069296121594,0.5693482859522104,0.47611675228625533
1725629109324438000,7.51943798828125,-0.30192077185856175,0.6596838059157133,0.4415224087670445
1725629109334391000,7.52939111328125,-0.3009159421975724,0.7051496720612048,0.3253960294649005
1725629109344344000,7.539343994140625,-0.8469628658056259,0.5411527035593986,0.24487813916057347
1725629109354297000,7.549297119140625,-0.8381815934568643,0.2762579045474529,0.4815490064680576
1725629109364250000,7.55925,-0.228327109593153,0.5608621971577405,0.6653811407744884
1725629109374203100,7.569203125,-0.45030514242053027,1.1630740573137999,0.27493367020636794
1725629109384157200,7.5791572265625,-1.0803437516570091,1.0319313106656074,0.07138502803891897
1725629109394110200,7.589110107421875,-0.6038935296326875,0.862930834788084,0.14865093080997466
1725629109404063200,7.599063232421875,-0.3656699164578691,0.8426186991214751,0.29555969412773847
1725629109414016300,7.609016357421875,-0.46895022165775296,0.7513105347335338,0.0879167683839798
1725629109423969000,7.618968994140625,-0.1233826340407133,0.3764087160825729,0.03329056744426489
1725629109433922000,7.628922119140625,0.21965751745793968,0.3385083167552948,0.0645844081133604
1725629109443875000,7.638875,0.018797054928541182,0.5057908827990293,0.05216974769830703
1725629109453828000,7.648828125,-0.034274025523662564,0.47989831665158267,-0.1451853005260229
1725629109463781000,7.658781005859375,-0.19921265878975392,0.3140992671638727,-0.28655250406861305
1725629109473734100,7.668734130859375,-0.1472983471572399,-0.007545593073964118,-0.22002806780338285
1725629109483687200,7.678687255859375,-0.07737776564769447,-0.08172025183141231,-0.1993333625599742
1725629109493640200,7.68864013671875,0.15292568551972507,0.0038677813440561293,-0.09636515551656484
1725629109503593200,7.69859326171875,0.32542963947355746,0.28811259299218656,-0.03019961569160223
1725629109513546200,7.708546142578125,0.5590004949390888,0.4358306268662214,0.08391863865852356
1725629109523499300,7.718499267578125,0.7281143680632114,0.5387988339096308,0.0019271686702966688
1725629109533452000,7.7284521484375,0.5400789368480443,0.3495610411673784,0.006048632514476775
1725629109543405000,7.738405029296875,0.5979121171355247,0.23527006059885025,-0.04811842648088932
1725629109553358000,7.748358154296875,0.5936250874660909,-0.036571781072020526,-0.0075844637796282765
1725629109563311000,7.75831103515625,0.5419095132760703,-0.29810324113070963,0.1532721608698368
1725629109573265200,7.76826513671875,0.6214448222838341,-0.39789983240067955,0.26989567603915926
1725629109583218200,7.77821826171875,0.7032336093068122,-0.37101299451887604,0.5268208113461732
1725629109593171200,7.788171142578125,0.5672773248970508,-0.26806232313215733,0.42311786028742787
1725629109603124200,7.798124267578125,0.46679801205992694,-0.27072774294912816,0.2704027487784624
1725629109613077200,7.8080771484375,0.6445470270603895,-0.019719430470466613,0.09954349329173565
1725629109623030300,7.8180302734375,0.4656476729810238,-0.14394085342288016,0.28502865550220013
1725629109632983300,7.8279833984375,0.07074965274482965,-0.48118484933078287,0.30709844849109647
1725629109642936300,7.837936279296875,0.2869020481586456,0.398676661992073,0.7377016960978507
1725629109652889300,7.847889404296875,0.10814093350619076,0.46067982144057745,0.2655851193636656
1725629109662842000,7.857842041015625,-0.09426584514975547,-0.03570376606583595,0.855362445360422
1725629109672795100,7.867795166015625,0.4423451233267784,0.4962602533876896,0.8027700883358716
1725629109682748200,7.877748046875,0.49752077484279866,0.12221651287078857,0.8178495840460062
1725629109692701200,7.887701171875,0.5983033084101974,-0.025683891832828522,0.7433721429497003
1725629109702654200,7.897654296875,0.6000340777255594,-0.15082593676149844,0.9940326649039983
1725629109712607200,7.907607177734375,0.547795940966159,-0.5180243414282798,1.097184996342659
1725629109722560300,7.917560302734375,0.4416653243690729,-0.6378127503693103,1.2326508668869733
1725629109732513300,7.92751318359375,0.35047537953332064,-0.6173351950079202,1.1545686792969703
1725629109742466300,7.93746630859375,0.2092835325576365,-0.4559685750097036,1.0059908137232065
1725629109752419300,7.94741943359375,0.10568243443816899,-0.18901567442417144,0.7911930477887391
1725629109762373000,7.957373046875,0.37568683154881,0.05889584108293056,0.38814065493047234
1725629109772326100,7.967326171875,0.2635107973076403,0.2300684003025293,0.5093874459862708
1725629109782279200,7.977279052734375,0.05235328757166862,0.2445394087255001,0.3139595664322376
1725629109792232000,7.98723193359375,-0.0525941105902195,-0.16809212886095046,0.19150281506478786
1725629109802185000,7.99718505859375,0.06710574328452348,-0.04579027579426765,0.5621943225443363
1725629109812138000,8.007137939453125,0.3076604662880301,0.026562428233027457,0.45237814930230374
1725629109822091000,8.017091064453124,0.3863742297798395,0.03881342251896858,0.16638590946495532
1725629109832044000,8.0270439453125,0.08505538760349154,-0.007124152791500091,-0.05208703785091638
1725629109841997000,8.0369970703125,-0.06872925283312797,-0.27480536765158176,-0.17512831110805271
1725629109851950000,8.0469501953125,0.2490408117979765,-0.37604572798907754,-0.228811970500648
1725629109861903000,8.056903076171874,0.15896496568396687,0.0722048199892044,-0.06406652171909809
1725629109871856000,8.066856201171875,-0.18456059471145272,0.03738835815191269,-0.31207565238177776
1725629109881809200,8.07680908203125,0.04011223015785217,-0.16915888130962847,-0.5147492652803659
1725629109891762200,8.08676220703125,-0.0026432079851627347,-0.02231763027012348,-0.181826931963861
1725629109901715000,8.09671484375,0.006841390327364206,0.2948077067166567,-0.3919064372047782
1725629109911668000,8.10666796875,0.061510261365026235,0.06358312211632729,-0.8059405350655316
1725629109921621000,8.11662109375,-0.1635901412665844,-0.19726152472198008,-0.5035451496988534
1725629109931574000,8.126573974609375,-0.1585345383774489,-0.26498189277350903,-0.47010436012893914
1725629109941527000,8.136527099609374,0.1279157474257052,-0.15909633697867392,-0.5852025654271245
1725629109951480000,8.14647998046875,0.1627133584320545,0.11075403861403464,-0.7604252768203615
1725629109961434000,8.15643408203125,-0.4111912756502628,-0.0006453121662139892,-1.1185910647258162
1725629109971387100,8.16638720703125,-0.9160012576531619,-0.48135143806934355,-0.5073565246805548
1725629109981340200,8.176340087890624,-0.24535890841484068,0.6310480785399675,-0.18088000650256872
1725629109991293200,8.186293212890625,0.14630765561945736,1.287721596723795,-1.0965458216562867
1725629110001246200,8.19624609375,0.5514614046711475,0.2245195340037346,-1.779603488896787
1725629110011199200,8.20619921875,0.27631814683470873,-0.26269173600971696,-0.9925570393934845
1725629110021152300,8.21615234375,-0.14459953652732074,-0.22055238393843174,-1.0423138807311654
1725629110031105000,8.22610498046875,-0.12302782925367355,-0.23772972871065137,-1.148746549014747
1725629110041058000,8.23605810546875,-0.18243103533685207,-0.04322013304531574,-0.7264505265042185
1725629110051011000,8.246010986328125,-0.3983598145952448,0.08955109158754349,-0.5201899950295686
1725629110060964000,8.255964111328124,-0.5029477317949756,-0.24471242720484732,-0.6781912302479147
1725629110070917000,8.265917236328125,-0.11943418867588043,-0.5120563729345798,-0.7957002960801124
1725629110080870100,8.2758701171875,0.2459919638876803,0.11962883446514606,-0.8240978307858109
1725629110090823200,8.2858232421875,0.34147768795490263,0.6784095491737127,-1.05496877964288
1725629110100776200,8.295776123046876,-0.2850216412395239,0.827059310939908,-1.0120780246824026
1725629110110729000,8.30572900390625,-0.6470429355293512,0.5759294179081916,-0.708722854372859
1725629110120682000,8.315681884765626,-0.08025894710719585,0.10765665712058543,-0.9251599119469522
1725629110130634800,8.325634765625,-0.703980043759942,0.13357669579684733,-0.39152094501852985
1725629110140589000,8.335589111328124,-0.29456863726377486,-0.09812836579680442,-0.31486060692518947
1725629110150541800,8.345541748046875,-0.06497839413331821,-0.18755904587507247,-0.12039397361874579
1725629110160494800,8.355494873046876,-0.21338848365843294,-0.06960662018954754,0.3713344815582037
1725629110170448000,8.36544775390625,0.49785424458086486,-0.21970073554515837,0.3762187464684248
1725629110180401000,8.37540087890625,0.5550234080016613,-0.04740881690680981,0.30967092932760715
1725629110190354000,8.38535400390625,1.1079758549481629,0.0632382542014122,0.18904227017015218
1725629110200307000,8.395306884765626,0.7670002712965012,0.014379823008179663,0.05801233624666929
1725629110210260000,8.405260009765625,0.7583323961943388,-0.03852817583680153,-0.17944120587110518
1725629110220213000,8.415212890625,0.6709978116124868,-0.13083119648098945,0.05988660568594932
1725629110230166000,8.425166015625,0.4476034822463989,-0.12287468451857567,-0.19031272849738598
1725629110240119000,8.435119140625,0.5993693302065134,-0.4009305783987045,-0.36723172241449353
1725629110250072000,8.445072021484375,0.5822545292764901,-0.5668582227021456,-0.31339141115546226
1725629110260024800,8.45502490234375,0.36433015575408934,-0.5887625959962606,-0.3529050908982754
1725629110269977900,8.464977783203125,0.5184229853570461,-0.7113321600884198,-0.391994407749176
1725629110279931000,8.474930908203126,0.62707099160254,-0.6337509077578782,-0.42904286642223594
1725629110289884000,8.4848837890625,0.4018880617866292,-0.46418110755980013,-0.4381225371956825
1725629110299837000,8.4948369140625,0.4349544285535812,-0.3838081786841154,-0.30629414637088775
1725629110309790000,8.5047900390625,0.5878898682823405,-0.27333529509902,-0.27797961377352476
1725629110319743700,8.51474365234375,0.3922486747711897,0.02659574598073959,-0.34898148771375415
1725629110329696800,8.52469677734375,0.3452630517125129,-0.16773440146446228,-0.5674073810175061
1725629110339649800,8.53464990234375,0.4742056214353069,-0.3181090873271227,-0.302780000770092
1725629110349602800,8.544602783203125,0.19022212760448454,-0.05963876840472221,0.1044464629024267
1725629110359555800,8.554555908203126,0.08601064250171184,-0.06856383313834667,0.01470803204923868
1725629110369508900,8.5645087890625,0.20533552558422088,-0.24674130268394945,-0.08298048102557659
1725629110379462000,8.5744619140625,-0.1079109241425991,-0.14983283407092093,0.08024842571318148
1725629110389415000,8.584414794921875,-0.1834761422093026,-0.31231121470332146,0.0295952200576663
1725629110399368000,8.594367919921876,-0.025790256550442425,-0.43151510175466534,0.008623159177601336
1725629110409320700,8.60432080078125,-0.39158758051395415,-0.061813189834356304,-0.10294248808026313
1725629110419273700,8.614273681640626,-0.5761977499881759,-0.1041594626545906,-0.361626449753344
1725629110429226800,8.624226806640625,-0.23551495700431987,-0.04956804076731205,-0.1725695665359497
1725629110439179800,8.6341796875,-0.3510585131835192,0.5033323837310075,-0.17424714435935018
1725629110449132800,8.6441328125,-0.7267851652860641,0.4090560171872377,-0.1265320379823446
1725629110459085800,8.6540859375,-0.5497586193412543,0.14142273312211037,-0.003620236323773861
1725629110469038800,8.664038818359375,0.039344168394804,0.1769961508065462,0.19416648131608963
1725629110478992000,8.673991943359376,-0.06525248010065406,0.548764932128787,0.003691255733370781
1725629110488945000,8.68394482421875,-0.19965868552420288,0.4607189844071865,-0.19357289933711289
1725629110498897700,8.693897705078125,-0.17136950656380504,0.5350742604285478,-0.16162994710952042
1725629110508850700,8.7038505859375,-0.5091016147822142,0.4554939432352781,-0.03425882795453072
1725629110518804700,8.7138046875,-0.06411328347027301,0.4484188902825117,0.23876959315240381
1725629110528757800,8.7237578125,0.2902688942432403,0.7365139476180076,0.1382122466430068
1725629110538710800,8.733710693359376,-0.5063759526779875,0.6861883664816617,-0.09723930800259113
1725629110548663800,8.743663818359375,-0.3593335895758122,0.32776889607608317,-0.11385346593409776
1725629110558616800,8.753616943359376,-0.06881576207280159,0.2836445076674223,0.043993163244426245
1725629110568569900,8.76356982421875,-0.10794365736842154,0.16545710418224333,0.0173018479347229
1725629110578523000,8.77352294921875,0.0568816151836887,0.12451660650670528,0.05848141506314277
1725629110588476000,8.783475830078125,0.03246441881842911,0.17505962978601455,0.0625435499355197
1725629110598429000,8.793428955078125,-0.2300654776930809,0.2569575762718916,0.093088033542037
1725629110608382000,8.8033818359375,0.30522213322520253,0.4710761277705431,0.08044131793677807
1725629110618335000,8.8133349609375,0.24050394266434014,0.7102560552895069,0.06431377447843552
1725629110628287700,8.823287841796875,-0.3503513147622347,0.23159224886894225,-0.12993804703354836
1725629110638240800,8.83324072265625,0.34439839770719405,-0.08097031024694443,-0.07485270414948463
1725629110648193800,8.84319384765625,0.507299022339657,0.11977204232811928,0.07625292633622885
1725629110658146800,8.853146728515625,0.3826497293639928,0.24978198555409906,-0.11736644249111414
1725629110668099800,8.863099853515624,0.7219295419484376,0.5094669409632683,-0.14277064059972763
1725629110678052900,8.873052978515625,0.7611575366176664,0.6871224324613809,-0.21855916429460048
1725629110688006000,8.883005859375,0.31631270542964335,0.4757248303592205,-0.3906289646148681
1725629110697960000,8.8929599609375,0.3441496836431324,0.16960837864279746,-0.24122838448137043
1725629110707913000,8.902912841796875,0.4415956201337278,-0.5048118086338043,-0.23387743719667195
1725629110717866000,8.912865966796875,0.054533700350672,-0.3728384563803673,0.10642682306468486
1725629110727819000,8.922819091796875,0.543054153266549,-0.16801731005907058,0.013374445357918738
1725629110737772000,8.93277197265625,1.0187645167089998,-0.050661681222915644,0.33756372938156126
1725629110747725000,8.94272509765625,1.1408411827176808,0.20256021565198898,0.22086510314941404
1725629110757677800,8.952677734375,0.74617024923563,0.3059866878569126,-0.1085056751653552
1725629110767630800,8.962630859375,0.6471034335449337,0.371617390152812,-0.12156360192000865
1725629110777583900,8.972583984375,0.5977794306665659,0.12034370473623275,-0.023097382470965384
1725629110787537000,8.982536865234374,0.567340453261137,0.6298620836257934,0.30543548371493817
1725629110797490000,8.992489990234375,0.337249987257272,-0.0071843585461378095,0.1641243942737579
1725629110807443000,9.00244287109375,0.272876445415616,0.19955401957333085,0.46688685938715935
1725629110817396000,9.01239599609375,0.8687259309329092,0.5802151324033736,0.3420984502017498
1725629110827349000,9.022348876953124,0.8110667920380831,0.12265841141939163,0.5819722052037716
1725629110837302000,9.032302001953125,0.6129831372782588,-0.2446954760700464,0.7147036823481321
1725629110847255000,9.042255126953124,0.7008081357255578,-0.6887976721972227,0.8317045063972472
1725629110857208000,9.0522080078125,0.7592894046582281,-1.0499813466191292,0.9399912781149148
1725629110867160800,9.062160888671874,0.4104138615369797,-1.143466855046153,1.2762304808944462
1725629110877113900,9.07211376953125,0.19112594457641244,-0.878669671189785,1.3588029656410217
1725629110887068000,9.08206787109375,0.0701551939830184,-0.5510907447278499,1.2005495092272758
1725629110897021000,9.09202099609375,0.13401830208450555,-0.3801473180890083,0.825515004107356
1725629110906974000,9.101973876953124,0.5024111772328614,-0.25280513276755806,0.6890232976466417
1725629110916927000,9.111927001953125,0.21658304191604255,0.2281388935446739,0.5988122808456421
1725629110926880000,9.1218798828125,-0.026315759995579717,0.27449966270327564,0.31193945878148077
1725629110936833000,9.1318330078125,0.15616510583236812,-0.13277531628608702,0.30963059731721876
1725629110946786000,9.1417861328125,0.07894260381162166,-0.01415302851498127,0.7336766783654689
1725629110956739000,9.151739013671875,-0.25152356852442026,0.1837923868179321,0.49038288578689093
1725629110966692000,9.161692138671874,-0.12549918780326844,-0.26265783374011514,0.38991877051889895
1725629110976645000,9.17164501953125,0.15633315587565302,-0.09935644628703594,0.7393477097392082
1725629110986598000,9.181597900390624,-0.12444529483616351,0.16397124953866005,0.366932447206974
1725629110996551000,9.191551025390625,0.04306304278746247,-0.13108429445922373,0.07719517562240362
1725629111006504000,9.20150390625,0.15859057941362262,-0.10946867497861384,0.0028282091632485388
1725629111016457000,9.21145703125,0.41881387948319315,-0.09832651871740818,0.1626087290138006
1725629111026410000,9.221409912109374,0.33808570742905136,-0.07258066756427288,-0.08791150768697262
1725629111036363000,9.231363037109375,0.14255129876062272,-0.1791927840679884,-0.24553747985213994
1725629111046316000,9.24131591796875,0.37891324624940753,-0.01636252125799656,-0.14679507381021975
1725629111056269000,9.25126904296875,0.2762216641902923,0.08958674742281436,-0.2650727859273553
1725629111066222000,9.26122216796875,0.3407219011515379,0.329035555011034,-0.3273459944888949
1725629111076176000,9.27117578125,-0.417791112306714,0.33327976845204826,-0.4425654880791902
1725629111086129000,9.28112890625,0.14153613036870955,0.14860592262446878,-0.2919409191086888
1725629111096082000,9.29108203125,0.37436003992445765,0.6569611029535531,-0.49256812087148427
1725629111106035000,9.301034912109374,-1.1005593681465833,0.7400695942729711,-0.9755191030919551
1725629111115988000,9.310988037109375,-1.5653724169343708,0.5446802931636572,-1.2008856093138456
1725629111125941000,9.32094091796875,-0.3747620448540896,0.6302227336317301,-0.5054451381012797
1725629111135894000,9.33089404296875,0.4868588033139705,0.9141764533787965,-1.0386863378837703
1725629111145847000,9.340846923828124,-0.3953198258448392,0.4736030158996582,-1.4811603482872246
1725629111155800000,9.350800048828125,-0.09895780235826969,-0.4024982661068439,-1.1387404110461472
1725629111165753000,9.360753173828124,0.5275315899640322,-0.40242695443630216,-0.609825257769227
1725629111175706000,9.3707060546875,-0.285058429585956,-0.14003683172166348,-0.45630350605249403
1725629111185659100,9.3806591796875,-0.528807637781836,-0.301565948805213,-0.3454918920323252
1725629111195612000,9.39061181640625,-0.5130020562868565,-0.17210896328687667,0.2097299611508846
1725629111205565000,9.40056494140625,-0.2769896528881043,-0.16773030981123446,0.09269055865705013
1725629111215518000,9.41051806640625,-0.06821428904831409,-0.21214520559906958,0.07458060920983553
1725629111225471000,9.420470947265626,-0.06107669225335121,0.22039105589687824,-0.3502127830743789
1725629111235424000,9.430424072265625,0.23766660034656523,0.3307692469358444,-0.6397019251167774
1725629111245377000,9.440376953125,0.23537700983835383,0.6972229707151651,-0.6059332187667489
1725629111255330000,9.450330078125,-0.2702443616126664,1.0406406868219376,-0.5198129784107208
1725629111265284000,9.4602841796875,-0.3983329631209373,0.3505634962081909,-0.5260606406286359
1725629111275237000,9.470237060546875,-0.6108475865542888,-0.11350187601745128,-0.2626049345090985
1725629111285190100,9.480190185546874,-0.23573650906682014,-0.030706688430905342,0.12949644074589015
1725629111295143200,9.49014306640625,-0.09193303655432537,-0.06707797849476337,0.11603168675601482
1725629111305096200,9.50009619140625,0.002598802587855607,0.16294658266603945,0.18225421746522188
1725629111315049200,9.51004931640625,0.32773440928459163,0.3149444858163595,0.4684752976223826
1725629111325002000,9.520001953125,0.2620359207157977,-0.010718962413072585,0.43911388632059095
1725629111334955000,9.529955078125,0.20828851190460845,-0.1845955198943615,0.5919663604736328
1725629111344908000,9.539907958984376,0.45656186472773547,0.08236731756329536,0.6572706072941422
1725629111354861000,9.549861083984375,0.6913146234542131,-0.15963117450773714,0.6500745583102107
1725629111364814000,9.55981396484375,0.46227615072131156,-0.14787059408724307,0.3805024151369929
1725629111374767000,9.56976708984375,0.23753219684455543,0.004202127864956855,0.40375761851817366
1725629111384720100,9.57972021484375,0.35950730217490345,-0.2099742913007736,0.3654085986405611
1725629111394673200,9.589673095703125,0.23683774830698964,0.16853110480010508,0.32317426176220176
1725629111404626200,9.599626220703126,0.09932199602816254,0.10456979702115059,0.17692542365789413
1725629111414579200,9.6095791015625,0.3767968751499429,-0.1892307784795761,0.2331540913581848
1725629111424532200,9.6195322265625,0.6766828715115785,-0.3091413524955511,0.22574469188451765
1725629111434485000,9.629485107421875,0.8626146084457635,-0.2750648953706026,-0.044134033019840715
1725629111444438000,9.63943798828125,0.3371434216102585,-0.13047697621583937,-0.015911270359158514
1725629111454392000,9.64939208984375,0.09235328952670097,-0.3237707663506269,-0.049884851631522176
1725629111464345000,9.659344970703126,0.19696572011318056,-0.4689437919169664,-0.020964169834554194
1725629111474298000,9.669298095703125,0.22047058740649372,-0.3097182756006718,-0.17428747636973857
1725629111484251100,9.679251220703126,0.2719406624028459,-0.24394962613880633,-0.43191286890059705
1725629111494204200,9.6892041015625,0.11013327636718749,-0.23062018896639347,-0.11880465860068798
1725629111504157200,9.6991572265625,0.05266070955302566,-0.24795009395182133,-0.0762654935568571
1725629111514110200,9.709110107421875,0.205965640181303,-0.09262684577107429,0.08234276764392852
1725629111524063200,9.719063232421876,-0.03664367726445198,-0.05912848079502582,0.4328676854074001
1725629111534016300,9.729016357421875,-0.2864373532563448,-0.22512568320333956,0.26612229498028755
1725629111543969300,9.73896923828125,-0.2356634072979912,-0.4173918838560581,0.13704934034347532
1725629111553922300,9.74892236328125,-0.4479308510372415,-0.2574590960532427,0.07360796478539705
1725629111563875000,9.758875,-0.5517138085296377,-0.14561901576817035,-0.2222697092503309
1725629111573828000,9.768828125,-0.8229477839678525,0.08980243600010872,-0.24248364523947238
1725629111583781000,9.778781005859376,-1.119225563237071,0.3835118260860443,-0.21721973238438366
1725629111593734100,9.788734130859375,-0.6825339356273412,0.3721814537763595,-0.13941139329969882
1725629111603687200,9.798687255859376,-0.31833650287482884,0.6773164932399988,-0.3162096834465861
1725629111613640200,9.80864013671875,-0.8731400941133499,0.7643523871362209,-0.4705702240750193
1725629111623593200,9.81859326171875,-0.9135077603369951,0.24414544097185134,-0.4917056588232517
1725629111633546200,9.828546142578125,-0.6433890891969204,0.14617664965093136,-0.2476934888422489
1725629111643499000,9.8384990234375,-0.5109236060449853,0.33494857844710346,-0.0881213510453701
1725629111653452000,9.8484521484375,-0.4814502588013187,0.3797591955542564,0.09692132809460162
1725629111663405000,9.858405029296875,0.14838614239394665,0.36821839536428447,0.1658963723823428
1725629111673358000,9.868358154296875,0.042917350706458086,0.5099368965625762,-0.16399492267519233
1725629111683311000,9.87831103515625,-0.8637982652723789,0.267397137221694,-0.07120265720933676
1725629111693264100,9.88826416015625,-0.7734217557113617,-0.00793897630572319,0.1757937892794609
1725629111703217200,9.898217041015625,-0.8939443972110748,-0.03707914607226848,0.3603644669935107
1725629111713171000,9.9081708984375,-1.004979006332159,-0.06265782396495342,0.488260486805439
1725629111723124000,9.9181240234375,-0.20933950052857397,0.09352642495930194,0.4007955538421869
1725629111733077000,9.928076904296875,0.17786891505308447,0.477277320498228,0.2977075198113918
1725629111743030000,9.938030029296876,-0.7058510983288288,0.5114566534757614,-0.012418752068281172
1725629111752983000,9.947983154296875,-0.40010523349046706,0.22833821550905703,-0.013341419871151446
1725629111762936000,9.95793603515625,-0.23548750274181365,0.4013537722468376,0.14424100541323423
1725629111772889000,9.96788916015625,-0.20084647053666413,0.590595072120428,0.10059212556183338
1725629111782842000,9.977842041015625,-0.07729659017026425,0.41362580932080745,0.008785656262934207
1725629111792795100,9.987795166015625,0.051636298408731816,0.05141220732927322,0.09589783026576042
1725629111802748000,9.997747802734375,0.024957477254420518,-0.02862403693795204,0.3622594869598746
1725629111812701000,10.007700927734374,0.17908881223686038,0.22831132750213146,0.4090504642292857
1725629111822654000,10.017654052734375,0.5062785201855003,0.5375368511497974,0.26671646148115397
1725629111832607000,10.02760693359375,0.28537118532955646,0.6658563570708036,0.20790566833317278
1725629111842560000,10.03756005859375,0.3161949242688715,0.5458464143335819,-0.019333646023273466
1725629111852513000,10.047512939453124,0.42710269213989377,0.3513566924124956,-0.03167699476778507
1725629111862466000,10.057466064453125,0.350106400090456,0.4167787203937769,0.15840923149734734
1725629111872419000,10.067419189453124,0.46277021784856914,0.5928875669717788,0.1966553755223751
1725629111882372000,10.0773720703125,0.5484399379581213,0.5522714789450168,0.2830158543750644
1725629111892325000,10.0873251953125,0.4179308130383491,0.5657505537211894,0.2996715133607387
1725629111902279200,10.097279052734375,0.15103461107611654,-0.3095242143332958,-0.014692542219161987
1725629111912232200,10.107232177734375,-0.13319558752477167,-0.10591361284554004,0.2777998732924461
1725629111922185200,10.117185302734375,0.2962204961240291,0.014683774390816688,0.5818395187348127
1725629111932138000,10.127137939453124,0.801294170564413,0.3866664907246828,1.194659282144904
1725629111942091000,10.137091064453125,0.5836556282460689,0.5640203689277172,1.1531734255462884
1725629111952044000,10.1470439453125,0.41418695033490655,0.9022253188222646,0.8616916483819484
1725629111961997000,10.1569970703125,0.6335109615221619,0.34032208817899223,0.8455728727519511
1725629111971950000,10.1669501953125,0.4537345323473215,-0.8056506122082472,0.8731155441939831
1725629111981903000,10.176903076171875,0.5677312061443924,-0.030604981622099875,1.0198135873705148
1725629111991856000,10.186856201171874,0.9184791190087794,-0.3831500070363283,0.9482382974565029
1725629112001810200,10.19681005859375,0.8281962060153484,-0.5944353809356689,1.1704092225074767
1725629112011763200,10.20676318359375,0.43554070400893685,-0.6111538760244846,1.024175289711356
1725629112021716200,10.21671630859375,0.21548019524067638,-0.7659077998846769,1.04557814322412
1725629112031669200,10.226669189453125,0.2250219305679202,-0.8182271851867436,1.3402350432932375
1725629112041622300,10.236622314453125,0.17100772404670714,-0.6751642836421727,0.9318120633125304
1725629112051575000,10.246574951171874,0.1002580713018775,-0.6129197166532278,0.6889110694438219
1725629112061528000,10.256528076171875,0.2733196591384709,-0.29075112480223175,1.096248592275381
1725629112071481000,10.266481201171874,0.12709317899644373,-0.024117957690358162,0.6239911457657814
1725629112081434000,10.27643408203125,-0.03872399066984653,-0.26302432896494865,0.325974998396635
1725629112091387100,10.28638720703125,0.27092545747831465,-0.15509937629699705,0.6389022991716862
1725629112101340200,10.296340087890625,-0.06811535871848463,0.024831074395775792,0.3425257357031107
1725629112111293000,10.30629296875,-0.012503507742285728,-0.22281389912962912,0.29541882435232397
1725629112121246000,10.316245849609375,-0.04880509357079863,-0.0965694459170103,0.2719344883903861
1725629112131199000,10.326198974609374,-0.3717594289720058,-0.27866613473296165,-0.038837680177390574
1725629112141152000,10.336152099609375,0.2467038932830095,-0.31825930945277214,0.02034779150187969
1725629112151105000,10.34610498046875,0.059123220098018646,0.009501987838745117,-0.037657822743058206
1725629112161058000,10.35605810546875,0.09491890223100781,0.15685644909739493,-0.15548662204891442
1725629112171011000,10.366010986328124,0.17754560138285158,0.22070962032675742,-0.3021773587018251
1725629112180964900,10.37596484375,-0.09145137225091457,0.24565233840346334,-0.25409283449053766
1725629112190918000,10.38591796875,-0.1804040595538914,0.17591712339818477,-0.3110714437752962
1725629112200871000,10.395870849609375,0.034247722038626666,-0.07540507733523845,-0.2818967872172594
1725629112210824000,10.405823974609374,0.19365911631584165,0.19966507873237133,-0.24043781862556932
1725629112220777000,10.41577685546875,-0.2981589168407023,-0.05170154566466808,-0.4104977404281497
1725629112230730000,10.42572998046875,0.22108707533702254,-0.0952449193149805,-0.404911464728415
1725629112240682800,10.435682861328125,-0.2663449978202581,0.44429567287266253,-0.5236740377530456
1725629112250635800,10.4456357421875,-0.7659194172572344,0.36670448366999625,-0.8407058512374759
1725629112260588800,10.4555888671875,-0.6346153425674885,0.36740064924061294,-0.7923866414874792
1725629112270541800,10.465541748046874,-0.472566001002118,0.5354167902559042,-0.6345464420497418
1725629112280494800,10.475494873046875,0.09263093742430209,0.5527794284671544,-0.9672992640182375
1725629112290448000,10.48544775390625,0.1586870985906571,0.3218979582160711,-0.8673530351445078
1725629112300401000,10.49540087890625,0.2213987716346979,0.21565818215608595,-0.8514537474840879
1725629112310354000,10.50535400390625,-0.5874561895728111,0.08653905028998851,-0.5993871581241488
1725629112320307000,10.515306884765625,-0.3756862470269203,-0.1351817929059267,-0.30274580623954533
1725629112330260000,10.525260009765624,-0.2890740949681029,0.2860866401225328,-0.3112704734787345
1725629112340214000,10.535214111328125,-0.683927435812354,0.5534066204547882,0.07454846050590276
1725629112350167000,10.5451669921875,0.3537263076206669,0.5086556245803833,0.06183160227388143
1725629112360119800,10.555119873046875,-0.15559797346889973,0.7217120998054742,0.0535500961408019
1725629112370072800,10.56507275390625,-0.22120587941110134,0.1477729789316654,-0.4235357934385538
1725629112380025900,10.57502587890625,-0.7263841832697391,0.1370861652225256,-0.14477555068135262
1725629112389979000,10.584978759765624,-0.09124445150196552,0.25185645374059673,-0.21997312274575231
1725629112399932000,10.594931884765625,-0.09101824153065681,0.32844109624922274,-0.4114443736284971
1725629112409885000,10.604885009765624,-0.43419104296565053,0.7508622064441443,0.03320610403120518
1725629112419838000,10.614837890625,0.08331948545528575,0.8096908275097608,0.12604746933579444
1725629112429791000,10.624791015625,-0.254797201633919,0.4915010761618614,-0.21475889522880315
1725629112439744000,10.634743896484375,-1.1182786377757787,0.6806710643649101,0.08103519217669963
1725629112449697000,10.644697021484374,-0.03005260843634605,0.462583024713397,-0.06397708986997604
1725629112459650000,10.654650146484375,-0.3670937752485275,0.7314560797065496,-0.549975476962328
1725629112469602800,10.664602783203126,-0.08838380137383937,0.5404524463355541,-0.6337263578385114
1725629112479555800,10.674555908203125,0.4766232405036688,0.018902853390574455,-0.45054859578758477
1725629112489508900,10.6845087890625,0.5976812309890985,0.3077963676273823,-0.17778963927179575
1725629112499462000,10.6944619140625,1.054075337934494,-0.009704232412576674,-0.07937193513959646
1725629112509416000,10.704416015625,0.4633154306411743,-0.5670072757840157,0.591938011161983
1725629112519369000,10.714368896484375,0.851662421798706,-0.8759136504799127,0.8850929822355508
1725629112529322000,10.724322021484374,0.8595780172288418,-0.988112042683363,0.9188201875314116
1725629112539275000,10.73427490234375,0.9166998343765735,-0.9452455453813076,1.0004925085678695
1725629112549228000,10.74422802734375,1.2050281159460543,-0.9249164585798978,1.1326640137419104
1725629112559181000,10.75418115234375,1.33150228626132,-0.38580081380605696,0.7802063743501901
1725629112569134000,10.764134033203124,0.7052344277352094,-0.0015647650986909865,0.6367918828889727
1725629112579087000,10.774087158203125,0.28844693951308725,-0.4271370328009128,0.6850757290646433
1725629112589040000,10.7840400390625,0.10810379809988661,-0.4949170220851898,0.4766127191096544
1725629112598993000,10.793992919921875,-0.18885728725837542,-0.35458442228734494,0.20922318067252635
1725629112608946000,10.80394580078125,-0.20014730929136276,-0.4263146105021238,-0.0546808537364006
1725629112618899000,10.81389892578125,0.24789454610599204,-0.30449557251632214,-0.249364344663918
1725629112628852000,10.82385205078125,0.20046412015557288,0.07779869447350501,-0.038680443789064885
1725629112638805000,10.833804931640625,0.3185007169932127,0.13669687364399433,-0.006860533419251442
1725629112648758000,10.843758056640626,0.1977595556383021,-0.05807575687170028,-0.023509762664139268
1725629112658711000,10.8537109375,-0.28940261453641575,-0.38054011679887767,0.4888014618143439
1725629112668664000,10.8636640625,0.031903807527292515,-0.4910644383102655,0.5272127332732081
1725629112678617900,10.873617919921875,0.08344459140598773,-0.20883388909399508,0.34555589717924595
1725629112688571000,10.88357080078125,0.03617604148639366,-0.1382359197795391,0.27660189567953347
1725629112698524000,10.89352392578125,0.2268494382560253,-0.0017535656690597532,0.1574631828188896
1725629112708477000,10.903476806640626,0.044452889710664745,0.33970015688836575,0.1231409342393279
1725629112718430000,10.913429931640625,-0.2186754841506481,0.5508645347565412,0.09404109648317098
1725629112728382700,10.9233828125,-0.3333849823921919,0.578239448416233,0.009063011899590492
1725629112738335700,10.933335693359375,-0.17185294269919393,0.5779612159967422,-0.21837270181179044
1725629112748288800,10.943288818359376,-0.30382278782129285,0.5685381386131048,-0.4981491358742118
1725629112758241800,10.95324169921875,-0.8080997589260339,0.274657483613491,-0.6266933904618024
1725629112768194800,10.96319482421875,-0.3163163586914539,0.1364186412245035,-0.573508035980165
1725629112778147800,10.97314794921875,0.03412497244179249,0.4416343447089195,-0.654686143758893
1725629112788100900,10.983100830078126,-0.2879430816441774,0.6046656830489635,-0.6886106251925229
1725629112798054000,10.993053955078125,0.07533844183981418,0.5967483340531587,-0.6452312099322677
1725629112808007000,11.0030068359375,-0.534296261793375,0.7982686852633952,-0.6486459868118166
1725629112817960000,11.0129599609375,-1.2219149533390998,0.30773207021951676,-0.3067982965007424
1725629112827913000,11.022912841796876,-0.562004973984696,0.1990478236168623,0.1341556647285819
1725629112837867000,11.032866943359375,-0.1468061797261238,0.3296364435136318,-0.02280424474328756
1725629112847820000,11.042820068359376,-0.23760171841681002,0.02262450426220894,-0.17464520376622675
1725629112857772800,11.052772705078125,0.6182330206304788,-0.0015916531056165695,-0.11098112536817789
1725629112867725800,11.062725830078126,0.50693548625689,0.3251367940068245,-0.29390345135331153
1725629112877678800,11.072678955078125,-0.29197752479203043,0.14871055204272268,-0.2233820544064045
1725629112887632000,11.0826318359375,-0.41710481054298576,-0.34756899056732654,-0.15288900677114725
1725629112897585000,11.0925849609375,0.3144967420488596,-0.22735329612493513,0.2937666732311249
1725629112907538000,11.102537841796876,0.19174246903955935,0.34540625957548615,0.1631102487951517
1725629112917491000,11.112490966796875,0.1721774984784424,0.4256441638946533,0.01613543450385332
1725629112927444000,11.12244384765625,0.43066520692706106,0.49681905631422996,0.01192220072299242
1725629112937397000,11.13239697265625,-0.06192592949382961,0.20663491774499415,-0.20389526364803312
1725629112947350000,11.14235009765625,-0.17388707887530325,-0.3295861746311188,-0.26302228313833476
1725629112957303000,11.152302978515625,0.15277648630738258,-0.0006581716477870941,0.08149462638199328
1725629112967255800,11.162255859375,0.19761413755193352,0.49948389160931106,0.0675716072306037
1725629112977208800,11.172208740234375,0.4524181890517473,0.6433709690183401,0.0612622779533267
1725629112987161900,11.182161865234375,0.9054999565787613,0.7301800684213637,0.3810159176170826
1725629112997115000,11.192114990234375,0.5223096175320446,0.8074877645075321,0.30792905409634114
1725629113007069000,11.20206884765625,0.4029863418847322,0.4679284773945808,0.025039748710393904
1725629113017022000,11.21202197265625,0.6147058694176375,-0.36511399960815905,0.07392214530110358
1725629113026975000,11.22197509765625,0.24129180510640144,0.16614157931506632,0.9932231020867824
1725629113036928000,11.231927978515625,0.4218203678227961,0.1260182432413101,0.060548284465074535
1725629113046881000,11.241881103515626,0.25121245674863457,0.34315351221263407,0.7134983982115983
1725629113056834000,11.251833984375,0.7221056291677057,0.7341711838841438,0.3723012807637453
1725629113066787000,11.261787109375,0.1437479611992836,-0.013097966504096984,0.5004582895994186
1725629113076740000,11.271739990234375,0.44343584117293355,0.769587365180254,0.4988590377092361
1725629113086693000,11.281693115234376,0.49683074675202366,0.4741214868158102,0.5486491967946291
1725629113096646000,11.29164599609375,0.3047913405925035,0.24529461100697517,0.7946388043284416
1725629113106599700,11.301599609375,0.4165831978216767,-0.025846973440051078,0.9994202031612396
1725629113116552700,11.311552734375,0.566579405760765,-0.38638475117385385,1.2343366280168295
1725629113126505700,11.321505615234376,0.5152830798961222,-0.5623883838117122,1.2253642170101404
1725629113136458800,11.331458740234375,0.6140235862419009,-0.7090390807151794,1.2083581371515988
1725629113146411500,11.34141162109375,0.47866439094245433,-0.47173079228699205,1.2853466842859982
1725629113156364500,11.351364501953125,0.11396978579014538,-0.2925818473607302,1.2390285852253435
1725629113166317600,11.361317626953126,0.06553688653260469,-0.42736791894733905,1.1222060403525829
1725629113176271400,11.371271240234375,0.04993424373120069,-0.38856794043183324,1.115394606772065
1725629113186224400,11.381224365234376,0.17063363003730772,-0.3065104194700718,0.7435042448967695
1725629113196177400,11.391177490234375,0.2158995896965265,-0.17442776162326334,0.7247679802447557
1725629113206130400,11.40113037109375,0.02612695942521095,-0.041915480187535284,0.6441986520141363
1725629113216083500,11.41108349609375,-0.2192149978548288,-0.09172025232017039,0.5202542924374342
1725629113226036500,11.421036376953126,0.0679611910700798,0.01607669005393982,0.9708031804859638
1725629113235989500,11.430989501953125,0.29971769059002396,0.4047907609581947,0.9637439096242189
1725629113245942500,11.440942626953126,0.13538228391408919,0.11933657352030276,0.6490712264865637
1725629113255895600,11.4508955078125,0.24661563047766685,-0.12454992425441741,0.3365232804179191
1725629113265848600,11.4608486328125,0.08209785297214985,-0.09305237770676612,0.21921324428915975
1725629113275801300,11.47080126953125,0.01940335025861859,0.04320493547618389,0.13694295735955236
1725629113285754400,11.48075439453125,0.11232347988784312,0.30050153444409367,0.048258711734414095
1725629113295707400,11.490707275390625,-0.3803729435384273,0.4103028023779392,-0.07870441114157438
1725629113305660400,11.500660400390625,-0.11180383992791175,0.2417763737529516,-0.23403204323649404
1725629113315613400,11.510613525390625,0.12150120420828461,0.352698754671216,-0.2589490423500538
1725629113325566500,11.52056640625,-0.02069499750435352,0.4606961880534887,-0.39079175396114585
1725629113335519500,11.53051953125,0.04395268510356545,0.2323877831608057,-0.6156295601338148
1725629113345473500,11.5404736328125,-0.22554529685489833,-0.025975568255782126,-0.4467851516008377
1725629113355426600,11.550426513671875,0.08708031755983829,-0.10180442396104335,-0.21927198873907328
1725629113365379600,11.560379638671876,0.23304310526438057,-0.037947161078453064,-0.18342530707120894
1725629113375332600,11.57033251953125,0.17475977005660534,0.08121288683116436,-0.4934086633488536
1725629113385285600,11.58028564453125,-0.6223685130000114,-0.08887363071739673,-0.23655980814844368
1725629113395238700,11.59023876953125,-0.7947246559809893,0.2850239793270826,-0.0064876084536314
1725629113405191400,11.60019140625,0.22521401907391844,0.38602702377736564,-0.44038843630105257
1725629113415144400,11.61014453125,0.4020072677195072,0.435946946722269,-0.7660144751295447
1725629113425097500,11.620097412109375,-0.12645605013668537,0.3663099313944578,-0.3854264275357127
1725629113435050500,11.630050537109375,0.7107037990570068,0.3253314397960901,-0.8372285305157303
1725629113445003500,11.64000341796875,-0.28320257258620113,0.5430763650983572,-0.8052122207909822
1725629113454956500,11.64995654296875,-0.5763731065550819,0.2828098104089498,-0.542496811644733
1725629113464909600,11.65990966796875,-0.5854770349869505,0.4061813385337591,-0.2009969118580222
1725629113474862600,11.669862548828124,-0.7814397155374289,0.27278876713216305,-0.18607669836282728
1725629113484815600,11.679815673828125,-0.6195137080907821,0.06394611020982265,-0.3971715181261301
1725629113494768600,11.6897685546875,-0.38300679917335506,0.08092997823655605,-0.09989099155515432
1725629113504721400,11.699721435546875,0.034648156065680086,0.2820586997807026,-0.24625790308117865
1725629113514674400,11.70967431640625,-0.16081307776868342,0.5470885233491659,-0.26031653131097554
1725629113524628700,11.719628662109375,-0.21262568259239195,0.08751929349899291,-0.20727672277987003
1725629113534581500,11.72958154296875,-0.38618309112191196,-0.22561258993744848,-0.13663023814857006
1725629113544534500,11.739534423828125,-0.2332026066750288,-0.37222412387430664,-0.022508768928050992
1725629113554487600,11.749487548828125,0.024907080507744102,0.05183949283063411,0.12291706235557794
1725629113564440600,11.759440673828125,-0.12308102074563503,0.7050105558514594,0.4793474047705531
1725629113574393600,11.7693935546875,0.037798710784781725,0.35512627407908437,0.2677586640104651
1725629113584346600,11.7793466796875,-0.041413978672493246,0.10404080471098423,0.30490736818760633
1725629113594299600,11.789299560546874,0.022443302476406097,0.2469447163015604,0.5110173852756619
1725629113604252700,11.799252685546875,0.5005032977849245,0.03679857556521892,0.5973764028236269
1725629113614205700,11.809205810546874,0.6265355695515871,-0.19396365222036838,0.6520815142184495
1725629113624158700,11.81915869140625,0.5828659391731024,0.03567044831812381,0.6249693431481719
1725629113634111500,11.829111572265624,0.6243856980413198,0.12428338227272033,0.3644695642247796
1725629113644064500,11.839064453125,0.41086339540276673,0.18034429219067097,0.36752076848894355
1725629113654017500,11.849017578125,0.6739502316772937,0.2192722810000181,0.27290567151010037
1725629113663970600,11.858970458984375,0.31214992319438606,0.23873218375146388,0.003186521081626415
1725629113673923600,11.868923583984374,0.14245620435569434,-0.19817396339178084,0.13059884902983904
1725629113683876600,11.878876708984375,0.23392566025257108,-0.4734457795113325,0.5351730446279048
1725629113693830400,11.888830322265624,0.3852308684309944,-0.34727146892547606,0.24189561621844768
1725629113703783400,11.898783447265625,0.4969032639989629,-0.5576145935386418,0.16767770284116268
1725629113713736400,11.908736328125,0.48288175290916113,-0.40487084045708177,0.16079700341671704
1725629113723689500,11.918689453125,0.03385901498198509,-0.08265139520168303,0.21670535312145947
1725629113733642500,11.928642578125,0.16280808751080184,-0.03110240975022316,0.1928352327123284
1725629113743595500,11.938595458984375,0.37839258337616916,0.013667875346541404,-0.024970482866466043
1725629113753548500,11.948548583984374,0.3220879278302192,0.02822539300918579,-0.43771921709179873
1725629113763501300,11.958501220703125,0.3207359286993742,-0.24069267016947268,-0.3970940689757466
1725629113773454300,11.968454345703124,-0.06304364494476467,-0.19323767603337763,0.0914475728586316
1725629113783407400,11.978407470703125,-0.14239008031692355,-0.24535247867405413,0.07783376578688621
1725629113793360400,11.9883603515625,-0.15513558012153952,-0.440270070618391,0.21957886273115873
1725629113803313400,11.9983134765625,-0.13638528694417326,-0.420206356754899,0.6313891470625996
1725629113813266400,12.008266357421874,0.42905316862054166,-0.05972410860061645,0.07978548437654971
1725629113823219500,12.018219482421875,0.22504797832462936,0.12514789014756678,-0.25794687957018614
1725629113833172500,12.02817236328125,-0.08099599267747253,0.011728431716561316,-0.4081681284368038
1725629113843125500,12.03812548828125,-0.1658504874140024,-0.15799685130417346,-0.6793205265387893
1725629113853078500,12.04807861328125,-0.3986082729309797,0.0891407572209835,-0.4543550023332238
1725629113863031600,12.058031494140625,-0.7705752071738242,0.505605004838109,-0.6229676479369401
1725629113872985600,12.067985595703124,-1.0709282730579375,0.33632278940975663,-0.3325619755715132
1725629113882938600,12.077938720703125,-0.7420061152935028,0.4973182380080223,-0.23697335738539693
1725629113892891400,12.087891357421874,-0.8508505208939313,0.5778314521372317,-0.3141185563862324
1725629113902844400,12.097844482421875,-0.70629650400877,0.4936737440258264,-0.24722236419916152
1725629113912797400,12.10779736328125,-0.47310445526037365,0.4283165979743004,-0.2247951360747218
1725629113922750500,12.11775048828125,-0.22320322724077848,0.3319195860147476,-0.35214287435412406
1725629113932703500,12.127703369140624,-0.8914175090819597,0.05724164413511753,-0.1128492573276162
1725629113942656500,12.137656494140625,-0.061783963739871973,-0.07140694760978221,-0.007267652915418148
1725629113952609500,12.147609619140624,-0.10950023916065692,0.2584498606562614,-0.14677198519557713
1725629113962562600,12.1575625,-1.0437883371978998,0.261126970911026,0.060656128753721714
1725629113972515600,12.167515625,-0.6367308003515004,0.12727554982602596,0.18157851016074417
1725629113982468600,12.177468505859375,0.1256927010813728,0.17175766563117503,0.32010055340528487
1725629113992421600,12.187421630859374,-0.3284608969282359,0.24609599051773548,0.318323022338748
1725629114002374400,12.19737451171875,0.17111118442118167,-0.0671814388692379,0.3773728849396109
1725629114012327400,12.207327392578126,0.3631646191060543,-0.004844517421722412,0.2457005614593625
1725629114022280400,12.217280517578125,-0.22239070528149604,0.006021159985661506,0.20286971999257802
1725629114032233500,12.2272333984375,0.05319039598293602,0.07564063965678215,0.13012421725541354
1725629114042186500,12.2371865234375,-0.13048289449997247,0.23494798903763292,0.06107084703445434
1725629114052140500,12.247140625,-0.40436172189116476,0.2919388732820749,0.0525590392768383
1725629114062093600,12.257093505859375,-0.22104849689230321,0.28709318681657314,-0.02833908251672983
1725629114072046600,12.267046630859374,0.12179865278489888,0.41081776616275306,0.1549058995515108
1725629114081999600,12.27699951171875,0.4464063814163208,0.7661994763076305,0.07315116092860698
1725629114091952600,12.28695263671875,0.05037073545232415,0.5481038378715515,-0.14629764568209647
1725629114101905700,12.29690576171875,0.16168284634053706,0.09453530974090099,-0.3802311969801783
1725629114111858200,12.306858154296876,0.1986339821189642,-0.09657529113590717,-0.18016396718770264
1725629114121811200,12.316811279296875,0.25168767304494977,0.24190496856868265,-0.2979369446530938
1725629114131764200,12.32676416015625,0.5221576418407261,0.5543471161752939,-0.1600891474083066
1725629114141717000,12.336717041015625,0.5115275267548859,0.7734487167835236,-0.11678396642804145
1725629114151670000,12.346669921875,0.45508185530304907,0.5348889669895172,-0.0817965319380164
