time,seconds_elapsed,z,y,x
1725631334862836700,0.024836669921875,1.583953198763728,-0.16663666935563087,-0.2042002379439771
1725631334872871000,0.034870849609375,1.7359920184463262,-0.3206646170288324,-0.30724209474548697
1725631334882904800,0.04490478515625,1.4509329678058625,-0.5198427890270948,-0.5936231877699494
1725631334892938800,0.054938720703125,1.0206669893294573,-0.7194663667052984,-1.1351420942932366
1725631334902974000,0.064973876953125,1.0326233845829964,-0.8010299666702747,-1.4155850294403731
1725631334913007900,0.0750078125,1.2150696174889801,-0.8846738800406455,-1.567561743672192
1725631334923041800,0.085041748046875,1.4134884955525397,-0.9000900603592396,-1.6057434441588818
1725631334933076700,0.09507666015625,1.4360294131845235,-0.7176601940661669,-1.3634889315001666
1725631334943111000,0.10511083984375,1.10937987652719,-0.5502548784255981,-1.147607315851748
1725631334953144800,0.115144775390625,0.5880372043311596,-0.5250093780100346,-1.1687030031114816
1725631334963178800,0.1251787109375,0.11720248410105705,-0.449015102609992,-1.5510644901186228
1725631334973214000,0.1352138671875,-0.3530816165089607,0.4569453110873699,-2.081777340467274
1725631334983248000,0.145247802734375,-2.101199541556835,0.7061515425801277,-1.9792961862884462
1725631334993281800,0.15528173828125,-3.0628128688931464,1.0616507416248322,-1.6921482005447148
1725631335003317000,0.16531689453125,-3.0176281577765938,1.693999965891242,-1.054076360847801
1725631335013351000,0.175350830078125,-1.830085429638624,1.307361532217264,-0.1376721484169364
1725631335023384800,0.185384765625,0.10873100835382937,0.8311077095478773,-0.09132833039313554
1725631335033419000,0.1954189453125,1.9371335994720458,1.6728472877472638,-0.7372463535457849
1725631335043454000,0.205453857421875,2.8187480919420715,3.097822807475924,-0.8554360951185226
1725631335053487900,0.21548779296875,2.6713796021580696,3.9971734476447103,-1.0556989936135708
1725631335063521800,0.225521728515625,1.8700456841051578,3.5356717884272335,-1.5101805449359118
1725631335073557000,0.235556884765625,0.9744470899462699,2.5299381643354892,-1.7117691390767693
1725631335083591000,0.2455908203125,0.19658289480805397,1.643575600555539,-1.4315407234631479
1725631335093624800,0.255624755859375,0.016516835036873817,1.0659931547433137,-0.7072476672537624
1725631335103659000,0.265658935546875,-0.12022913844585419,1.2933645710468291,0.5168656729124486
1725631335113694000,0.27569384765625,-0.2827063500344753,2.0505226627647875,2.020599818187952
1725631335123728000,0.285727783203125,-0.2205763493359089,2.574326756638288,3.4887159759849307
1725631335133761800,0.29576171875,0.012046411624550819,3.050469520148635,4.035685256868601
1725631335143797000,0.305796875,0.015184709650278091,4.0168227354884145,3.0494834317207333
1725631335153830700,0.31583056640625,0.05061491947174072,4.629208199134469,1.8768240921989081
1725631335163864800,0.32586474609375,0.29576632261574265,4.410053991556167,1.4069713687434793
1725631335173899000,0.33589892578125,0.1154571017384529,3.8065041607946157,0.13964812466502188
1725631335183934000,0.345933837890625,0.2674783857643604,3.1966023306578397,-1.0888600894592702
1725631335193967900,0.3559677734375,0.8127472924709319,2.262077501255274,-1.0392331581115721
1725631335204001800,0.366001708984375,1.1015741712123155,1.8877227950930595,0.03160246822685003
1725631335214036000,0.376035888671875,0.5880220067620278,1.0897802730441093,1.6369870159454643
1725631335224071000,0.38607080078125,1.3667203146368265,-0.14139175346195698,2.715099501419067
1725631335234104800,0.396104736328125,1.6167746873915194,-0.595778027716279,3.216916804412007
1725631335244139000,0.406138916015625,1.744931111705303,-0.8848065665096044,2.1923606986895203
1725631335254174000,0.416174072265625,1.1386182459712029,-1.267538055872917,0.42450032762177287
1725631335264208000,0.426207763671875,-0.318647431987524,-1.696398259204626,-0.20292393439784645
1725631335274242000,0.436241943359375,0.4091647382587194,-1.8345938469737768,-1.0274083533484488
1725631335284277000,0.446277099609375,0.40083296324312684,-1.9614029483318327,-2.133159006527811
1725631335294311000,0.456310791015625,-0.2216565457880497,-2.029082984372973,-2.5962042419254776
1725631335304344800,0.4663447265625,0.3016910364896059,-1.879040306943655,-2.5055931198909875
1725631335314379000,0.47637890625,1.0465788446992634,-1.3675173102334142,-2.770797715504467
1725631335324413700,0.48641357421875,0.6267723009169102,-0.1525903160855174,-3.823194598832726
1725631335334447900,0.49644775390625,-0.23847382507622242,0.30486382130682466,-4.3566947418123485
1725631335344482000,0.50648193359375,-0.73956807449162,-0.5994046937808394,-3.7300486976236105
1725631335354517000,0.51651708984375,-0.7961153066217899,-1.7756065282151101,-2.6407278587847944
1725631335364551000,0.526551025390625,-0.3836123638510704,-2.2851044488385317,-1.7744855613611636
1725631335374584800,0.536584716796875,0.4394032246559858,-2.1379750285074115,-1.6483964448407291
1725631335384618800,0.54661865234375,0.7084592350006103,-1.8087682085826993,-1.7495944273412227
1725631335394653700,0.55665380859375,0.4325491209775209,-1.7681278628975152,-1.7082088162466882
1725631335404688000,0.56668798828125,-0.4472089299708605,-1.8701694566152989,-1.3902400141730904
1725631335414722000,0.57672216796875,-1.6769851182043551,-2.3848776592329144,-0.12527268557101487
1725631335424755700,0.586755615234375,-1.9543238037258386,-2.927307835382223,0.8939949583545327
1725631335434791000,0.596791015625,-1.4653490311712025,-3.259090058752894,1.514780293816328
1725631335444824800,0.606824951171875,-1.402980545541644,-3.093315559184551,1.8238269537657499
1725631335454858800,0.616858642578125,-1.635527903178334,-1.1502590724695474,0.38148967260867356
1725631335464893700,0.626893798828125,-1.0838877078741789,-0.6414739032253622,-0.2096852452263236
1725631335474927600,0.636927734375,-1.5810919641137122,-2.3810732985138894,0.8703454949587583
1725631335484961800,0.6469619140625,-2.3951889176279306,-3.2281285187780857,1.5409981463953852
1725631335494996700,0.656996826171875,-3.435626190832257,-2.893927836088836,1.5548030921250582
1725631335505030700,0.66703076171875,-3.226477244439721,-1.6006874759435652,1.3129945696681737
1725631335515064800,0.67706494140625,-2.5666782877117393,0.04953844934664666,1.4180010045409202
1725631335525098800,0.6870986328125,-1.4207809906482696,0.47113695457968857,2.5239567518383264
1725631335535133700,0.6971337890625,-0.20415420684516428,0.7316837509825825,3.2650837462097404
1725631335545167600,0.707167724609375,0.6231722305983305,1.1678253434941173,3.394091234394908
1725631335555201800,0.717201904296875,1.2061597503244876,1.945005355760455,3.0972663426369427
1725631335565235700,0.727235595703125,2.0087235024333,2.709877967378497,3.132156454232335
1725631335575270700,0.737270751953125,2.571910343146324,3.365572995918989,3.191612851807475
1725631335585304800,0.747304931640625,2.8426258111357687,3.471248123833537,2.6926971154749393
1725631335595338800,0.7573388671875,4.302116179406642,3.6557781772762534,1.6267612438768146
1725631335605373700,0.767373779296875,3.607730477944016,3.970381010048091,0.41617432475984095
1725631335615407600,0.77740771484375,1.9328291802763937,3.7532173917651175,-0.1610977399289608
1725631335625441800,0.78744189453125,0.6907447146117687,4.070770598775148,0.13084171787500382
1725631335635475700,0.797475830078125,-0.22236206370890138,4.647779044091701,1.1188602370560168
1725631335645510700,0.8075107421875,-0.22075872016549108,5.212406731262803,2.0731939287781715
1725631335655544800,0.817544921875,0.5304869326382875,5.8925856281965965,1.684139666134119
1725631335665578500,0.82757861328125,1.864994830456376,6.282036196681856,0.007781155395507812
1725631335675613700,0.83761376953125,2.991834960350394,6.551250027936697,-1.5165543177515268
1725631335685647600,0.847647705078125,1.3105910156577825,7.059040560120343,-1.5794681623041629
1725631335695681800,0.857681884765625,-0.7898591688364743,6.799343914273381,-0.5415098464339971
1725631335705715700,0.8677158203125,-1.8885428793042898,6.634606356537342,0.5065606981277465
1725631335715750700,0.877750732421875,-2.8297499629497525,6.481525918847322,1.6537608944833277
1725631335725784800,0.887784912109375,-3.702771983641386,6.360896967428922,2.4527204846203325
1725631335735818800,0.89781884765625,-4.687892443293332,5.235321742904186,3.203457603380084
1725631335745853700,0.907853759765625,-5.857006949815154,3.405795700713992,2.8376187966287136
1725631335755887900,0.917887939453125,-6.145341076603532,0.26437866618335243,1.2320523164719341
1725631335765921500,0.927921630859375,-5.244851787793636,-2.5548969567641615,-0.036651276049017904
1725631335775955700,0.937955810546875,-5.610606423392891,-4.166469691598415,0.8194768929868936
1725631335785990700,0.94799072265625,-6.917678032752871,-5.094344415462016,2.9272733485907314
1725631335796024800,0.95802490234375,-6.936709480959177,-5.727428383743763,4.516282077178359
1725631335806058800,0.968058837890625,-6.537839926743507,-6.352008727574348,5.903789743778109
1725631335816093700,0.97809375,-6.260023686838149,-7.216147769108415,6.216727565947175
1725631335826128000,0.9881279296875,-5.657217367920279,-7.540631652164459,4.601120753291249
1725631335836161500,0.99816162109375,-5.305946015703678,-7.718408139693737,2.9807372277528046
1725631335846195700,1.00819580078125,-4.676898171070218,-7.85199126523137,1.6283692635953426
1725631335856230700,1.018230712890625,-3.185330995059013,-7.881061876893043,0.5397796616405248
1725631335866264800,1.028264892578125,-2.9062545259594916,-7.625830393761396,-0.8613497030764817
1725631335876298800,1.038298828125,-4.2168157310009,-7.201396190178394,-3.253695506232977
1725631335886333700,1.048333740234375,-5.882839894729853,-7.353164960747957,-4.899523269629478
1725631335896367900,1.058367919921875,-7.764798719468712,-7.57373312677741,-5.067113878709078
1725631335906401500,1.068401611328125,-8.391564006122946,-6.035336979573965,-4.735943065235018
1725631335916435700,1.078435791015625,-7.694395980465412,-3.586544774313271,-4.334322166484594
1725631335926470700,1.088470703125,-6.816950298112631,-2.5030194700106976,-3.6316976289868355
1725631335936504600,1.098504638671875,-4.521902839669585,-2.273390045647323,-3.7948277515262365
1725631335946538800,1.108538818359375,-3.131132371881604,-2.2317753019720317,-4.454670547395945
1725631335956573700,1.11857373046875,-2.508456984889507,-1.9228145667403935,-4.78319873740673
1725631335966608000,1.12860791015625,-1.997956609225273,-1.3662822154805063,-5.124994989791512
1725631335976641500,1.1386416015625,-0.7263128715991973,-0.9856728328377008,-4.752624150922895
1725631335986675700,1.14867578125,1.271409928870201,-0.18201164088100194,-3.988984295970201
1725631335996710700,1.158710693359375,2.5784745239675044,0.6136866093724965,-3.0387481026947496
1725631336006744600,1.16874462890625,2.7817005100518464,1.0187561872720718,-2.0775889488667247
1725631336016778800,1.17877880859375,2.414313304814696,0.04131605298966169,-0.7476648717075586
1725631336026812700,1.188812744140625,1.9091724103569983,-1.0017088986203073,-0.6835510037153959
1725631336036847600,1.19884765625,1.0097522120833395,-2.1668854811713096,-1.0983090319365263
1725631336046881800,1.2088818359375,1.9871908850610256,-3.546351295612752,-1.3744132072269917
1725631336056915700,1.218915771484375,3.950171457973122,-2.0420234222277998,-0.9786106393665075
1725631336066951000,1.228950927734375,2.2374989403158425,-1.0331827720314264,0.684425448462367
1725631336076984600,1.238984619140625,0.07330255209803581,-1.578660353052616,1.7546984724819659
1725631336087018800,1.249018798828125,-0.6041665744204073,-1.0193968232631683,3.040140433835983
1725631336097053000,1.259052978515625,1.1322364359796047,0.5705076851204037,4.522808264076709
1725631336107087600,1.269087646484375,1.7812293365329503,1.7536045397654174,4.444692758738994
1725631336117121800,1.279121826171875,1.476504631435871,2.5778514236330983,4.873983170181512
1725631336127155700,1.28915576171875,0.5680494783133268,3.181602914446592,4.509673472693562
1725631336137191000,1.29919091796875,-0.23291735999286173,3.2256741113632916,3.373752795243263
1725631336147224600,1.309224609375,-1.4995938306003809,3.454305464600026,1.3894102853506802
1725631336157258800,1.3192587890625,-2.5170371817082167,2.907224832296371,0.3396417046993971
1725631336167292700,1.329292724609375,-3.93083605838418,2.7775468975037336,-0.15458207442462443
1725631336177327600,1.33932763671875,-5.851372158798575,2.427116380025446,0.5466670830667019
1725631336187361800,1.34936181640625,-8.400016192647815,1.6419526755288243,3.134394004026055
1725631336197395700,1.359395751953125,-4.165031183227897,1.167342820674181,2.416831425115466
1725631336207429600,1.3694296875,4.276207246646285,3.0662419665589926,-2.419941666090488
1725631336217464600,1.379464599609375,3.0714953570425507,4.013365580771863,-0.47671968661546704
1725631336227498800,1.389498779296875,2.8978514392733574,4.472840994858742,2.1676818922460077
1725631336237532700,1.39953271484375,4.593817152279615,4.873770988735556,2.9817040269583464
1725631336247567600,1.409567626953125,5.424823739540576,3.9438250115558504,2.392176291808486
1725631336257601800,1.419601806640625,4.350263831982017,1.674782931984961,0.1692752011656761
1725631336267635700,1.4296357421875,0.7609813032679259,0.01717939059883356,-1.5785510474592446
1725631336277669600,1.439669677734375,-2.4662439830601213,-1.409078862416744,-2.7138363496154545
1725631336287704800,1.449704833984375,-4.4978450877338645,-1.8793992033839224,-3.405539680126309
1725631336297738800,1.45973876953125,-3.9617356390386815,-2.2855305652961135,-3.2626351840138432
1725631336307772700,1.469772705078125,-3.6185768661290405,-2.0725193905174732,-2.6615023512661455
1725631336317807600,1.4798076171875,-2.8949714999228715,-0.21064590695202348,-2.961640313094854
1725631336327841800,1.489841796875,-0.6918921310812235,1.693526210899651,-2.949520251712203
1725631336337875700,1.499875732421875,0.3575358194388449,2.344875903712213,-2.5513328345417974
1725631336347909600,1.50990966796875,0.08768179058432579,2.0807772235140205,-2.5184277592837807
1725631336357944800,1.51994482421875,-0.47833121346533297,1.7558274765118955,-2.4733143598377705
1725631336367978800,1.529978759765625,-1.120420179849118,1.6982637608155606,-2.211386009415984
1725631336378012700,1.5400126953125,-1.9455676658183334,1.304993049520254,-1.631717989501357
1725631336388047600,1.550047607421875,-1.9717685672625898,1.2554974894672633,-0.7913724960088729
1725631336398081800,1.560081787109375,-1.812183277723193,1.8244731427147984,-0.5559270788431168
1725631336408115700,1.57011572265625,-1.5140671771109104,2.254422602587938,-1.0071996049910783
1725631336418149600,1.580149658203125,-1.0574570893272757,2.3323902238875625,-1.3519295727401972
1725631336428184800,1.590184814453125,-0.5996466858431696,2.1221242561638354,-1.038778400081396
1725631336438218500,1.600218505859375,0.04033931691199541,2.2547817912891506,0.11376841799914836
1725631336448252700,1.610252685546875,1.357464995035529,2.251606668384373,1.3776818536341189
1725631336458286800,1.620286865234375,2.4745818955555556,1.7504191877275703,1.5461995144307612
1725631336468322300,1.630322265625,3.2438316993445158,0.9567369534716009,0.9985188704073429
1725631336478356200,1.640356201171875,2.7040827251031994,0.1778893002539873,1.0805354748368263
1725631336488390100,1.65039013671875,2.2138021306470037,-0.22618483686745167,1.2059954996734856
1725631336498425300,1.66042529296875,1.8926617127999663,-0.46625791383385656,1.074782610398531
1725631336508459000,1.670458984375,1.9085782438561318,-0.5418658202648162,1.3005699723809956
1725631336518493200,1.6804931640625,2.0153058034330606,-0.4366925043925643,1.3991361450731754
1725631336528527400,1.69052734375,1.9592831796988843,-0.17235533926337956,1.1669330708295107
1725631336538562300,1.700562255859375,1.962318309611082,-0.19071371051371097,0.8409615795642137
1725631336548596200,1.71059619140625,1.9391934546113012,-0.3848953893989324,0.36043899353444575
1725631336558630100,1.720630126953125,1.0911708506196736,-0.6027282852455973,-0.2247287928402424
1725631336568665300,1.730665283203125,0.13661474831849335,-0.7502651173338294,-1.063443470260501
1725631336578699000,1.740698974609375,-0.2743248906582594,-0.7527712549358606,-1.3355284730374812
1725631336588733200,1.750733154296875,-0.4448576906695962,-0.5399038725420833,-0.9510761512309313
1725631336598767400,1.760767333984375,-0.4803741174697876,-0.10016045614629983,-0.5197369905650615
1725631336608802300,1.77080224609375,-0.4341197312951088,-0.04071633353084326,-0.4069213432461023
1725631336618836200,1.780836181640625,-0.7335946991704404,-0.510730092766881,-0.7680518261760473
1725631336628870100,1.7908701171875,-0.8232488127410411,-1.1463216599553823,-0.9614297874629497
1725631336638905300,1.8009052734375,-0.9092255529731511,-1.3418100375249982,-0.6621791298627853
1725631336648939000,1.81093896484375,-0.6932423766463994,-0.9830234873726963,0.18223522050380705
1725631336658973200,1.82097314453125,-0.08511091718301177,-0.6866682589530945,1.3340543088316916
1725631336669007400,1.83100732421875,0.2969729219265282,-0.21979162869900465,1.9773200639098882
1725631336679042000,1.8410419921875,0.6414321099102497,0.12185177121162413,2.3658622853785753
1725631336689076200,1.851076171875,0.4661718429856002,0.33278175580203534,2.412456278771162
1725631336699110100,1.861110107421875,0.5949374852389097,0.5525926737233996,2.341499997538328
1725631336709144000,1.87114404296875,0.8307476440638303,0.26179128003865476,2.2005571568876503
1725631336719179300,1.88117919921875,1.1025386323302984,-0.5317059530392289,2.1200556331962344
1725631336729213200,1.891213134765625,0.8063993847489357,-1.1531541363239288,1.479214474916458
1725631336739247400,1.901247314453125,0.44971287561580536,-2.0493565415948627,0.8389993395805359
1725631336749282000,1.911281982421875,-0.6450111374408006,-3.8944147916987535,-0.03796002056002617
1725631336759316200,1.921316162109375,-2.1495243042647836,-5.213837056326866,-1.7689578839808702
1725631336769350400,1.931350341796875,-3.327603623008728,-5.3257203912317745,-2.6704537194848057
1725631336779384000,1.941384033203125,-3.752053024160862,-4.08936131747663,-1.8109873459368944
1725631336789419300,1.951419189453125,-3.0739713917672633,-2.7049390496715904,-1.1223854885727167
1725631336799453200,1.961453125,-1.9844787034928797,-2.701365575098991,-0.4296995767652988
1725631336809487000,1.971487060546875,-2.2254823393076655,-3.063324910068512,0.0870534295529127
1725631336819521300,1.981521240234375,-3.3559026657760143,-2.6412629885748027,0.6013420915842056
1725631336829556200,1.99155615234375,-3.4129631081253287,-2.6495368959233163,0.9704109662979841
1725631336839590400,2.00159033203125,-2.637643921294808,-3.2150697152405976,1.9562129784733056
1725631336849624000,2.0116240234375,-1.4024958307646214,-3.041884354893863,1.3780524405121803
1725631336859659300,2.0216591796875,0.016270166799426077,-2.171077964425087,-1.510350786936283
1725631336869693200,2.031693115234375,0.5172545260995626,-1.6199176615923643,-3.5842777061641216
1725631336879727000,2.04172705078125,0.6712738520748913,-1.6538944577351211,-3.4699142448812723
1725631336889761300,2.05176123046875,0.7974222975671291,-0.3401651440516114,-3.0992472873210906
1725631336899796200,2.061796142578125,1.4860101264059542,1.2656699239134788,-3.347944984769821
1725631336909830100,2.071830078125,2.458167644110322,1.6104086594909428,-3.1762013476639983
1725631336919864000,2.081864013671875,2.821634461033344,2.1485551669716836,-2.9211089807420967
1725631336929899300,2.091899169921875,2.238525068493187,2.7427862575069066,-1.973179895365238
1725631336939933200,2.10193310546875,1.3864625414609908,3.7259231421262022,-1.2420885573178528
1725631336949967000,2.111967041015625,0.009459317740797996,4.038624817451835,-0.6415542749851941
1725631336960001300,2.122001220703125,-2.3691776935368773,3.808895732106268,0.5740057563692331
1725631336970036200,2.1320361328125,-3.7391646087542174,3.356390157032013,1.3591881655663252
1725631336980070100,2.142070068359375,-3.911254282818734,3.0658646576792,1.4839175380408762
1725631336990104300,2.152104248046875,-4.014456298618018,3.0119851834535596,1.5221598826736211
1725631337000138200,2.16213818359375,-4.229872780972719,1.8656021486997603,0.23605273540914057
1725631337010173400,2.17217333984375,-7.39355600784719,-0.6999354445442557,1.6659961066782474
1725631337020207000,2.18220703125,-7.029816219201684,-1.1482444447115063,1.840708530461788
1725631337030241300,2.1922412109375,-5.134993821236491,-1.2723419490233063,-0.11143792922496795
1725631337040276200,2.202276123046875,-3.280107712340355,-0.6626780192956327,-0.7918646634399891
1725631337050310100,2.21231005859375,-0.8368862929493188,0.33048400025367736,-1.2300626039594411
1725631337060344300,2.22234423828125,0.7767273000627756,0.9385179906919598,0.13356617440283297
1725631337070378200,2.232378173828125,2.1861703196167945,0.6846443519100547,4.191743833586574
1725631337080413200,2.2424130859375,2.9522689658984542,0.7251540569528937,6.158073716926574
1725631337090447000,2.252447021484375,3.5136516797989605,1.1151929467201231,6.071266955611109
1725631337100481300,2.262481201171875,3.4231305741354823,2.2142791005089877,3.035122313413024
1725631337110516200,2.27251611328125,4.9657244652897115,0.903448138615489,1.9654618683338163
1725631337120550100,2.282550048828125,5.922112751454114,-0.6414721496596932,1.1233107867240906
1725631337130584300,2.292584228515625,5.225417019483447,-1.035080130085349,-0.4710270279318094
1725631337140618200,2.3026181640625,4.479822524309158,-1.054597608242929,-2.047971809238195
1725631337150653200,2.312653076171875,4.537943289366364,-1.8683482325375078,-2.499675128018856
1725631337160687000,2.32268701171875,4.9355187121182675,-2.39085381103307,-2.1761825940877197
1725631337170721300,2.33272119140625,5.472513126954436,-1.5540043429628014,-2.1964713488787413
1725631337180755200,2.342755126953125,5.740229413127899,-0.39336189671009775,-2.552889416334033
1725631337190790100,2.3527900390625,3.5589866130411623,0.47516515064984555,-3.8193992982029914
1725631337200824300,2.36282421875,1.6675328147262334,-0.2658303262963891,-5.933353107392787
1725631337210858000,2.37285791015625,1.1215788483649491,-2.9055554377794266,-1.6137369271308182
1725631337220893200,2.38289306640625,-1.018837728075683,-2.6721535091400144,-2.1471768643558025
1725631337230927000,2.392927001953125,-2.2430103972136974,-1.2592083266839385,-4.199287088572979
1725631337240961300,2.402961181640625,-1.053995258435607,-0.275894039671123,-4.127137798163295
1725631337250995200,2.4129951171875,-1.038905533592403,0.1270923022136092,-2.0350176351189613
1725631337261030100,2.423030029296875,-2.8610896885871884,1.0771066694319247,1.1672715090036392
1725631337271064300,2.433064208984375,-3.932202962823212,2.529941671466827,3.2669851959168907
1725631337281098200,2.44309814453125,-1.2022642041906715,1.7796183942049741,4.527540553295612
1725631337291133200,2.45313330078125,2.3276538430154323,0.3611120704904198,3.5628941418737172
1725631337301167400,2.46316748046875,1.3634665735378861,0.5025362649172544,4.021536904528737
1725631337311201000,2.473200927734375,-2.376497076639533,1.1982558453321457,5.119457229408622
1725631337321235200,2.483235107421875,-4.505354148189723,0.3527165825888514,4.523573403230309
1725631337331270100,2.493270263671875,-3.431590067183971,-0.6721373370364307,3.2586814779520035
1725631337341304300,2.50330419921875,-0.86473788421005,-1.241689328867197,2.002222449976206
1725631337351338200,2.513338134765625,0.4132683741852641,-1.3199635318979621,0.585514992377162
1725631337361372200,2.5233720703125,0.613042466250062,-1.3904656396225095,-0.32492695064842697
1725631337371407400,2.533407470703125,0.6564134059429169,-1.2031643679007886,-0.7235878305494785
1725631337381441000,2.54344091796875,0.8285778988093138,-1.0563906291395426,-0.911077902841568
1725631337391475200,2.55347509765625,0.15978168889433145,-1.785039834731817,-1.4716659592330454
1725631337401510100,2.56351025390625,-1.6787509588330982,-3.3657468911811708,-2.424184710487723
1725631337411544300,2.57354443359375,-0.818713507398963,-3.0376515396296977,-2.644866858285665
1725631337421578200,2.583578125,1.3480775734871626,-1.1455457071468234,-1.4708452904999256
1725631337431612200,2.593612060546875,3.2249934356227516,1.6277721744850278,0.23182664214670656
1725631337441647400,2.6036474609375,4.85890922742933,4.017769953210651,1.9339853645741938
1725631337451681000,2.613680908203125,6.217721837681531,5.532785517087579,2.740128144213557
1725631337461715000,2.62371484375,6.324351489841938,6.281263458743691,1.661520422568917
1725631337471750000,2.63375,5.2779988551139825,6.454385398465394,-0.6302876155614853
1725631337481783800,2.64378369140625,3.450225794070959,6.443217523241043,-2.241696392005682
1725631337491818000,2.65381787109375,1.117179736623168,5.908526709172129,-3.232581406533718
1725631337501852000,2.663851806640625,-0.6427753412127495,4.56038776088655,-4.442941531157493
1725631337511886800,2.673886962890625,-1.4483826988011597,3.4745328445926305,-5.9047086121886965
1725631337521921000,2.683921142578125,-1.504636500942707,2.9560055220782755,-6.451963724276423
1725631337531954700,2.69395458984375,-0.6960849065959454,3.586370586790144,-5.78729979186058
1725631337541988900,2.70398876953125,-0.1662035386353731,5.061190333878994,-4.520070948067307
1725631337552023800,2.71402392578125,-0.05958557691276073,5.520049954155087,-2.8099644815057516
1725631337562058000,2.72405810546875,0.09421440722346305,5.161757324999571,-0.5612076495945453
1725631337572092000,2.734091796875,-1.7980179742485283,3.9198534765988584,1.024826447096467
1725631337582126800,2.744126953125,-5.933861641436815,2.723497911930084,1.909939303076267
1725631337592161000,2.7541611328125,-6.7170455702930685,2.3478417677804826,2.1498422841727733
1725631337602194700,2.764194580078125,-4.665606961727142,2.353678803370893,2.1333201884388924
1725631337612228900,2.774228759765625,-2.7059493957579135,1.9724980505809186,1.974976131132245
1725631337622263800,2.784263916015625,-1.719645279279351,1.4361334580808878,1.246200668811798
1725631337632298000,2.794298095703125,-1.346974580681324,1.2184426010534166,0.23701602748334408
1725631337642332000,2.804331787109375,-1.2155939336240291,0.9492372453659772,-0.4184212269037962
1725631337652365800,2.81436572265625,-1.109954461544752,0.5916100943818688,-0.6839560773849487
1725631337662401000,2.824401123046875,-0.30915187388956544,0.31832769851386544,-0.7172516132652759
1725631337672434700,2.8344345703125,0.3192898215442896,-0.5531681355237961,0.19712240851223467
1725631337682468900,2.84446875,-0.4334960464388132,-1.3778732845529913,1.072519926163554
1725631337692503800,2.85450390625,-1.2443711152970791,-1.1017366682976484,1.3507932621866463
1725631337702537700,2.864537841796875,-1.0377309368550778,-0.27376170381754633,1.1362561930149793
1725631337712572000,2.874572021484375,-1.6844988548353312,-0.17560732679665086,0.09625263505280017
1725631337722605800,2.884605712890625,-2.2673782380118963,0.0008212532550096512,0.44392333242893217
1725631337732641000,2.89464111328125,-1.9863675859794019,0.2375388823136687,0.9030062400668859
1725631337742675000,2.904675048828125,-1.1931126372247933,-0.14148688439950347,0.6233101777642965
1725631337752708900,2.914708984375,0.47057840738147494,-1.0269792412161827,-0.27999709107577797
1725631337762744000,2.924744140625,1.8860662600576876,-2.54167682518512,-1.777132422608137
1725631337772777700,2.93477783203125,1.5984434964090586,-4.497000745864212,-3.2360663260400293
1725631337782812000,2.94481201171875,-0.21615356445759534,-5.158486340504885,-3.9292917515516277
1725631337792846000,2.95484619140625,-1.4948112724989653,-3.2972438483193516,-3.4173271485537287
1725631337802880800,2.964880859375,-1.2105524323254824,-0.6218609288040549,-2.7374831826627255
1725631337812915000,2.9749150390625,-0.4542658627450466,0.025901699301972985,-2.7993191688507792
1725631337822948900,2.984948974609375,-0.31874095548987386,0.0877419963389635,-1.7486030782163142
1725631337832984000,2.994984130859375,-0.10737784017920493,0.12091788789499551,-0.0023345804274082184
1725631337843017700,3.005017822265625,0.6970265713602304,0.6524279895685613,0.9865753346353768
1725631337853052000,3.015052001953125,0.5694575915455817,1.3232687109231949,1.2397802803754805
1725631337863086000,3.025086181640625,-0.9717080203711986,1.0368787770051509,0.8483604576438665
1725631337873120800,3.035120849609375,-0.9576520224899053,0.8904540708772838,0.4389642487168312
1725631337883155000,3.045155029296875,-0.0726753601104021,0.9163310741294175,1.001588194850087
1725631337893188900,3.05518896484375,0.13067746722400186,1.0738719252943991,1.2834119168311358
1725631337903222800,3.065222900390625,0.24250293446183202,1.080630021252483,1.1974959668755532
1725631337913257700,3.0752578125,0.2048246534526348,0.8496784814398736,1.0269827483475207
1725631337923292000,3.0852919921875,-0.25971359698176383,0.4277100103832781,0.16346680714786052
1725631337933325800,3.095325927734375,-0.7347440153360366,0.36436931872069833,-0.5068687411636114
1725631337943360800,3.10536083984375,-0.5615273830682039,0.46561179795004426,-0.2651023042827845
1725631337953395000,3.11539501953125,-0.015746435186266897,0.5302272587887943,-0.5115408246278762
1725631337963428900,3.125428955078125,0.03286240516006946,0.538398655610904,-1.3517390186041593
1725631337973462800,3.135462890625,0.0688017335474491,0.42418687775842845,-1.018076972836256
1725631337983498000,3.145498046875,-0.23492051650881765,0.2661664994481951,-0.6688274818360805
1725631337993532000,3.155531982421875,-0.9943155734986067,0.25248634914197027,0.06863923646211624
1725631338003565800,3.16556591796875,-1.4875211154907941,0.498018202970922,0.4098059587717056
1725631338013600000,3.17560009765625,-1.5753694948136805,0.8204390160173177,0.41364100688993927
1725631338023635000,3.185635009765625,-1.4856605823159217,1.2923447264797985,-0.04055412870645523
1725631338033668900,3.1956689453125,-0.6535463260740041,1.244936055703461,-0.932424642252922
1725631338043702800,3.205702880859375,0.0034311434924602507,1.4144193466618655,-0.7301286304950714
1725631338053738000,3.215738037109375,0.5485755470365286,1.046386683128029,0.12391805609166621
1725631338063772000,3.22577197265625,0.8258534422814846,0.23754443527162072,0.7536106283694505
1725631338073805800,3.235805908203125,0.8542010003656149,-0.005642608996853232,0.8591735280811786
1725631338083840000,3.245840087890625,0.6107336047858,-0.056530354060605165,0.28151450990140436
1725631338093875000,3.255875,0.26549510299265383,-0.20903693738542495,-0.38842005639374255
1725631338103908900,3.265908935546875,0.16869184831976888,-0.32626353301443156,-0.6704086135476828
1725631338113942800,3.27594287109375,0.5373077185690402,-0.4897830201976001,-0.48841363154053685
1725631338123977000,3.28597705078125,1.0739455750524998,-0.5437339522242546,-0.24407822095453738
1725631338134012000,3.296011962890625,1.199694938224554,-0.39895496747680004,-0.20529870070517062
1725631338144045800,3.3060458984375,0.7520353418767451,-0.047159006864205,-0.2728472193211317
1725631338154080000,3.316080078125,0.5713379984647036,0.1406871123239398,-0.21220190422236918
1725631338164115000,3.326114990234375,0.9550462239056825,0.03875409354716539,-0.1251432139724493
1725631338174148900,3.33614892578125,1.0021335537731646,0.10360445912033318,-0.373907546916604
1725631338184182800,3.346182861328125,0.5238853424161672,0.4016832233969122,-0.4979974524438381
1725631338194217000,3.356217041015625,0.23063246392607686,0.387629344407469,-0.40580666000247
1725631338204251600,3.366251708984375,-0.5027899474173784,0.5814822297297417,-0.15527940903902052
1725631338214285800,3.376285888671875,-1.7311071690142155,1.4512595694117247,0.7697901942759752
1725631338224320000,3.386320068359375,-2.0035808788478375,1.6592781966000794,1.751785215383768
1725631338234355000,3.39635498046875,-1.721842497062683,1.3584931690394877,2.369719545328617
1725631338244388900,3.406388916015625,-1.2740467071145771,1.0544129723910243,2.042695914661884
1725631338254422800,3.4164228515625,-0.6362807184964419,0.5280049065642058,1.0948977621883154
1725631338264457000,3.42645703125,-0.5327344193041325,0.19542923126090317,0.2249637706398964
1725631338274492000,3.436491943359375,-0.3371218308329582,-0.0997004374191165,-0.346419236010313
1725631338284525800,3.44652587890625,0.040352468654513356,-0.7182214812107384,-1.4376742577821016
1725631338294560000,3.45656005859375,1.0468982859119773,-1.4990800358593463,-2.8666011454850433
1725631338304594000,3.466593994140625,1.4182161085963247,-1.7289190113201736,-4.10301224168837
1725631338314628900,3.47662890625,1.1603963625371456,-1.7823013496786355,-4.6017017680495975
1725631338324663000,3.4866630859375,1.065457148170471,-1.5256968246281146,-4.362265819942951
1725631338334696700,3.49669677734375,1.3290192372739313,-1.6258821229547262,-3.580601063477993
1725631338344732000,3.50673193359375,1.903488519501686,-1.3822300184577703,-3.2752123415142296
1725631338354765800,3.516765869140625,1.8353627855196595,-1.3646654279336332,-2.533397949400544
1725631338364800000,3.526800048828125,1.8344018315330146,-1.733116170749068,-2.4134879599064587
1725631338374834000,3.536833984375,1.6643059616342186,-1.5099804923191666,-2.544731828841567
1725631338384868900,3.546868896484375,0.7000383203968406,-0.9835555484227836,-2.055485253608227
1725631338394903000,3.556903076171875,-1.636731141488254,-0.01543145095296204,-0.559779662618041
1725631338404936700,3.566936767578125,-5.974841302078962,1.1045640006780624,3.9415842468917366
1725631338414972000,3.576971923828125,-1.7385618689343332,0.49633277063462883,5.062831671345234
1725631338425005800,3.587005859375,-0.011422142246365546,0.49168457950260486,4.798071896889805
1725631338435039700,3.597039794921875,-2.020900262439251,0.45776904856041073,4.856016720858216
1725631338445074000,3.607073974609375,-2.0526693194046617,-1.33993226095438,4.3656928717821835
1725631338455108900,3.61710888671875,-0.6515630433022975,-1.8616224314138292,2.320941778156161
1725631338465143000,3.62714306640625,0.5064139831334352,-0.8601838741675019,0.2571855398088693
1725631338475177000,3.637177001953125,0.3967164678350091,-0.41739276063889263,-0.41897652269899843
1725631338485211000,3.6472109375,-0.299538534630835,-0.20869469981901345,-0.23413141195774076
1725631338495245800,3.657245849609375,-0.5096370368331671,-0.014115509516187012,0.18644027097821234
1725631338505280000,3.667280029296875,-0.3554483456403017,0.06822101105004548,0.3932745106875896
1725631338515314000,3.67731396484375,-0.4497103913977742,0.03262779268659651,0.514997102561593
1725631338525348900,3.687348876953125,-0.5631807032331824,-0.23318404810503124,0.10646247889995575
1725631338535383000,3.697383056640625,-0.4661766652911901,-0.5331094631616026,-0.6612474019706249
1725631338545417000,3.7074169921875,-0.2977209638148546,-0.5409115882799029,-1.1887106028735637
1725631338555451000,3.717450927734375,-0.2394628361135721,-0.39391595039628446,-1.286628540790081
1725631338565486000,3.727486083984375,-0.36418899371773,-0.24112675073780118,-1.0422779326349496
1725631338575520000,3.73752001953125,-0.4847165305882692,-0.08703691680952906,-0.5789169092863797
1725631338585554000,3.747553955078125,-0.6473819582253694,-0.12120580145828425,0.017579495832324026
1725631338595588000,3.757588134765625,-0.798024939635396,-0.2519816144902259,0.5738993733853102
1725631338605623000,3.767623046875,-0.8385399053752421,-0.418052758917585,0.7698977463036775
1725631338615657000,3.777656982421875,-0.7502925898626446,-0.693778383219242,0.7374930217832326
1725631338625691000,3.78769091796875,-0.9535387419521808,-0.945466786916554,0.6202361771464348
1725631338635726000,3.79772607421875,-0.8113938320353626,-1.249331952574849,0.45998014873862264
1725631338645760000,3.807760009765625,-0.2504381113752723,-1.2188556388337164,-0.020597382348775863
1725631338655794000,3.8177939453125,0.061567398379743093,-1.1395721126299352,-0.37951428088247774
1725631338665828000,3.827828125,0.17734949428886174,-2.1299761387079954,-0.10465922887027262
1725631338675863000,3.837863037109375,0.1411515149652958,-3.3001956838622686,0.5834849478542804
1725631338685897000,3.84789697265625,0.3710533265292644,-3.036448593580723,0.8035995248973369
1725631338695931000,3.857930908203125,0.5649027047201991,-2.1014741207145153,0.8592202898323535
1725631338705966000,3.867966064453125,0.6361044851467013,-1.2733169315353035,0.7762883241236209
1725631338715999700,3.877999755859375,0.556743363662064,-0.7662514987558126,0.3612807050555944
1725631338726034000,3.888033935546875,0.3330155645579099,-0.39732188638225197,-0.20422727208137512
1725631338736068000,3.898068115234375,0.07132409163191915,-0.12875789733827114,-0.5771832173615694
1725631338746103000,3.90810302734375,-0.26552783621847625,0.15389774542227386,-0.7376327225148678
1725631338756137000,3.918136962890625,-0.5214572384864091,0.4734817276075482,-0.8053922535330057
1725631338766171000,3.9281708984375,-0.5326850272044539,0.8619478151001035,-0.8668436243176459
1725631338776206000,3.9382060546875,-0.24227146379351613,1.1801872508086264,-0.7810287966489792
1725631338786239700,3.94823974609375,0.2624251940280199,1.455076789612323,-0.6246428876727819
1725631338796274000,3.95827392578125,0.626281887051463,1.7250830864191053,-0.3453565752148628
1725631338806308000,3.96830810546875,0.7363377142682671,1.9350489021524786,0.11291092438697814
1725631338816343000,3.978343017578125,0.550368860194087,1.7689567149370908,0.5879565403103828
1725631338826377000,3.988376953125,0.3609599486686289,1.4406976972565053,0.6572369972854852
1725631338836411000,3.998410888671875,0.40139527330100533,1.060409217131138,0.762147570568323
1725631338846444800,4.00844482421875,0.5069103883482515,0.3971028368040919,0.7586532987117767
1725631338856480000,4.01847998046875,0.6700543932825327,-0.1588634050056338,-0.14941022474467752
1725631338866514000,4.028513916015625,1.0168372019082308,-0.6127909757070243,-1.1057236921072005
1725631338876548000,4.038548095703125,1.127809851709008,-0.8371807458512485,-1.5734025786548853
1725631338886582800,4.048582763671875,0.9612789808154105,-0.8821633585244417,-1.6408774475127457
1725631338896617000,4.058616943359375,0.6959769161768257,-0.8207640101879835,-1.4829133294343948
1725631338906651100,4.068651123046875,0.45308001396134495,-0.6003840602070093,-1.4044050253868101
1725631338916684800,4.078684814453125,0.10413023656010627,-0.5142534445874393,-1.2948200305521487
1725631338926720000,4.088719970703125,-0.3123351801007986,-0.5010156312212347,-1.1904290972292422
1725631338936754000,4.09875390625,-0.5863108189299703,-0.2708525383725762,-1.1813503032386303
1725631338946788000,4.1087880859375,-0.8652353123381733,-0.032535511293262244,-0.9420020334154366
1725631338956822000,4.118822021484375,-1.1651377118453383,0.15852043678686023,-0.5519722037374973
1725631338966857000,4.12885693359375,-1.3259718324020504,0.37653570346310733,-0.2659235575377941
1725631338976891100,4.13889111328125,-1.6585837845951317,0.48000484576597807,0.28311843796670433
1725631338986924800,4.1489248046875,-2.0365806466519834,0.5408493366986513,0.8691028014212846
1725631338996960000,4.1589599609375,-2.1004414166659116,0.619179215439409,1.2954337785363197
1725631339006994000,4.168993896484375,-1.668893289424479,0.49198155315518377,1.608241252323985
1725631339017027800,4.17902783203125,-1.298974812144041,0.15281827962249517,1.7171604767262936
1725631339027062000,4.18906201171875,-0.8125508931159973,-0.0584100303273648,1.5024983198702335
1725631339037097000,4.199096923828125,-0.31463585825860496,-0.12959632092379034,1.0388871211528778
1725631339047131100,4.209131103515625,0.03728752812594175,-0.42039449973814186,0.5302683214515447
1725631339057164800,4.219164794921875,0.31396862652152774,-0.5339740441016853,-0.2572989370554685
1725631339067199000,4.229198974609375,0.33923341615945096,-0.5470837741088121,-0.6074450846344233
1725631339077234000,4.23923388671875,0.23193653226196764,-0.4133608017090708,-0.5926116726398468
1725631339087267800,4.249267822265625,0.08346066575795412,-0.2760358592946082,-0.4492091638773679
1725631339097302000,4.259302001953125,-0.031310791803896426,-0.11325184677913784,-0.5604068546056747
1725631339107337000,4.2693369140625,-0.11429127282947302,-0.041059740141034126,-0.8443079673826694
1725631339117371000,4.279370849609375,-0.13460399301797152,-0.06117620710507035,-0.99677114995718
1725631339127405000,4.289405029296875,-0.3635562487721443,0.0016897431852295993,-0.7720400190293788
1725631339137439000,4.29943896484375,-0.9155278679877519,0.12230904999244957,-0.5588122788906097
1725631339147474200,4.30947412109375,-1.109775305585563,0.24468557573053984,-0.6161743345350027
1725631339157507800,4.3195078125,-0.9768459677815436,0.5110204905482009,-0.4725280801445245
1725631339167542000,4.3295419921875,-1.0538789385795593,0.7344554807182401,-0.2613373987913132
1725631339177576200,4.339576171875,-0.9903621596977115,0.9496631426278501,-0.017919687572121618
1725631339187611000,4.34961083984375,-1.237679508703947,1.0590947004664688,0.7621966704070567
1725631339197645000,4.35964501953125,-1.864729749779403,1.0792657471619547,1.2870306918501853
1725631339207679000,4.369678955078125,-2.1493960017099973,0.8971685468893498,1.3990619107931852
1725631339217714200,4.379714111328125,-1.5860250366017221,0.6752697167780249,1.7362831103473901
1725631339227747800,4.389747802734375,-0.8658300633609295,0.5485851185824722,1.763614769387245
1725631339237782000,4.399781982421875,-0.08038286574780941,0.3531538780275732,1.237006139487028
1725631339247816000,4.40981591796875,0.6448879494525492,0.23978848787136375,0.5673188259512185
1725631339257851000,4.419850830078125,1.1543629275918006,0.09188490482997148,-0.27201135301887985
1725631339267885000,4.429885009765625,1.3746049304068089,-0.3514276022242382,-0.39296003791093825
1725631339277919000,4.4399189453125,1.4123773194402456,-0.6828007698699832,-0.20620938580930231
1725631339287954000,4.449953857421875,1.4841677134096622,-0.47126361316666004,-0.4577946213930845
1725631339297987800,4.45998779296875,1.2997832059174774,-0.47146761130616066,-0.692219463339448
1725631339308022000,4.47002197265625,1.109755870232731,-0.619273834920302,-0.7718652469843625
1725631339318056000,4.480055908203125,1.1868646827459335,-0.14266871459521352,-0.0900689779818058
1725631339328091000,4.4900908203125,1.202706979522109,0.3497347172338515,-0.6880652662694454
1725631339338125000,4.500125,0.9729723412185907,0.3967456939294934,-1.6121867750793695
1725631339348159000,4.510158935546875,0.6787393656499684,0.15319880337268113,-2.06646374374032
1725631339358193000,4.52019287109375,0.39136078602075575,-0.18239048413075507,-2.224860992538929
1725631339368227800,4.530227783203125,-0.12792904529869556,-0.33974216939918694,-2.228553417316079
1725631339378262000,4.540261962890625,-0.6840953397251666,0.07235613809339701,-1.4905208818286657
1725631339388296000,4.5502958984375,-0.7967777160532772,0.6628761722162365,-0.8768710973352193
1725631339398331000,4.560330810546875,-0.6941429787479341,0.5740346902027725,-0.9266945741683245
1725631339408365000,4.570364990234375,-0.37986893953904505,0.17175116282515226,-1.832047669622302
1725631339418399000,4.58039892578125,-0.21187033418044446,-0.10915215637534856,-1.801368453720212
1725631339428433000,4.590432861328125,-0.8149794354371726,-0.21767215232700107,-0.9636223290711641
1725631339438468000,4.600468017578125,-1.311463560708612,-0.11885156648233532,-0.24457564908266066
1725631339448502000,4.610501953125,-1.254768590670824,-0.17271394344270227,0.08980477408766746
1725631339458536000,4.620535888671875,-0.9265404065199195,-0.2580204562630504,0.031087212181091308
1725631339468571100,4.630571044921875,-0.6939291898667812,-0.3806584459489211,-0.19425299055576323
1725631339478605300,4.640605224609375,-0.5886176345676183,-0.4639959602512419,-0.06259644916653632
1725631339488639200,4.65063916015625,-0.5079863470166921,-0.49058998919893054,0.3246276754409075
1725631339498673200,4.660673095703125,-0.15501403610110281,-0.4898462216269225,0.551493480309844
1725631339508708400,4.670708251953125,-0.04720876429006457,-0.40959779591374096,0.7149526886731385
1725631339518742300,4.6807421875,-0.20715397318303583,-0.295017842335999,0.5137836351186037
1725631339528776200,4.690776123046875,-0.3300609525360167,-0.29452560183964666,0.05534720869064331
1725631339538811100,4.70081103515625,-0.3958579513095319,-0.19011526969652623,0.155097622731328
1725631339548845300,4.71084521484375,-0.3633078269690275,0.035893205957021564,0.5722182884305715
1725631339558879200,4.720879150390625,-0.34839725808501243,0.17668818083591759,0.7327928812682628
1725631339568913200,4.7309130859375,-0.044025019687414166,0.5447619070325046,0.38859892009198665
1725631339578948400,4.7409482421875,-0.055126990068703884,0.9438311485387384,0.16273323217630387
1725631339588982000,4.75098193359375,-0.7177560556560755,0.8663759337406605,0.042964112457633014
1725631339599016200,4.76101611328125,-1.0056699112057685,0.7020594509609043,0.0041284781068563455
1725631339609050400,4.77105029296875,-0.6662273823402821,0.5079666194029152,-0.7114741989076138
1725631339619085300,4.781085205078125,-0.5283522586971521,0.3251476076617837,-1.3283955524176358
1725631339629119200,4.791119140625,-0.5120769773311913,0.22420202901978045,-1.3899743489742278
1725631339639153200,4.801153076171875,-0.5780319431453943,0.26609138838537033,-1.16503220564425
1725631339649188400,4.811188232421875,-0.9151156339250505,0.17839038164392113,-0.7041524777173995
1725631339659222000,4.821221923828125,-1.3178005086451767,-0.1939697897002101,-0.035945758128166194
1725631339669256200,4.831256103515625,-1.3156710954010487,-0.32013489406630397,0.3788502640157938
1725631339679290400,4.841290283203125,-0.9858341608792542,-0.23886114389337598,0.24111703306138513
1725631339689325000,4.851324951171875,-0.7065268056333065,-0.36638255823925137,-0.18416005108654498
1725631339699359200,4.861359130859375,-0.9366349534243344,-0.6511713405709714,-0.04978899004161358
1725631339709393200,4.87139306640625,-1.1835292547129095,-1.0395274648830295,0.5220984589993953
1725631339719428400,4.881428466796875,-1.1560783532075583,-1.5033520140901206,0.87379242054224
1725631339729462300,4.891462158203125,-0.7032708725772797,-1.3631333960607648,1.0087474189549683
1725631339739496200,4.90149609375,-0.024548311931639907,-0.9138627112545072,1.2058967154741287
1725631339749530400,4.9115302734375,0.019688450810313222,-0.8620997907914221,1.2266618556052447
1725631339759565000,4.92156494140625,-0.03637129006385803,-0.5237989793069661,1.2676789256483316
1725631339769599200,4.93159912109375,0.1941157009769231,-0.026805735469609498,1.1646844151198863
1725631339779633400,4.94163330078125,0.4601392848230898,0.2957160537332296,0.5775298388421535
1725631339789667000,4.9516669921875,0.5224363126516341,0.6435170994907617,-0.13438099791705607
1725631339799702300,4.961702392578125,0.47142377216443415,1.124376370128989,-0.20203765308260915
1725631339809736200,4.971736083984375,0.5394033756740391,1.0776396072648464,0.1494026259601116
1725631339819770000,4.98177001953125,0.3761569332785904,0.9412491692215204,0.207530405279994
1725631339829805000,4.99180517578125,0.018214944191649554,0.9446415881387888,0.05655658448040485
1725631339839839200,5.001839111328125,-0.1443419815696776,1.1157933968313039,-0.1846609863460064
1725631339849873400,5.011873291015625,0.057752954658120866,1.19793991125077,-0.3751362119287252
1725631339859907000,5.021906982421875,0.23051965120136736,1.2008689504399894,-0.9139157566159963
1725631339869942300,5.0319423828125,0.40299993201866746,1.4246223223768173,-1.7695523427426814
1725631339879976200,5.04197607421875,0.4293875882066786,1.6407916689254343,-2.2780074763149023
1725631339890010000,5.052010009765625,0.14212839717343448,1.668996895929426,-2.4395950455874202
1725631339900045000,5.062045166015625,-0.7384004920169711,1.082530594176799,-1.2048054131060837
1725631339910079200,5.072079345703125,-1.4633365223050117,0.6261904093757271,-0.4061211327791214
1725631339920113400,5.082113525390625,-1.3156027063399554,0.4704971588388085,-1.1560685624659062
1725631339930147000,5.09214697265625,-0.7510410701423883,0.31581498504057526,-1.4540589908719062
1725631339940182300,5.102182373046875,0.05379281885549426,0.13656331039220093,-0.9753811559259891
1725631339950216200,5.11221630859375,0.7615997274272144,0.021203677678853273,-0.5099509250879287
1725631339960250000,5.12225,1.1270723312146962,-0.0569977523766458,-0.27447861991524697
1725631339970284300,5.1322841796875,1.0924043379373847,-0.2625190097913146,0.6395370899438858
1725631339980319200,5.1423193359375,0.9967314024686813,-0.37236908530294893,0.8843979857087135
1725631339990353200,5.152353271484375,0.9036201341815292,-0.19198285366669296,0.24499416675567626
1725631340000387000,5.162386962890625,0.8181811540879309,0.13736001372784376,-0.395916549628973
1725631340010422300,5.17242236328125,0.71124345889166,0.38016675344184037,-0.4915805711388588
1725631340020456200,5.182456298828125,0.6210024853438139,0.6381494349777698,-0.48212183791995045
1725631340030490000,5.192489990234375,0.2672230958290398,0.7054575689665973,-0.2623585585325956
1725631340040524300,5.202524169921875,-0.42373321570679545,0.58932797479406,0.019991233149170874
1725631340050559200,5.212559326171875,-0.8609672796301543,0.5392065379276871,0.1539215646892786
1725631340060593200,5.22259326171875,-1.3394269417807458,0.4775428395666182,0.5052262346535921
1725631340070627300,5.23262744140625,-1.8269453780472278,0.30575419427528977,0.9387368941396474
1725631340080662300,5.242662353515625,-1.855019818278402,-0.05502279904186725,1.2319289823532105
1725631340090696200,5.2526962890625,-1.5759893802776932,-0.46385202173590656,1.3559440690785645
1725631340100730000,5.262730224609375,-1.0869849432371557,-0.07222820086479187,0.5523047966927289
1725631340110764300,5.272764404296875,-0.6089701022446156,0.24475787378177044,0.3702694826751947
1725631340120799200,5.28279931640625,-0.1632256918683648,0.26690058587640525,0.025765140375494957
1725631340130833200,5.292833251953125,0.19070055877119302,0.38942923343628644,-0.8128519218891859
1725631340140867300,5.302867431640625,0.26084245488122104,0.4933320909813046,-1.4040326849430798
1725631340150901200,5.3129013671875,-0.011714403191208839,0.5125305663175881,-1.5877321327805518
1725631340160936200,5.322936279296875,-0.40349356075450776,0.5650154443796723,-1.2993114967525004
1725631340170970000,5.33297021484375,-0.4637677044533193,0.6833500012505799,-0.8585878371477127
1725631340181004300,5.34300439453125,-0.45875426020547744,0.7962721776839345,-0.5313315667688846
1725631340191039200,5.353039306640625,-0.7105924476370215,0.6361436481133103,-0.1700245582282543
1725631340201073200,5.3630732421875,-0.945663332401961,0.44511268834397194,-0.05687164177894592
1725631340211107300,5.373107421875,-0.982681980458647,0.21166385182291267,-0.2142360403984785
1725631340221141000,5.38314111328125,-0.8254778869673609,-0.032303017711639403,-0.45042496940791604
1725631340231176200,5.39317626953125,-0.58199383251369,-0.2039848416276276,-0.4826601825803518
1725631340241210000,5.403210205078125,-0.4650834632270038,-0.16288060475774108,-0.15469839428067206
1725631340251244300,5.413244384765625,-0.18574805093035102,-0.01268931263796985,-0.032623920229077334
1725631340261279200,5.423279296875,0.25216098964512346,0.2719172449946403,-0.17666589593887327
1725631340271313200,5.433313232421875,0.35593934402763844,0.501065607842803,0.10254910484850406
1725631340281347300,5.443347412109375,0.11895955690145492,0.6969024335239082,1.318057698276639
1725631340291381200,5.45338134765625,-0.13030541904121637,1.0774160276420415,2.1955402055084705
1725631340301416200,5.463416259765625,-0.15897650999128818,1.249815059916675,1.8894459656238556
1725631340311450400,5.473450439453125,-0.3367313702106476,1.0623415734332053,1.4648545256525278
1725631340321484300,5.483484375,-0.3577794189363718,0.6232306827872991,0.9683756610780954
1725631340331518200,5.493518310546875,-0.2780225761324167,-0.031911936034820974,0.19611819990575313
1725631340341553200,5.50355322265625,-0.06809943049699067,-0.22202711439980194,0.07566694314181804
1725631340351587300,5.51358740234375,0.20566066588535903,0.04031305452615488,0.43483577060997486
1725631340361621200,5.523621337890625,0.2821418480195105,0.02814050033786334,-0.019949732095003128
1725631340371656200,5.53365625,0.29429464262798427,0.14544974188217893,-0.6599754823386669
1725631340381690400,5.5436904296875,0.4258358870744705,0.4019767995160073,-0.9069324735999107
1725631340391724000,5.55372412109375,0.5077722658745945,0.3884419759646058,-0.45343876427114005
1725631340401758200,5.56375830078125,0.6081595165140926,0.31719083997104314,-0.4618552949607372
1725631340411793200,5.573793212890625,0.9818449451126158,0.1751962983103469,-0.7808528555601835
1725631340421827300,5.583827392578125,0.9986275914788245,-0.16491923444587736,-1.6215747811496257
1725631340431861200,5.593861328125,0.8968044628173112,-0.6726416332967579,-2.8729829554766413
1725631340441896200,5.603896240234375,0.6883226020313798,-1.2259870250836014,-3.7506677072823047
1725631340451930400,5.613930419921875,-0.012433365115523337,-2.007774677275866,-3.645111237311363
1725631340461964000,5.623964111328125,-1.2688066145040093,-1.9967881499677895,-1.876144000980258
1725631340471998200,5.633998291015625,-1.7437324034400283,-0.0005565379042178392,-0.6314186654180288
1725631340482033000,5.644032958984375,-1.7794027056276798,0.620185689068213,-0.7170651507824659
1725631340492067000,5.654067138671875,-1.4573954418182373,0.16270141226593404,-0.8796984297156334
1725631340502101200,5.664101318359375,-1.4875146857500074,-0.17062475261110813,-0.943948491308093
1725631340512135000,5.674135009765625,-1.2747107239812612,-0.5170286814544349,-1.1720447147548199
1725631340522170000,5.684170166015625,-0.5060919115722179,-0.6435669299818575,-0.9400555755227804
1725631340532204000,5.6942041015625,0.7603006275273859,-0.3490540049606934,-0.7728431521058082
1725631340542238200,5.70423828125,0.9094137690216302,-0.1051866320115514,-0.3989011183977127
1725631340552273200,5.714273193359375,0.1513407544158399,-0.31737649873625484,0.6991536465167999
1725631340562307000,5.72430712890625,-0.3358404127202928,-0.37086518354602155,1.1036480548769234
1725631340572341200,5.73434130859375,-0.20348829028233884,-0.05491644345740787,1.0002823729485273
1725631340582375200,5.744375244140625,-0.21790026199445128,0.16927171230064705,1.4979086539924145
1725631340592410000,5.75441015625,-0.3366244027048349,0.12477412493173032,2.146836088094115
1725631340602444300,5.7644443359375,0.05453823039531708,-0.01270564271826297,1.8597966772913932
1725631340612478000,5.77447802734375,0.14315584052503108,0.34266876090299336,1.5093956781685351
1725631340622513200,5.78451318359375,-0.12700959236621856,0.144314399443008,1.2054063016086816
1725631340632547000,5.794547119140625,-0.122786421713233,-0.25611433038078246,0.33878011943399905
1725631340642581200,5.804581298828125,0.08457271865308284,-0.4739819322146475,-0.8174684757739304
1725631340652615200,5.814615234375,-0.02797068759575486,-0.6154108028165995,-1.2029951488137245
1725631340662650000,5.824650146484375,-0.19561565721109508,-0.8374625584673135,-1.1080600261002778
1725631340672684300,5.834684326171875,-0.26849530772194263,-0.7467003375243395,-0.8346469895899296
1725631340682718000,5.844718017578125,-0.36419323150143024,-0.47281186552196736,-0.2818535325974226
1725631340692752100,5.854752197265625,-0.5742756593517959,-0.2741797830991447,0.5476677845418453
1725631340702787000,5.864787109375,-0.8121620399288833,-0.2129998496670276,0.9469406588613987
1725631340712821000,5.874821044921875,-0.9145243900336325,-0.2019691178910434,0.6665051763683557
1725631340722855200,5.884855224609375,-1.0174169014923273,-0.048214945657923815,0.32540976572930813
1725631340732890000,5.89489013671875,-1.0913356857925653,0.10456935862973332,0.284193373721838
1725631340742924300,5.90492431640625,-1.1219196246266365,0.10014109385870397,0.12895312764942646
1725631340752958000,5.9149580078125,-0.946208837455511,-0.012849690831452607,-0.35153789419829845
1725631340762992000,5.9249921875,-1.0557895945064724,-0.0020327479366213084,-0.4530319370359182
1725631340773027000,5.935027099609375,-1.1582770322956144,0.02868979565054178,-0.11170622477233409
1725631340783061000,5.94506103515625,-0.9510920794524251,0.010864800624549389,-0.34435879634916783
1725631340793095200,5.95509521484375,-0.988318963432312,-0.19600480265915393,-0.5674100113660097
1725631340803130000,5.965130126953125,-1.1679624138772486,-0.8287704987719654,0.1632709923148155
1725631340813164300,5.975164306640625,-0.8118490284569561,-1.4003065040268003,0.7914683575987815
1725631340823198200,5.9851982421875,0.01649929938018322,-1.6774365152336657,0.7040799970030784
1725631340833232100,5.995232177734375,0.28682532966062424,-1.3442143221877514,0.5757891326546669
1725631340843267300,6.005267333984375,0.17655140271373093,-0.9328146644838153,0.6813233907938003
1725631340853301000,6.015301025390625,0.07315992875695228,-0.7783443798705935,0.7115472641438245
1725631340863335200,6.025335205078125,-0.07253039868175983,-0.5365447713725269,0.3703098146855831
1725631340873369300,6.035369384765625,0.08085589008703828,-0.18133797940313814,-0.1644388670504093
1725631340883404000,6.045404052734375,0.5585896491158753,-0.022061609682440756,-0.6456769078731537
1725631340893438200,6.055438232421875,0.9541624268084764,0.16768515549525617,-1.3490338512986897
1725631340903472000,6.06547216796875,1.2533325665183364,0.5374718230895698,-1.7893945228099821
1725631340913507300,6.07550732421875,1.5999081621341407,0.6844410844229162,-1.7106015566021202
1725631340923541000,6.085541015625,1.4892776037693023,0.8240772263891994,-1.5643571024119853
1725631340933575200,6.0955751953125,1.0645961474269627,1.1065531286686658,-1.0903151105731725
1725631340943609300,6.105609375,0.4492215849675238,0.9624129532814025,0.033082769912481304
1725631340953644000,6.11564404296875,-0.3579962765574455,0.6287421396851539,0.6802835263520479
1725631340963678200,6.12567822265625,-0.856580588978529,0.33114626355469223,0.5765840824246407
1725631340973712100,6.135712158203125,-0.6685606475934386,0.04197627046406269,0.741718530523777
1725631340983747300,6.145747314453125,-0.2076885184511542,-0.31543022350668903,2.1669249363988636
1725631340993781000,6.155781005859375,-0.18390081562846897,-0.6777262430846691,3.0089369017988443
1725631341003815200,6.165815185546875,-0.2722574367344379,-0.18941344157010315,1.9750930355101823
1725631341013849000,6.17584912109375,0.29718028106689454,0.6147929631792008,0.5659890386521816
1725631341023884000,6.185884033203125,0.4855798694193363,0.682937255731225,0.3651251055240631
1725631341033918200,6.195918212890625,-0.004678513205051422,0.22101152588278053,-0.5807400330603122
1725631341043952000,6.2059521484375,0.003285159150511026,-0.3343118879787624,-1.7361714666664598
1725631341053986000,6.215986083984375,0.21574191491678354,-0.5220652873821556,-2.02920105779469
1725631341064021000,6.22602099609375,0.29380437489300965,-0.4083684733144939,-1.6713263617902994
1725631341074055200,6.23605517578125,0.19526830507814882,-0.05483092973157763,-1.2046645433306693
1725631341084089000,6.246089111328125,-0.09356500340402125,0.17282894812449812,-0.9045213208049535
1725631341094124000,6.2561240234375,-0.12933584335669873,0.41870121288895606,-0.6582528963297605
1725631341104158200,6.266158203125,-0.25267522277757526,0.291310219989717,0.11691373028755188
1725631341114192100,6.276192138671875,-0.38485900291129943,0.038865152706205844,0.29570202520787714
1725631341124226000,6.28622607421875,-0.34028628621324897,-0.058853463245928286,-0.19812953972816466
1725631341134261200,6.29626123046875,-0.07650748561918735,-0.19275500708296894,-0.9226619576513767
1725631341144295200,6.306295166015625,0.20414266253784297,-0.22648776533678172,-1.7407897741168736
1725631341154329000,6.3163291015625,0.4233578065231442,-0.10517521556839346,-2.3873446338683366
1725631341164364000,6.326364013671875,0.30782004076391456,-0.021502222234010694,-2.5859523125022648
1725631341174398200,6.336398193359375,0.019901509039103985,-0.038702947881817815,-2.3972476037234065
1725631341184432000,6.34643212890625,-0.2994531944349408,-0.13195099429115653,-2.0689801104754206
1725631341194466000,6.356466064453125,-0.8727049175664782,-0.24189810043647883,-1.4041823225468397
1725631341204501200,6.366501220703125,-1.276117083647847,-0.2578084940128028,-0.5211719918042421
1725631341214535200,6.37653515625,-1.2561907324284314,-0.36156639012917874,0.3532704170793295
1725631341224569000,6.386569091796875,-1.4685574718236922,-0.6416691335365176,1.2142986331164836
1725631341234603300,6.396603271484375,-1.8167416716799138,-0.8982003010898828,1.7142828754633663
1725631341244638200,6.40663818359375,-1.9528557769998907,-1.10155152098909,1.8220289644330738
1725631341254672100,6.416672119140625,-1.7967194588705897,-1.114682732175663,1.5327935048907995
1725631341264706000,6.4267060546875,-1.2381553095221518,-0.7386560742132365,0.8352613220959901
1725631341274741200,6.4367412109375,-0.5266524690419435,-0.5468765610989182,0.5577250681757927
1725631341284775000,6.44677490234375,-0.12265607333183288,-0.24783340876959262,0.5455336951225995
1725631341294809000,6.45680908203125,-0.36322044094651934,0.07024535648450254,1.0858388419419527
1725631341304843300,6.46684326171875,-0.7351099260389804,0.040710561377182604,1.800040419986844
1725631341314878200,6.476878173828125,-0.6332058410957455,-0.18385420000776648,1.6512328373104332
1725631341324912000,6.486912109375,-0.35138621076792476,-0.4749452973540872,1.043767294409871
1725631341334946000,6.496946044921875,-0.05624313461706042,-0.6837890502549707,0.4308335492312908
1725631341344981200,6.506981201171875,0.2812704720124602,-0.7089817245047539,-0.2004249571889639
1725631341355015000,6.517014892578125,0.3425236898764968,-0.5567910752613097,-0.6786211460977792
1725631341365049000,6.527049072265625,0.2200999639958143,-0.4536202217852697,-0.7837211044728756
1725631341375083300,6.537083251953125,0.07478782221972942,-0.33240258375871923,-0.9422615611344576
1725631341385118000,6.547117919921875,-0.2696386325381696,-0.0916717004707083,-1.034198086553812
1725631341395152100,6.557152099609375,-0.6815618757247924,0.07536467225961387,-0.2229717200398445
1725631341405186300,6.567186279296875,-0.7532873877644538,0.23582352976314722,0.26182196743786335
1725631341415220000,6.577219970703125,-0.15135785168111324,0.9760238377436995,0.9483815053194761
1725631341425255200,6.587255126953125,0.0014916998624801634,1.6178335487946867,1.1693015535265208
1725631341435289000,6.5972890625,0.012774141377210616,1.2411658895149826,0.33873218863904475
1725631341445323300,6.6073232421875,0.1690070517487824,0.4134061021555215,-0.8569166890650987
1725631341455358000,6.61735791015625,0.35396073743104933,-0.43093200463708486,-2.117941417521238
1725631341465392400,6.627392333984375,0.27256957142353055,-1.172381983885169,-2.6796950105607507
1725631341475426300,6.63742626953125,0.21088746062293648,-1.5047760555438696,-2.205349651861191
1725631341485460200,6.647460205078125,-0.15759236215651035,-1.097924635728821,-0.12238543969690799
1725631341495495400,6.657495361328125,-0.5829127009242773,-0.10576742757419123,3.042628158998489
1725631341505529000,6.667529052734375,-0.3698806294880807,0.4580592636786401,3.7237703480064868
1725631341515563300,6.677563232421875,-0.28744492286369205,0.5581379232930019,2.769789122983813
1725631341525598200,6.68759814453125,-0.14753171752169728,0.6253973593018949,1.729194028869271
1725631341535632100,6.697632080078125,0.07419613993689417,0.4201355565410107,1.1917010168612003
1725631341545666300,6.707666259765625,0.17782339541092515,0.12835852275714277,0.45193362040519713
1725631341555700200,6.7177001953125,0.23881577038168905,-0.22901604170538484,-0.28199498689472674
1725631341565735400,6.7277353515625,0.5249347053386271,-0.6513155713472515,-0.9138444449454546
1725631341575769000,6.73776904296875,0.7431612036127596,-1.2437661351412534,-1.7664800956904887
1725631341585803300,6.74780322265625,0.34138124184310437,-1.9657114591807126,-2.499496264320612
1725631341595837400,6.75783740234375,0.034305005183815955,-2.5521365521401167,-2.639615513628721
1725631341605872000,6.7678720703125,-0.23945582185089587,-2.4798957840546962,-2.1012696841835976
1725631341615906300,6.77790625,-0.5938927984915673,-1.1304275599267333,-1.6338368813514708
1725631341625940200,6.787940185546875,-0.6313976226300001,-0.3628591333534568,-1.4537410109639166
1725631341635975400,6.797975341796875,-0.6431922514505684,-0.44945247111395,-2.484769819831848
1725631341646009000,6.808009033203125,-0.37635084841549393,-0.5464995444800704,-3.6743466841459274
1725631341656043300,6.818043212890625,-0.13267638595625758,-0.8083468655548989,-3.489526707845926
1725631341666077200,6.8280771484375,-0.14447218382060528,-1.0702114300254733,-2.836220620268583
1725631341676112100,6.838112060546875,-0.14741349796950817,-1.3178212591722607,-2.399123334467411
1725631341686146300,6.848146240234375,-0.23441022889912128,-1.4915810584060847,-1.5411059906840323
1725631341696180200,6.85818017578125,-0.14845584662929176,-1.4636245454661547,-0.4346703509151935
1725631341706214100,6.868214111328125,-0.33490181669592856,-1.1123393108546733,1.0231956310242414
1725631341716249300,6.878249267578125,-0.6949182009041309,-0.7986160373963415,2.5913223151028153
1725631341726283300,6.888283203125,-0.9048543521516025,-0.5224310884872451,3.63491542198956
1725631341736317200,6.898317138671875,-0.8380832476489245,-0.1618309861069545,3.6657056970506905
1725631341746352000,6.90835205078125,-0.13673011832647025,-0.009259794847015291,1.3687895221263169
1725631341756386300,6.91838623046875,0.2768823931213468,-0.17350277399914338,-0.7420195592969655
1725631341766420500,6.92842041015625,0.0370272697545588,-0.2298747956928797,-0.5724930137187242
1725631341776454100,6.9384541015625,-0.3169306911975145,-0.0867070272680372,0.6036766720116138
1725631341786489300,6.9484892578125,-0.15172252027504146,0.15313143722489475,1.186499941086769
1725631341796523300,6.958523193359375,0.4207336685646325,0.282088985321112,0.6395820981293916
1725631341806557200,6.96855712890625,0.24855266295485198,0.026818485353328286,0.7046370463639497
1725631341816591400,6.97859130859375,-0.08412380584180354,-0.136835734125413,0.7623579984486103
1725631341826626300,6.988626220703125,0.03085055388100445,-0.1630886214852333,-0.010156067833304404
1725631341836660200,6.99866015625,-0.12350370313711463,-0.18338227164708076,-0.3530786938995123
1725631341846694100,7.008694091796875,-0.2888723983835429,-0.26881263004280626,-0.039159459477663035
1725631341856729300,7.018729248046875,-0.15240765299499034,-0.2740092488378286,-0.062459671044349664
1725631341866763300,7.02876318359375,-0.35240525161735714,-0.14858619501069187,-0.129409054723382
1725631341876797200,7.038797119140625,-0.6270704070806503,-0.04259425623193383,-0.24323826299905776
1725631341886831400,7.048831298828125,-0.723819885739684,0.08449161624088883,-0.3454927688151598
1725631341896866300,7.0588662109375,-0.8196171782404184,0.07272548286244272,-0.6003904899477959
1725631341906900200,7.068900146484375,-1.0148346299141644,-0.3645498629193753,-0.9344991104394197
1725631341916934100,7.07893408203125,-1.0039069931864737,-0.7450413182709366,-1.009872623592615
1725631341926969300,7.08896923828125,-0.9334580038886516,-1.3239346274860202,-0.7432236743897199
1725631341937003000,7.0990029296875,-0.5822574518859386,-1.6052546377286314,-0.3836842600435018
1725631341947037200,7.109037109375,-0.12242328748926519,-1.5270003084421158,-0.09956336703598499
1725631341957071400,7.1190712890625,-0.020266542959213256,-1.2080308779586106,0.07994856598377227
1725631341967106300,7.129106201171875,-0.39762437646016474,-1.0371107591301203,0.5923451306581496
1725631341977140200,7.13914013671875,-0.5442911477155983,-1.118684880489111,1.234684418541193
1725631341987174400,7.14917431640625,-0.7238866673655807,-1.3058140105143188,1.7211796492397784
1725631341997208300,7.159208251953125,-0.7786771920215338,-1.1774907052010297,1.8631793054670094
1725631342007243300,7.1692431640625,-0.7419499281268567,-1.0262556031167507,1.6868208680421113
1725631342017277200,7.179277099609375,-0.5515969406843185,-0.808562115740776,1.4551526313275098
1725631342027311400,7.189311279296875,-0.12683467419072986,-0.38675416900813575,1.012315925091505
1725631342037346300,7.19934619140625,0.31267668701484796,0.10917495272904634,0.5766062942564487
1725631342047380200,7.209380126953125,0.6343669938296079,0.7454593244872987,0.0035667525708675384
1725631342057414400,7.219414306640625,0.8515233055889606,1.3287185007616877,-0.3452858480662107
1725631342067448000,7.229447998046875,1.034557421385497,1.5931743238344787,-0.40042788957357406
1725631342077483300,7.239483154296875,1.1433927668966353,1.596626948506385,-0.40131636284589767
1725631342087517200,7.24951708984375,0.9338520447075367,0.977879548612982,0.02278700134754181
1725631342097551400,7.25955126953125,0.4244014703571796,0.1497103767350316,0.35014147140383717
1725631342107586000,7.2695859375,0.39456688858568667,0.058452335099130864,-0.25685353137552736
1725631342117620200,7.2796201171875,0.42780002675428985,0.22144290303736924,-0.4960422267228365
1725631342127654400,7.289654296875,0.30592648210227485,0.44170682542324063,-0.07100421202778816
1725631342137688000,7.29968798828125,0.0985083050251007,0.5741751215867698,0.6994196039766073
1725631342147723300,7.30972314453125,0.04414849993661046,0.5606386175349355,1.1349573853760957
1725631342157757200,7.319757080078125,0.09604629882574081,0.54896907639876,0.4239800300747156
1725631342167791400,7.329791259765625,0.30501915799900886,0.489748679536581,-0.6451701273947954
1725631342177825300,7.3398251953125,0.36475320347175,0.19306231946647165,-0.2841395977079868
1725631342187860200,7.349860107421875,0.12447744354009628,0.19011735205575822,-0.12413374466896056
1725631342197894400,7.359894287109375,0.2116984847448766,0.4339484663814306,-1.0775269406706094
1725631342207928000,7.369927978515625,0.4560254197634756,0.31470936188623305,-1.45224288136065
1725631342217963300,7.37996337890625,0.44775779602527616,0.1051180785536766,-1.1718337023526428
1725631342227997200,7.3899970703125,0.41975554424747824,0.04992255329340696,-1.2664613665521145
1725631342238031000,7.400031005859375,0.43187443658635016,-0.038620238034427164,-1.4857675498217344
1725631342248065300,7.410065185546875,0.31640052984356876,-0.1925838882997632,-1.3180769874989986
1725631342258100200,7.420100341796875,0.26376301850304007,-0.07441051333993673,-1.465157892513275
1725631342268134400,7.430134521484375,0.331667072558403,0.10160320230051874,-1.759638851493597
1725631342278168300,7.440168212890625,0.20967340865805745,0.28528628352507945,-1.7663421485245228
1725631342288202200,7.4502021484375,-0.03324687443301082,0.4251568187691271,-1.6333002902567386
1725631342298237400,7.460237548828125,-0.21645459323078392,0.5606969235934317,-1.474451206037402
1725631342308271000,7.47027099609375,-0.5934731117747724,0.3705830056037754,-1.1224392645865677
1725631342318305300,7.48030517578125,-1.2079635848760604,0.14293942129537462,-0.6089969902515411
1725631342328340200,7.49034033203125,-1.5313400912120938,0.01573058003000915,-0.17532091107070444
1725631342338374100,7.5003740234375,-1.7148913627505302,-0.19862309539876877,0.30961423070430755
1725631342348408300,7.510408203125,-1.7527224962338803,-0.3065404492821544,0.9042951108336448
1725631342358442200,7.520442138671875,-1.1168518198430537,-0.364126596006006,1.1673796455532313
1725631342368477400,7.5304775390625,-0.251565069578588,-0.5153334949091076,0.8623609259456395
1725631342378511000,7.540510986328125,0.3024605595573783,-0.2313902234908193,0.08220306691229343
1725631342388545300,7.550545166015625,0.5689712693333625,0.015062106183916329,-0.3018406740933656
1725631342398579500,7.560579345703125,0.41203196425810457,0.1378922939736396,-0.22855916478335855
1725631342408614100,7.5706142578125,-0.003338204512000084,0.2928597875192761,0.02164192296564579
1725631342418648300,7.5806484375,-0.44517932383939623,0.36898704164922236,0.4752431843221187
1725631342428682200,7.59068212890625,-0.8228869936913251,0.48656230458542704,0.7040507709085941
1725631342438717400,7.600717529296875,-1.1812225852057336,0.4968539084319025,0.9252361920535563
1725631342448751000,7.610751220703125,-1.1284643700949848,0.3057588704504072,0.8504156366080046
1725631342458785300,7.620785400390625,-0.8732609440140425,-0.017257753064669666,0.7517828284204006
1725631342468818700,7.630818603515625,-0.8363070317566395,-0.050800322508625685,0.6542056667655706
1725631342478853600,7.640853515625,-0.7814256870120764,-0.025219580523017794,0.45925767968297004
1725631342488887600,7.650887451171875,-0.6499272587940097,-0.08640590716330335,0.2831716294586658
1725631342498921700,7.660921630859375,-0.734763889080286,-0.1452649051008746,0.3188964383125305
1725631342508955400,7.670955322265625,-0.9096282885551452,-0.028562278547044843,0.5464209993511439
1725631342518990600,7.680990478515625,-0.8373106558412313,0.5753790540164336,0.7720400190293788
1725631342529024500,7.6910244140625,-0.3787769065186381,1.1447725308172405,0.5944114155381918
1725631342539058700,7.70105859375,0.47732583581507204,1.5718845753073691,0.04663374088108539
1725631342549093400,7.71109326171875,0.7928449066489934,1.5278649624474345,0.18085165719091892
1725631342559127600,7.72112744140625,0.245026315459609,0.969950363048911,1.398323659646511
1725631342569161700,7.73116162109375,0.23228519956916568,0.4837970776557922,1.4874556490391493
1725631342579195400,7.7411953125,0.5575199009925127,0.1233376806541346,-0.06582768617272376
1725631342589230600,7.751230712890625,0.5921196513392031,-0.4364960319723934,-1.0943974114507435
1725631342599264500,7.761264404296875,0.6743680186979473,-0.88072105076164,-1.167303657707572
1725631342609298400,7.77129833984375,0.7251661857821047,-0.9754523214660584,-0.4143389260262251
1725631342619333600,7.781333740234375,0.6321570626951754,-0.6312039997540414,0.3744529058396816
1725631342629367600,7.791367431640625,0.49668753888905043,0.056866527212411165,1.3235831836998462
1725631342639401700,7.801401611328125,0.23010507905110716,0.225606525522843,0.7932610862344502
1725631342649435600,7.811435546875,0.22301672822535037,0.4387720140803605,-0.10269640436470508
1725631342659470600,7.821470703125,0.23912147532999514,0.5911206303644925,-0.328731603628397
1725631342669504800,7.8315048828125,0.5218931456856429,0.7142716476064175,-0.7671212673276663
1725631342679538400,7.841538330078125,0.8613619780361652,0.7661193237435072,-1.2412158661365509
1725631342689572600,7.851572509765625,0.9833481892824172,0.5698915259834378,-1.6523498586416243
1725631342699607600,7.861607666015625,0.6468641448963434,0.046193668963387606,-2.0779402465224264
1725631342709641700,7.871641845703125,0.06903970702178776,-0.6037503217697143,-2.0908201863616704
1725631342719675600,7.881675537109375,-0.4721786821849644,-1.2218518249750137,-1.8937784418702124
1725631342729710600,7.891710693359375,-1.1225018084287643,-1.6693825342461466,-1.3810001844018698
1725631342739744800,7.901744873046875,-1.0613666639864443,-1.0676542198233305,-1.0684288574576377
1725631342749778400,7.9117783203125,-0.26529453891925514,-0.36243323609158395,-0.9361153134644031
1725631342759812600,7.9218125,0.06167290458083152,-0.40233445384725924,-1.2038304305940866
1725631342769847600,7.93184765625,-0.5828308678597212,-0.3363900094270706,-1.6453893719792365
1725631342779881500,7.941881591796875,-1.5145944158554077,-0.5038718974351882,-1.645336180487275
1725631342789915600,7.95191552734375,-1.4909955136030912,-0.5757610025387258,-1.2442822679698466
1725631342799949600,7.961949462890625,-0.508883588117361,-0.360932256944105,-1.3851035280674695
1725631342809984800,7.97198486328125,0.17451427086293697,-0.1225238983195275,-1.6656038924902676
1725631342820018400,7.982018310546875,0.4580646705061197,0.08307663487643004,-1.4094541254699229
1725631342830052600,7.992052490234375,0.8052005303531885,0.38647133347876367,-0.38652912808060647
1725631342840087600,8.002087646484375,0.7122749938964843,0.9349919354576617,0.6374848335891962
1725631342850121500,8.01212158203125,0.052963528424501416,1.4704635977059601,1.335825410157442
1725631342860155600,8.02215576171875,-0.3617342940419912,1.4775747448854148,1.249227907678485
1725631342870189600,8.032189453125,-0.2904581332050264,1.0048002887643872,0.03968611370027065
1725631342880224500,8.042224609375,-0.2572051212921738,0.6303248788319528,-0.8685510127574205
1725631342890258400,8.052258544921875,-0.2777038655720651,0.47855391630530353,-0.9873246916979551
1725631342900292600,8.062292724609375,-0.40489962816014885,0.40207649703081694,-0.32366496788859367
1725631342910327600,8.07232763671875,-0.5646534061342477,0.27904545290675015,0.8410860827267169
1725631342920361500,8.082361572265626,-0.8291752801805734,0.36207386472728104,1.881479516789317
1725631342930395600,8.092395751953125,-0.9636106386333704,0.3641646264614537,2.2760247780650853
1725631342940429600,8.1024296875,-0.510239678901434,0.08363434182442724,1.3530296429365873
1725631342950464500,8.112464599609375,0.024942133554816243,-0.017406462511600693,0.04028875576853752
1725631342960498700,8.122498779296874,0.061829410316795105,-0.057771111369319256,-0.2881131775140762
1725631342970532600,8.13253271484375,-0.14979352497383952,-0.10982357109719887,0.2969727757960558
1725631342980566500,8.14256640625,-0.14801073321029543,-0.003715559057565406,0.7661883703917265
1725631342990601500,8.1526015625,-0.1794562573097646,0.11963192147137597,1.0477461349129675
1725631343000635600,8.1626357421875,-0.4439179986666888,0.07133437556391581,1.572185019558668
1725631343010669600,8.172669677734374,-0.49030090659186243,-0.0070862502002157265,1.5927613591194152
1725631343020704500,8.18270458984375,-0.2209375838637352,-0.14966231807591393,0.6922492739558219
1725631343030738700,8.19273876953125,-0.051962242427468296,-0.5232802891951054,-0.3904425021320581
1725631343040772600,8.202772705078125,-0.03463642909526825,-1.3012279978983103,-0.9477338550657033
1725631343050806500,8.212806640625,0.2678052796311676,-1.3144099894240497,-0.9838251591444015
1725631343060841500,8.222841552734375,0.07323343238458037,-0.9789508311063051,-1.0959984169065953
1725631343070875600,8.232875732421874,-0.2936860092103481,-0.6739998429726809,-1.1579688431292772
1725631343080909600,8.24290966796875,-0.6847181477986276,-0.25893596367277205,-1.0200590865641832
1725631343090943500,8.252943603515625,-0.8004349233865737,-0.19277144676111638,-0.48681028799712656
1725631343100978700,8.262978759765625,-0.9503243099503219,-0.39089901372790337,0.25627134757339953
1725631343111012600,8.2730126953125,-0.7041150683164596,-0.4874849723882973,0.8954396042048931
1725631343121046500,8.283046630859374,-0.3309183000177145,-0.5944917872980237,1.0028414097815752
1725631343131081500,8.29308154296875,-0.2945452563881874,-0.34310879628807306,0.3924567645639181
1725631343141115600,8.30311572265625,-0.26962343496903773,0.07019742568954825,-0.10139350507259369
1725631343151149600,8.313149658203125,-0.21719532859548926,0.6467033283114433,-0.33688334590196606
1725631343161183500,8.32318359375,-0.19227993691712617,1.3442552387200295,-0.42968905537128443
1725631343171218700,8.33321875,-0.12471329812258482,2.0493642865099013,-0.3446341061592102
1725631343181252400,8.34325244140625,-0.21272914296686649,2.6045322175487873,-0.11869243039786814
1725631343191286500,8.35328662109375,-0.46752515729069705,2.993612199155986,0.6717810709446668
1725631343201320700,8.36332080078125,-0.757615772357583,2.0598080852434038,2.1139532246679065
1725631343211355600,8.373355712890625,-0.9068943335466086,1.249643502742052,1.6235077950388193
1725631343221389600,8.3833896484375,-0.9180480341151356,0.8985187193892895,0.4531716377675533
1725631343231423700,8.393423828125,-0.5569564218908548,0.9589752339176834,-0.7495166370540857
1725631343241458700,8.403458740234376,-0.0848357535034418,1.2369855350904166,-1.600372418645024
1725631343251492600,8.41349267578125,0.2913347699090838,1.270590575311333,-1.423600139722228
1725631343261526500,8.423526611328125,0.6812982563525438,1.073774748530239,-0.3750175539851188
1725631343271560700,8.433560791015625,0.755963328975439,0.611669716592133,1.2361264340430498
1725631343281595400,8.443595458984374,0.6131888889834285,0.1361857092514634,1.5902800636976957
1725631343291629600,8.453629638671876,0.6135219203300774,-0.00682663114964962,-0.1615899073600769
1725631343301663700,8.463663818359375,0.6593819003596901,-0.2199582174375653,-1.784963846886158
1725631343311697400,8.473697509765625,0.20326704874709248,-0.424965826241672,-1.6422522429972886
1725631343321732600,8.483732666015625,-0.21125205615162848,-0.6078207860790192,-1.814714257505536
1725631343331766500,8.4937666015625,-0.35558395471870896,-0.25697335836291313,-2.0097230348646637
1725631343341800700,8.50380078125,-0.19726181698292491,0.13298662094920874,-1.9313392339795827
1725631343351835400,8.51383544921875,0.2252007942661643,0.34985169467702504,-1.9688415738999843
1725631343361869600,8.52386962890625,0.5056301392793655,0.4843491585806012,-2.0235621751248836
1725631343371903700,8.53390380859375,0.7642249613642692,0.4734264902889728,-1.8629110099196433
1725631343381937400,8.5439375,1.0582361108757554,0.6268595408089459,-1.569264748197794
1725631343391972600,8.55397265625,0.9845277544558048,0.08605448164343833,-0.3201028914928436
1725631343402006500,8.564006591796876,1.0534843863040209,0.018853461290895938,-0.8054641497254371
1725631343412040400,8.57404052734375,1.1415135290212928,0.31720424744188785,-1.5750538529932498
1725631343422075400,8.584075439453125,1.1318741785384714,0.5397625643752515,-1.8146756790608167
1725631343432109600,8.594109619140625,0.7336014211721718,0.6689188133813441,-1.5187977127641439
1725631343442143700,8.604143798828124,0.1302718090325594,0.8012465320304035,-0.9742366620659828
1725631343452177400,8.614177490234376,-0.33260333049520846,0.7708616228997707,-0.3963163626015186
1725631343462212600,8.624212646484375,-0.8622504513084888,0.5585491709750146,0.43603871665894983
1725631343472247000,8.6342470703125,-1.6939567112714051,0.23538484608493743,1.5584651217639445
1725631343482281000,8.644281005859375,-2.103690043198317,-0.10184884762465954,2.5409341901242732
1725631343492315100,8.654315185546874,-2.1534502455368636,-0.44040801778435706,3.471159861028194
1725631343502350000,8.66435009765625,-2.2290116824775934,-0.6765876675087958,3.8358950904518365
1725631343512384300,8.67438427734375,-2.065821938705444,-0.5369976297065615,3.2900667962968346
1725631343522418000,8.68441796875,-1.6648472289040683,0.1165763880919665,2.0740274569928645
1725631343532453000,8.694453125,-1.1630360633909702,0.41764205922484393,1.2608879503339527
1725631343542487000,8.704487060546874,-0.763650960868597,0.5685765709273517,0.6493295851618052
1725631343552521000,8.71452099609375,-0.558994649720192,0.649545127608627,-0.031982115194201466
1725631343562555100,8.72455517578125,-0.5823924764424562,0.45087724322006106,-0.5189736049771309
1725631343572590000,8.734590087890625,-0.35664369290471076,0.3496805028285831,-1.009115667745471
1725631343582624300,8.744624267578125,0.056924541009962554,0.389982556470111,-1.6185539720237254
1725631343592658000,8.754657958984374,0.34381022255569693,0.11858524369634688,-2.1732886262118813
1725631343602692000,8.764692138671874,0.3436649688661098,-0.15858345555309206,-2.503552261713147
1725631343612727000,8.77472705078125,0.047743747949600214,-0.31544209660757333,-2.853128500449657
1725631343622761000,8.784760986328125,-0.22484745078384874,-0.42557376553956416,-2.9246827475756403
1725631343632795100,8.794795166015625,-0.285994870185852,-0.38620866395458575,-2.924766918727755
1725631343642830000,8.804830078125,-0.0560566721342504,-0.06891290230434388,-2.855866400980949
1725631343652864000,8.814864013671874,0.18414193090796468,0.440634666147083,-0.92194708738029
1725631343662898200,8.824898193359376,-0.20895298542901872,0.9120113842993974,1.6562345911204814
1725631343672932000,8.83493212890625,-0.1610848804473877,1.0441931186065077,1.9109370819419622
1725631343682967300,8.84496728515625,-0.3512333582937717,0.7061989619184285,1.73885676022768
1725631343693001000,8.8550009765625,-0.7654464659832417,0.10964344702363013,1.9195640405118464
1725631343703035100,8.86503515625,-0.4880424601405859,-0.4122802399307489,1.8356945016920565
1725631343713070000,8.875070068359374,0.21432547224760054,-0.5824373750301077,1.6126216593652962
1725631343723104000,8.88510400390625,0.32524799929633735,0.191938156008441,3.346363268536329
1725631343733138200,8.89513818359375,-0.27903540643677116,1.200157295039296,5.343711390474438
1725631343743172000,8.905172119140625,-0.6955015537500381,1.9851503191441295,6.467034452158212
1725631343753207000,8.91520703125,-0.3652724050402641,2.2049080455735326,5.196680169820786
1725631343763241000,8.925240966796874,0.20440394382253288,1.8538035743564367,3.1961569249778985
1725631343773275100,8.935275146484376,0.904200564417988,0.923010698023811,1.1647738469690083
1725631343783309000,8.94530908203125,1.1928624618560075,-0.26346250118650494,-0.6830617588937282
1725631343793344000,8.955343994140625,1.2203368903674185,-1.3990106189973652,-2.1339614089518784
1725631343803378200,8.965378173828125,1.2838796804733574,-2.2959951145566997,-3.603646423500776
1725631343813412000,8.975412109375,1.2755483438491821,-2.6776126513287424,-4.861531100365519
1725631343823447000,8.985447021484376,1.3298410750508307,-2.6432220136880873,-5.778000633117556
1725631343833481000,8.99548095703125,1.1978180384367703,-2.2285709529727695,-5.3763008239120245
1725631343843515100,9.00551513671875,-0.1919325847841799,-2.1284419148780405,-3.752722886246443
1725631343853549000,9.015549072265625,-1.049408369036764,-1.0839257748622446,-3.61178881342411
1725631343863584000,9.025583984375,-0.9464701187402009,0.26929551818892355,-4.3030823940902945
1725631343873618200,9.0356181640625,-0.9677766722716391,0.5246148257344961,-4.416560304710269
1725631343883652000,9.045652099609375,-1.3146546118348836,0.3876655847646296,-4.3903515122205015
1725631343893686000,9.05568603515625,-1.2682447428375483,0.28486257822029293,-4.4210663839578626
1725631343903721200,9.06572119140625,-1.0944944420844316,-0.008405717034637928,-3.990930169340968
1725631343913755100,9.075755126953124,-0.8804529013447463,-0.2212576095983386,-3.4744273383915423
1725631343923789000,9.0857890625,-0.5733347252398729,-0.41505708423294124,-2.698894801071286
1725631343933824000,9.095823974609376,-0.2939963903337717,-0.4564175608862191,-1.7818308095574378
1725631343943858200,9.105858154296875,-0.0685005586437881,-0.3784230515796691,-0.5150765975385904
1725631343953892000,9.11589208984375,0.44909109045565127,-0.0897929009867832,0.9750567462772131
1725631343963926000,9.125926025390624,0.2852444902099669,0.48148719327822326,2.8525819724828003
1725631343973961200,9.135961181640624,-0.2827063500344753,0.9739679281271993,4.544412193119526
1725631343983995100,9.1459951171875,-0.8670400236725807,0.9039295654568821,5.225119497841597
1725631343994029000,9.156029052734375,-1.1919294918548315,0.29591128404438494,4.543477542617917
1725631344004063200,9.166063232421875,-1.0815156449805945,-0.2718621720728464,3.4286090055465697
1725631344014098200,9.17609814453125,-1.1800941656976938,-0.43369763342551887,3.7384190510839224
1725631344024132000,9.186132080078124,-0.6882341930955648,-0.5355426085926592,4.020012471440435
1725631344034166000,9.196166015625,0.14787811980657278,-0.4385434660214931,3.451221234849095
1725631344044201200,9.206201171875,0.33638653882835057,-0.11515176211632787,2.7858576297312974
1725631344054235000,9.21623486328125,0.36777598535902795,-0.17677947584856302,2.926235237714648
1725631344064269000,9.22626904296875,0.8326333847451954,-0.1812897928798571,2.4505296965777874
1725631344074303200,9.23630322265625,1.5003162996560335,-0.14148969741109757,1.0686188270717858
1725631344084338200,9.246338134765624,1.6923562903374432,-0.4985376602677628,0.049157706400752066
1725631344094372000,9.2563720703125,1.3639064262598752,-0.7145760373804718,-0.23316987344920634
1725631344104406000,9.266406005859375,0.7826877428371459,-0.4941526135839522,-0.30321137792468067
1725631344114441200,9.276441162109375,0.32303770283572375,-0.15742365452609955,-0.6127139649480581
1725631344124475000,9.286474853515625,0.13425298762321472,-0.10685936926305294,-0.8882172517359256
1725631344134509000,9.296509033203124,0.09807926595807075,-0.39704569978937504,-1.4505337393552065
1725631344144543200,9.306543212890626,0.07507891412079334,-0.8369090162377804,-2.0811989560574293
1725631344154578000,9.316577880859375,0.3375999697387218,-1.0556154069833457,-2.5705700344532727
1725631344164612000,9.326612060546875,-0.008264993389695881,-1.2414024747498333,-3.3573429277122018
1725631344174646000,9.33664599609375,-0.5955686227492988,-1.3352332894831895,-4.164125758820772
1725631344184680000,9.346679931640624,-1.0345353556841612,-1.4200496076337992,-4.630641446807981
1725631344194715100,9.356715087890626,-1.2253116100400685,-1.5416612864792345,-4.426138864916563
1725631344204749000,9.3667490234375,-1.5064080406598745,-1.7497342742033302,-3.8186172079145906
1725631344214783200,9.376783203125,-1.236090485946834,-1.6716697684004902,-2.886728572234511
1725631344224818000,9.38681787109375,-0.5617072696797549,-1.3512716933533548,-1.3782196137726306
1725631344234852000,9.39685205078125,-0.18520371492058038,-1.1734921370841562,0.7425766086578369
1725631344244886300,9.40688623046875,-0.14103344154357908,-0.966600760360062,2.1451585102707145
1725631344254920000,9.416919921875,-0.19288272511586546,-0.4055263817563653,2.285775187706947
1725631344264955100,9.426955078125,-0.5607413472570478,0.7015181836910546,2.376864740908146
1725631344274989000,9.436989013671875,-0.8796971145413816,2.0470947341427204,3.0896722342461347
1725631344285023000,9.44702294921875,-0.5708177739828825,3.2890999970912933,4.045668306222558
1725631344295057200,9.45705712890625,0.07741466359198093,3.898214476242661,5.118887905088067
1725631344305092000,9.467092041015626,0.7576841614186763,3.5988188572138546,4.749185408645868
1725631344315126300,9.477126220703125,1.2677287561394273,2.396901128373295,2.481948332670331
1725631344325160000,9.487159912109375,1.3930892661243677,0.967633172147721,0.5443751727372408
1725631344335195100,9.497195068359375,1.0315626234836877,-0.027951982895284888,0.3694114045411348
1725631344345229000,9.50722900390625,0.4291682463675737,-0.3976367975503206,0.11108370895981788
1725631344355263000,9.517262939453126,-0.07975859636962414,-0.6211546071656048,-0.4473591520965099
1725631344365297200,9.527297119140625,-0.5487050186350941,-1.0717917580194771,-0.2658849790930748
1725631344375332000,9.53733203125,-0.5182420758321881,-1.1739843045152722,-0.5719447321861982
1725631344385366300,9.5473662109375,0.031092472878098486,-1.0342835728801787,-1.411540868616104
1725631344395400000,9.55739990234375,1.0075824668288231,-0.7208597207598387,-2.161556687363982
1725631344405434000,9.56743408203125,1.6283603496365249,-0.43417964478880167,-2.5598382125586268
1725631344415469000,9.577468994140625,1.6679053013004361,0.027198972570896148,-2.8134745354533193
1725631344425503000,9.5875029296875,1.1349614770293235,0.03728928169161081,-2.0429361531585455
1725631344435537200,9.597537109375,0.3526426405698061,-0.5214443790048361,-1.4067121332854031
1725631344445572000,9.607572021484375,0.17238339631408453,-0.8819881480880081,-2.2314847945928573
1725631344455606000,9.61760595703125,0.2886652584388852,-0.9147884477972984,-3.8598844533264636
1725631344465640200,9.62764013671875,0.32744682451486584,-0.9491584810413419,-4.56404336078465
1725631344475673900,9.637673828125,0.4526924759484827,-0.611463526495546,-4.42336530855
1725631344485709000,9.647708984375,0.7231924014911055,-0.15922449340298772,-4.023405621010065
1725631344495743000,9.657742919921875,0.7276081721067428,0.15905264396741986,-3.0510084493309257
1725631344505777000,9.66777685546875,0.8974253711946308,0.43792043875232334,-2.110028744700551
1725631344515811000,9.67781103515625,1.3461398834228515,0.6972611107684672,-2.18174022821486
1725631344525846000,9.687845947265625,0.9502999061614275,0.7139160391017794,-0.9429279160887002
1725631344535880000,9.6978798828125,-0.30658494601100683,0.6399401177868247,1.1746025825440882
1725631344545913900,9.707913818359375,-1.919048492205143,0.37548254114836455,3.5197733775496483
1725631344555949000,9.717948974609374,-3.7680505114987493,0.014104220937192439,5.4876721176415675
1725631344565983000,9.72798291015625,-4.808759879642725,-0.39486777122840283,6.382164796385169
1725631344576017000,9.738016845703125,-4.564286229629815,-1.0637247714199125,7.055791787457466
1725631344586051000,9.748051025390625,-3.9854531992346045,-1.531533860218525,7.476368146568536
1725631344596086000,9.7580859375,-2.6747368036314842,-0.878204245635122,6.691552232596278
1725631344606120000,9.768119873046874,-0.533994063976407,0.2909328380446881,5.374193037977815
1725631344616153900,9.77815380859375,1.1113907779581844,0.790493959608674,3.8403415484666823
1725631344626189000,9.78818896484375,1.8239561331033705,0.8389935674268751,1.7138661113560199
1725631344636222700,9.79822265625,2.1402475034840402,0.7788732991155236,0.2087456262886524
1725631344646257000,9.8082568359375,1.9415870717495678,0.623516221730411,-0.21716098793447017
1725631344656291000,9.818291015625,1.3260478202477097,0.27312515947967764,-0.3869616742789745
1725631344666326000,9.828325927734374,0.6930345791146159,-0.15750957924388348,-0.6006441724479198
1725631344676360000,9.83835986328125,0.3880969619192183,-0.4488766439873725,-1.1708739174097775
1725631344686393900,9.848393798828125,0.15015110623985528,-0.6134213825650513,-2.068157688176632
1725631344696428000,9.858427978515625,-0.23340689707547424,-0.6766784875974059,-2.9260218872249126
1725631344706463000,9.868462890625,-0.6493661177799105,-0.7232906011685729,-3.650249769243598
1725631344716497000,9.878496826171874,-0.7106935699239373,-0.7286790892738848,-4.422166454154253
1725631344726531000,9.888531005859376,-0.4205193682268262,-0.7861236355699598,-5.271807014736533
1725631344736566000,9.89856591796875,0.16116466768532992,-0.943822307645157,-5.999072072494029
1725631344746600000,9.908599853515625,1.040829779653251,-1.0574995402295142,-5.81581569224894
1725631344756634000,9.918634033203125,1.5994246164008974,-0.6488463316895068,-4.847997665053605
1725631344766667800,9.928667724609374,1.6897864398494362,0.30084811939205974,-3.750661862063408
1725631344776703000,9.938702880859376,1.334943366625905,1.206228577776998,-1.6145464899480342
1725631344786737000,9.94873681640625,0.39474589841440316,1.496945361918211,1.9990192700207232
1725631344796771000,9.95877099609375,-0.3249634832665324,2.5383935657307504,4.893642979419231
1725631344806805000,9.968804931640625,-0.7414709855034947,3.5496795632526275,6.212043207523227
1725631344816840000,9.97883984375,-1.0697831946760414,3.4455469886049626,6.361499024975299
1725631344826874000,9.9888740234375,-1.2160501529589294,2.161111427814513,4.936879479077458
1725631344836907800,9.99890771484375,-1.3350462424784897,1.076527262108773,2.9868577564597127
1725631344846943000,10.00894287109375,-1.1656985605984926,-0.05470006989352405,1.943689012464881
1725631344856977000,10.018976806640625,-0.3695858843252063,-1.1105999198414385,0.9493091415584087
1725631344867011000,10.029010986328124,0.5186901118606329,-2.242737279360741,0.19172493338286875
1725631344877045000,10.039044921875,1.0461588657215237,-3.192334736341238,-0.274459915214777
1725631344887080000,10.049079833984376,1.4994332332111895,-3.629941725230217,-0.659423109152913
1725631344897114000,10.059114013671875,2.0208342114657163,-2.790240374860167,-1.0616074870049952
1725631344907147800,10.069147705078125,0.9481012270733713,-1.5195513076104223,-0.4187859685629606
1725631344917182000,10.079181884765624,-1.0076023405730723,-0.5847361169591546,0.2601262694358826
1725631344927217000,10.089216796875,-1.473199744671583,0.10571721349060535,0.5354962852329015
1725631344937250800,10.099250732421876,-1.300451606698334,0.2561125037498772,-0.598575549480319
1725631344947285000,10.109284912109375,-1.291755382284522,-0.15089827134534717,-1.9316554603219032
1725631344957320000,10.11931982421875,-0.7985065856724977,-0.5969328968398273,-3.1002316221833226
1725631344967354000,10.12935400390625,-0.13018763788044452,-0.9594618483908474,-4.072600736811757
1725631344977388000,10.139387939453124,0.26150807918310165,-1.2821475959837436,-4.391680714997649
1725631344987422000,10.149421875,0.5795438090130687,-1.3816925505802033,-4.130474249109626
1725631344997457200,10.15945703125,0.8506564596265553,-0.9896026465672999,-3.5556770501017567
1725631345007490800,10.16949072265625,1.1262772353142498,-0.5982075929507613,-3.279170723751187
1725631345017525000,10.17952490234375,1.2069713589683175,-0.23849578117970377,-3.0931711822777985
1725631345027559200,10.18955908203125,0.8159557331234216,0.03474189876373857,-2.3511726657688614
1725631345037593900,10.19959375,0.6041010349035263,0.30701256030593066,-1.630643638268113
1725631345047628000,10.2096279296875,0.19815964260548352,0.6065113839808851,-0.9787567698389291
1725631345057662000,10.219661865234375,-0.3386258056551218,0.8280708260700106,-0.3873948049992323
1725631345067697200,10.229697265625,-0.4874950553908944,0.9632520344540476,-0.2606692902714014
1725631345077730800,10.239730712890625,-0.2376131165936589,0.938011721670255,-0.39133798966705796
1725631345087765000,10.249764892578124,-0.3683727091431617,0.5629585483824834,0.16979016495048999
1725631345097799200,10.259799072265626,-0.8762979736223816,0.1634890555122867,1.1208867744475604
1725631345107833900,10.269833740234375,-1.3010723689451813,-0.0758471128811594,2.2427193053126335
1725631345117868000,10.279867919921875,-1.4524807817697525,-0.15439413237078115,3.1743992666780945
1725631345127902000,10.28990185546875,-1.4381003742396832,-0.22179115021945908,4.0444063234627246
1725631345137936000,10.299935791015624,-1.3412724235169589,-0.16940960466768593,4.23565253341794
1725631345147970800,10.309970703125,-1.0759811725333333,-0.11618267606664448,3.933282867014408
1725631345158005000,10.3200048828125,-0.7288818453043698,-0.1633580860763788,3.5209307308912274
1725631345168039000,10.330038818359375,-0.33914193848371504,-0.17000464795138687,2.6495477095782753
1725631345178073900,10.340073974609375,-0.016048048481345174,-0.12436996457763015,1.8630629856109617
1725631345188108000,10.35010791015625,0.2666805133849382,-0.06934435252416879,1.2791104202449322
1725631345198142000,10.360141845703126,0.3624877427577972,-0.14032708337251096,0.7890648035883903
1725631345208175900,10.37017578125,0.2980348520696163,-0.3300622311776504,0.24224983648359774
1725631345218210800,10.3802109375,0.3136988696694374,-0.5103454042982309,-0.5743097077518701
1725631345228245000,10.390244873046875,0.47596857598721976,-0.5655253666631878,-1.4091957667946815
1725631345238279000,10.40027880859375,0.3263609289743006,-0.5541041011996567,-1.6951584882766007
1725631345248312800,10.410312744140626,-0.19922361857518553,-0.5280702999506145,-1.7646885360985993
1725631345258348000,10.42034814453125,-0.8250004787139594,-0.7042272965192794,-1.6539853508889675
1725631345268382000,10.4303818359375,-1.0480091697633265,-1.0511404535263775,-1.2932494202345608
1725631345278416000,10.440415771484375,-1.0805606092780828,-1.6304212276890873,-0.7666986580014228
1725631345288451000,10.450451171875,-1.019789037451148,-1.98085086838454,-0.32643443260192867
1725631345298485000,10.460485107421874,-0.6469190168887377,-1.9147166004806755,0.027559038054943082
1725631345308519000,10.470518798828126,-0.2511484516017139,-1.426289524936676,-0.07567337288260459
1725631345318553000,10.480552978515625,0.008196312067657708,-0.5561735278848559,-0.7260416534423828
1725631345328588000,10.490588134765625,0.3218041424527764,0.11008125391900539,-1.2309043154805899
1725631345338622000,10.5006220703125,0.6432008731484413,0.7197169804655015,-1.5285411081433296
1725631345348655900,10.51065576171875,0.9478180262178182,1.1603137988202272,-1.7596762608945369
1725631345358690000,10.52068994140625,1.286179043456912,1.7008274738237261,-2.274447153484821
1725631345368725000,10.53072509765625,1.0655652847200632,2.027931476250291,-2.184688556626439
1725631345378759000,10.540759033203125,0.711465284948796,2.446720805814117,-1.6576017878204583
1725631345388793000,10.55079296875,0.41791503094732757,1.9748057430014012,0.5302864416301251
1725631345398828000,10.560828125,0.24426658313348887,0.8929745292656123,2.2909499599963423
1725631345408862000,10.570862060546874,-0.0797657567627728,0.25560879201143977,2.6392642159730193
1725631345418896000,10.580895751953125,-0.2303754204250872,0.07564458517953752,2.3725620752781627
1725631345428930000,10.590929931640625,0.06596504881680011,0.35660102280676365,1.5234066678643226
1725631345438964700,10.60096484375,0.4170854482553899,0.7204122692532837,0.6299655440002679
1725631345448999000,10.6109990234375,0.6144809746205806,0.7513212022580206,0.6109557231038808
1725631345459033000,10.621033203125,0.8233931896477937,0.7244643211230635,0.8781780882805585
1725631345469066500,10.63106640625,1.1162450861215591,0.473663952306658,0.5305962382316589
1725631345479101700,10.641101806640625,1.0331915398597717,-0.05203326183706522,-0.045377603340148925
1725631345489135600,10.651135498046875,0.8600000420331955,-0.15271350407376885,-1.055121632117033
1725631345499169500,10.66116943359375,0.9418667165979743,-0.03276844326630234,-2.2681524372547863
1725631345509204700,10.671204833984374,0.8104935221947729,0.07689853076338768,-2.2385510797172783
1725631345519238700,10.68123876953125,0.37321722656488415,0.09655892452299594,-1.6534978596329688
1725631345529272600,10.6912724609375,0.10070552280843258,0.17217662169560788,-1.6511486661583183
1725631345539306800,10.701306640625,0.03992459863126278,0.1801217354811728,-1.9228841248452662
1725631345549341700,10.711341796875,-0.30276100380867715,0.11145736457780003,-1.5112000972419977
1725631345559375600,10.721375732421874,-0.7525687181010842,-0.10243132368773221,-1.2058803488612175
1725631345569409500,10.731409423828126,-0.46121232088208197,-0.04313727706745266,-2.1573276714920997
1725631345579443700,10.741443603515625,0.2674579274982214,0.3503368478454649,-2.922883589199185
1725631345589478700,10.751478759765625,0.2846080920025706,0.7040902992013841,-2.110144480034709
1725631345599512600,10.7615126953125,0.08733663040846586,0.8023048089116811,-1.4508984810143708
1725631345609546800,10.771546630859374,-0.5749596960932016,0.7019174852069466,-0.5967617780566216
1725631345619581700,10.781581787109374,-1.2014809448584913,0.658328957240656,-0.06633505117297173
1725631345629615600,10.79161572265625,-1.4734478742137551,0.527049797796458,0.3406009051203728
1725631345639649500,10.8016494140625,-1.5234543063983321,0.20959128333255647,1.0712567743599415
1725631345649683700,10.81168359375,-1.3149597322613,-0.08607157890871167,1.9588105937510727
1725631345659718400,10.821718505859375,-1.201856500172615,-0.46439343513622877,2.788642876535654
1725631345669752600,10.831752685546874,-0.7383405785232782,-0.7759801349572837,2.998288082012534
1725631345679786800,10.841786865234376,-0.04007014458179474,-1.029222417033091,2.373361701223254
1725631345689820400,10.8518203125,0.011621171949803829,-0.7566327526696026,1.308400812137127
1725631345699855600,10.861855712890625,-0.16002075834721327,-0.20714301339760421,0.9653168580293655
1725631345709889500,10.8718896484375,-0.35499329534918067,0.1969752916591242,0.9496709606081247
1725631345719923700,10.881923828125,-0.5181745635539293,0.4274795991608873,0.6744622728526591
1725631345729958700,10.891958740234376,-0.5767910031735897,0.44249753740951414,0.7363537886202335
1725631345739992600,10.90199267578125,-0.2632183902323246,0.325554946353659,0.5188181221544742
1725631345750026800,10.91202685546875,-0.08716770358234643,0.14710647784695027,0.33576164839565753
1725631345760060700,10.922060791015625,-0.17125906845927238,0.04146306024491787,0.32237492807805535
1725631345770095600,10.932095703125,-0.3408960886746645,0.051025728762336076,-0.20397008244991302
1725631345780129800,10.9421298828125,-0.21189941414445637,0.18168717643329874,-1.1818512384980917
1725631345790163500,10.95216357421875,-0.013100012330710887,0.3138873049136251,-1.714725358533859
1725631345800197600,10.96219775390625,0.16075579462349415,0.4724729524238035,-1.8794179080843925
1725631345810232600,10.972232666015625,0.3260746593788266,0.5728496451366692,-1.835752953881025
1725631345820266800,10.982266845703125,0.3859922447249293,0.8404557489339262,-0.933159386268258
1725631345830300700,10.99230078125,0.004608370578289032,1.4594192027308046,1.9001292722016572
1725631345840335600,11.002335693359376,-0.39278731169253583,1.8225608793526886,3.5877030044376848
1725631345850369800,11.012369873046875,-0.07658858803138137,1.8657656686984,2.6583079391390085
1725631345860403500,11.022403564453125,0.1967500680685043,1.371867029875517,1.3022101408034563
1725631345870437600,11.032437744140625,0.34456922422945496,0.41874654986802484,0.3517278638124466
1725631345880472600,11.04247265625,0.7500590733677148,-0.3987878672815859,-0.5272036731839179
1725631345890506500,11.052506591796876,0.8543542912311851,-0.4930233538256958,-0.5474158556073904
1725631345900540700,11.062540771484375,0.8072155234374105,0.05828600208889693,0.16482465149760245
1725631345910574600,11.07257470703125,0.6949269687324762,0.39422118042055515,0.1929039140343666
1725631345920609800,11.08260986328125,0.5259985351778567,0.6957054057590663,0.0314665668874979
1725631345930643500,11.0926435546875,0.1117291672565043,0.6627250733077525,0.3258452345371246
1725631345940677600,11.102677734375,-0.08726414969414473,0.6306566680695861,0.37501346233189103
1725631345950712600,11.112712646484376,0.27801804608777164,0.8005820037070661,-0.09268938961327075
1725631345960746500,11.12274658203125,0.35324002194106574,0.4954315474785864,-0.397160412210226
1725631345970780700,11.13278076171875,0.4543213923245668,-0.025912366826459764,-1.0681377655565738
1725631345980814600,11.142814697265624,0.7662804325893521,-0.6196655376516282,-2.0450632283151147
1725631345990849800,11.152849853515624,0.6018447804093361,-1.453862445386499,-2.8689895019263028
1725631346000883500,11.162883544921876,0.28955870014727114,-2.1942066188171503,-3.5188305437415837
1725631346010917600,11.172917724609375,-0.14693696649894117,-2.9693644776061174,-3.179997232815623
1725631346020951600,11.18295166015625,-0.6236373638920486,-2.5153286242246624,-1.8037901279091835
1725631346030986500,11.192986572265625,-0.5076242357060313,-0.6298880948498845,-1.6130267330348491
1725631346041020700,11.203020751953124,-0.6688209059648216,0.12556173164546489,-1.3278782505452633
1725631346051054600,11.2130546875,-1.1210533631861208,0.17979549920149146,-0.9519190317958592
1725631346061089500,11.223089599609375,-0.7160607960455119,-0.01338533207811415,-2.120614436122775
1725631346071123700,11.233123779296875,-0.4388122730255127,-0.27346535121947524,-3.6217023046731947
1725631346081157600,11.24315771484375,-0.35956367200464007,-0.5780269016440958,-3.047218409398198
1725631346091191600,11.253191650390624,0.17325696427822113,-0.6823628168441355,-2.144966202569008
1725631346101226500,11.2632265625,0.6860813989758491,-0.6414480381317437,-0.9102256699264049
1725631346111260700,11.2732607421875,0.3308981340125203,-0.23074896644521503,1.3790315146774053
1725631346121294800,11.283294921875,0.3023214433476329,0.5012494765097275,2.929814265245199
1725631346131328500,11.29332861328125,-0.02257072824835777,1.4720580272905528,3.1737095308482646
1725631346141363700,11.30336376953125,-0.780766054059565,2.26685830579102,3.1534833198994394
1725631346151397600,11.313397705078126,-0.6476257038533687,2.3994060969315467,2.4580706134766337
1725631346161431600,11.323431640625,0.19185674306899309,1.1457203330613672,0.4941927994638681
1725631346171465700,11.3334658203125,0.03706277945935726,0.19708965702010317,-0.6650508859068155
1725631346181500700,11.343500732421875,-0.5608516757637262,-0.0930329971528612,-0.6582014584034681
1725631346191534600,11.35353466796875,-0.5719499928832054,-0.0533642273130361,-0.19890870740711689
1725631346201568500,11.363568603515626,-0.6843745950579643,-0.04630617116084322,0.9374474388509988
1725631346211603700,11.373603759765626,-0.5868064934924244,-0.26567338216900827,2.394416179689765
1725631346221637600,11.3836376953125,-0.20682605640292168,-0.4284524262484163,2.577844993892312
1725631346231671600,11.393671630859375,-0.11930471707731485,-0.5175853289565071,2.012494253143668
1725631346241705700,11.403705810546874,-0.36094898888319726,-0.7849012541681528,1.4992928018271923
1725631346251740700,11.41374072265625,-0.31859248692989345,-0.86633487107791,0.5690834975361824
1725631346261774600,11.423774658203126,-0.3873945127382874,-0.719971174422279,0.19885259330570695
1725631346271808500,11.43380859375,-0.4975505854591727,-0.5713751886699349,0.07509761882126331
1725631346281842700,11.4438427734375,-0.2692334127381444,-0.4199230463014915,-0.2870814963787794
1725631346291877600,11.453877685546875,-0.1287163962841034,-0.2570873583977111,-0.8117512671709061
1725631346301911600,11.46391162109375,0.026739538365602493,-0.04815397271830588,-1.0746832416772842
1725631346311945700,11.47394580078125,0.41394861153438683,0.004186418839171528,-0.9672831896662711
1725631346321980700,11.483980712890625,0.5679186915405094,-0.03657145227845758,-0.9166004656553268
1725631346332014600,11.4940146484375,0.07107552369832992,-0.3580296308377757,-1.0927677644222975
1725631346342048800,11.504048828125,-0.3478820020392537,-0.8146049761015921,-0.9827022925943135
1725631346352082700,11.514082763671874,-0.5906587850064039,-1.2706558956325054,-0.4971522337913513
1725631346362117600,11.52411767578125,-0.9569557107888161,-1.790334726269543,0.016782207974791526
1725631346372151600,11.534151611328125,-0.78812343108505,-1.682134756052494,0.6279793386191129
1725631346382185700,11.544185791015625,-0.2785916081920266,-1.2489334547765552,0.8118862917274237
1725631346392219600,11.5542197265625,0.007946867351233958,-0.45806006739623845,0.33360826975405217
1725631346402254600,11.564254638671875,0.09948299527615308,-0.03496865672431886,-0.13198971886634825
1725631346412288800,11.574288818359374,0.27951193790733814,0.25221140465810893,-0.7092191134572029
1725631346422322400,11.584322509765625,0.36587680067420003,0.6926020329162478,-1.157875904148817
1725631346432357600,11.594357666015625,0.2559767485409975,1.1176372711323201,-1.2153262225985526
1725631346442391600,11.6043916015625,-0.023718729239702224,1.3602547718845308,-0.8621727098971604
1725631346452425700,11.61442578125,-0.26439956284090876,1.674636363121122,-0.5517629449009895
1725631346462459600,11.624459716796874,-0.28704525602161884,1.2589010143004358,0.6634843672424554
1725631346472494000,11.634494140625,0.005879705688357353,0.42603857003971934,1.6383879687845706
1725631346482528300,11.6445283203125,0.6784452050089835,0.24241072613373396,1.4558844527333974
1725631346492562200,11.654562255859375,1.1074867562569677,0.3798326991818845,1.3564865053921937
1725631346502596000,11.66459619140625,1.0685282261788844,0.6942049380682408,1.2739835787504912
1725631346512631300,11.67463134765625,0.7925099756062031,1.132993099565804,0.9337988532155752
1725631346522665200,11.684665283203126,0.36404052515774965,1.6066007916405796,0.8350964869230986
1725631346532699100,11.69469921875,-0.1878879855684936,1.3870983551464975,0.7225029579222202
1725631346542733300,11.7047333984375,-0.5769552538245916,0.6260071617633104,-0.5545984605878591
1725631346552768300,11.714768310546875,-0.18439795149564742,0.24224837517887352,-1.7557324917048214
1725631346562802400,11.724802490234374,0.610859423122555,0.23914178746566175,-1.4960329232484102
1725631346572836000,11.734836181640626,0.871164702387154,0.30220863062292336,-0.216157948371768
1725631346582871300,11.744871337890626,0.8570297940507531,0.09919467985406517,0.024793080472946167
1725631346592905200,11.7549052734375,0.9695870826944708,-0.0640780660264194,-0.9588847791552543
1725631346602939100,11.764939208984375,1.0211796150267123,0.06796177559196949,-1.7524539084255695
1725631346612973300,11.774973388671874,0.9846382290929555,0.2722419469043612,-2.127760800746083
1725631346623008300,11.78500830078125,0.6932618119992315,0.395087551458925,-2.2211615534991025
1725631346633042200,11.795042236328126,0.23011399300992488,0.15336115432754158,-1.9370242938786744
1725631346643076000,11.805076171875,-0.1075004436455667,-0.10905264152362942,-1.9259429278939961
1725631346653110300,11.8151103515625,-0.3172060010075569,-0.00471738391071558,-1.9487854588210582
1725631346663145200,11.825145263671875,-0.07412935831099748,0.2528312901221216,-1.9872586896002291
1725631346673179100,11.83517919921875,0.26342969489544626,0.5559918146423996,-1.839563452079892
1725631346683213300,11.84521337890625,-0.04883914197087288,0.6963039561741053,-1.0922884564727544
1725631346693248300,11.855248291015625,-0.494933388698101,0.6429015979409217,-0.18451953204870222
1725631346703282200,11.8652822265625,-1.0115937482967972,0.41247532411143184,0.6356511884212493
1725631346713316000,11.875316162109375,-1.7190791698291896,0.14810885982252656,1.1649877819806336
1725631346723350300,11.885350341796874,-1.9412708454072474,-0.11988507424853742,1.5410001922219991
1725631346733385200,11.89538525390625,-1.6061609389185905,-0.32565248844400047,1.8973446099191904
1725631346743419100,11.905419189453125,-1.200351648567617,-0.2919272559095174,2.2544594274669882
1725631346753453300,11.915453369140625,-0.8266454694420099,-0.12809073866643012,2.440619712460041
1725631346763487000,11.925487060546875,-0.5272349451050162,0.13331234577223658,2.193364615035057
1725631346773522200,11.935522216796874,-0.5958753506109118,0.37203305828161537,1.8250123641580343
1725631346783556000,11.94555615234375,-0.9525719427466391,0.4114117865331471,1.2963427100747822
1725631346793590300,11.95559033203125,-1.1174009781584142,0.5019062233854085,0.21625556352734565
1725631346803624200,11.965624267578125,-1.133641918863356,0.42072504686675966,-0.5166939696073531
1725631346813659100,11.9756591796875,-0.848678437551856,0.2738720323242247,-0.7615835069447755
1725631346823693300,11.985693359375,-0.21585078211873768,0.2942554796613753,-0.8837766389399766
1725631346833727200,11.995727294921876,0.05564268450587988,0.4643698715975508,-0.7173655950337648
1725631346843762200,12.00576220703125,-0.3966489555567503,0.5990403539804742,0.1760644229143858
1725631346853796400,12.01579638671875,-0.522694086804986,0.7092215976752341,0.7920195617407559
1725631346863830000,12.025830078125,-0.27766864812821146,0.7432813959263265,0.4449895003557205
1725631346873864200,12.0358642578125,-0.11455547672361135,0.48852830742876974,-0.16228782649636267
1725631346883899100,12.045899169921874,0.17338818944245576,0.12345202774880454,-0.8925240090191364
1725631346893933300,12.055933349609376,0.6159022395953536,-0.057147636575577775,-1.8064491179853677
1725631346903967200,12.06596728515625,0.883790959726274,-0.17795239208545535,-2.262809907183051
1725631346914001200,12.076001220703125,1.139093462267518,-0.2887282406724989,-2.2018863596647975
1725631346924036400,12.086036376953125,1.3629399193152785,-0.1153682726775296,-1.1985931144624948
1725631346934070000,12.096070068359374,0.7511494989529252,0.4949292605122551,1.0992816763609647
1725631346944104200,12.106104248046876,-0.09458265601396561,1.0696965393058955,2.7908558764100073
1725631346954139100,12.11613916015625,-0.548078703430295,1.2250680836077779,3.1758547261834145
1725631346964173300,12.12617333984375,-0.5798297863475979,0.9706345459207892,3.165895642226934
1725631346974207200,12.136207275390625,-0.3472366898730397,0.3615190803887322,2.353289219531417
1725631346984241200,12.1462412109375,0.08036547622159122,0.003198394182510674,1.534775034096837
1725631346994276400,12.1562763671875,0.4500190189555287,0.004921345517598093,0.9120862031012773
1725631347004310000,12.16631005859375,0.8587357211858033,0.06465951917618512,-0.022633856612443923
1725631347014344200,12.17634423828125,0.9306665465392172,0.02208849768936634,-0.6129992116302252
1725631347024378400,12.18637841796875,0.768981215980649,-0.07808189532905817,-0.38982349345088
1725631347034413000,12.1964130859375,1.134374909313023,-0.010514160555973649,-1.0004548069059849
1725631347044447200,12.206447265625,1.368044402847439,-0.23511969234272836,-2.0034125365436077
1725631347054481200,12.216481201171876,1.1995020460009573,-0.6501900013834238,-2.7652900579988953
1725631347064515000,12.22651513671875,1.002362686353922,-1.0286457861889153,-3.349229763883352
1725631347074550300,12.23655029296875,0.6239661574549973,-1.2480650013789534,-3.5408804629862307
1725631347084584200,12.246584228515625,0.02663373990356922,-1.0130780685704202,-3.039731853035092
1725631347094618400,12.256618408203124,-0.6667202804237604,-0.2974352056760341,-1.9890800598084926
1725631347104653000,12.266653076171876,-1.1797978130996227,0.31879692346081134,-0.9966460622727871
1725631347114687200,12.276687255859375,-1.162437512975931,0.5378443827290088,-0.4902022685229778
1725631347124721400,12.286721435546875,-0.9816758721560239,0.3947805313363671,-0.725873311138153
1725631347134755000,12.296755126953125,-0.5793038627773524,0.15253851283304393,-1.2288491365164518
1725631347144790300,12.306790283203124,-0.12942469068393112,-0.09060052757523954,-1.4383645781338215
1725631347154824200,12.31682421875,0.2584774793155491,-0.2922256543342024,-1.4460072018414736
1725631347164858000,12.326858154296875,0.3472517413116991,-0.24889606956504284,-1.1917764201849699
1725631347174893000,12.33689306640625,0.3339293184019625,-0.13283877344373612,-0.7570183909863233
1725631347184927200,12.34692724609375,0.10957885735481977,-0.0326925284858793,0.18568682226240635
1725631347194961400,12.35696142578125,0.08625994108766318,0.1371011070633307,1.0290963795006274
1725631347204996000,12.36699609375,-0.12435498620420693,0.3493181723222136,1.862303691676259
1725631347215030300,12.3770302734375,-0.3017775457292795,0.46073440117202696,2.5496669471561906
1725631347225064200,12.387064208984375,-0.1479113644890487,0.6140311119612306,2.56082079385519
1725631347235098000,12.39709814453125,0.02828326067626476,0.4883815193692222,2.101815627628565
1725631347245133000,12.407133056640625,0.2505956400245428,-0.10258745496436021,1.154334286019206
1725631347255167200,12.417167236328124,0.22935645264089105,-0.5360700665328652,0.002350362518429756
1725631347265201200,12.427201171875,-0.04530161549448967,-0.6049417965766042,-0.619970804208517
1725631347275235000,12.437235107421875,-0.12930910148024558,-0.5401680033709854,-0.6345102016925811
1725631347285270300,12.447270263671875,-0.27050913176238534,-0.28784480890147385,-0.014085808497667312
1725631347295304200,12.45730419921875,-0.5298413282111287,-0.09170159328547306,0.9158937786906957
1725631347305338000,12.467338134765624,-0.46053719809949395,-0.04516695626415312,1.224902444717288
1725631347315373000,12.477373046875,-0.16915245156884193,-0.1527159517591819,0.756136931976676
1725631347325407200,12.4874072265625,-0.11184592550396918,-0.2918535148198716,0.2310106495887041
1725631347335441200,12.497441162109375,0.017500585377216337,-0.4987853879511356,0.03515899166464805
1725631347345475000,12.50747509765625,0.1594160704523325,-0.418210799023509,-0.2407090367823839
1725631347355510300,12.51751025390625,0.0774091106340289,-0.16517017699964343,-0.6506254701912403
1725631347365544200,12.527544189453126,0.05877396826893091,-0.07008081357255577,-1.001761797851324
1725631347375578000,12.537578125,0.09661562314629554,0.006016155016981065,-1.3191583529949187
1725631347385612300,12.5476123046875,0.012855974441766739,0.051716633635945614,-1.8875825098395347
