time,seconds_elapsed,z,y,x
1725631334862836700,0.024836669921875,0.2852018475532532,-0.6054837107658386,0.1603352576494217
1725631334872871000,0.034870849609375,0.2629033327102661,-0.6744021773338318,0.11017101258039474
1725631334882904800,0.04490478515625,0.21485033631324768,-0.5839257836341858,0.09045163542032242
1725631334892938800,0.054938720703125,0.1346810758113861,-0.45030078291893005,0.04222455993294716
1725631334902974000,0.064973876953125,0.019869277253746986,-0.2975698411464691,-0.04904463514685631
1725631334913007900,0.0750078125,-0.13461968302726746,-0.21493008732795715,-0.14955201745033264
1725631334923041800,0.085041748046875,-0.31071004271507263,-0.2671610713005066,-0.23452310264110565
1725631334933076700,0.09507666015625,-0.4731202721595764,-0.46219930052757263,-0.30560311675071716
1725631334943111000,0.10511083984375,-0.6671086549758911,-0.6895283460617065,-0.2998075485229492
1725631334953144800,0.115144775390625,-1.028165340423584,-0.7981528639793396,-0.17059677839279175
1725631334963178800,0.1251787109375,-1.765929937362671,-0.07254426181316376,0.15995317697525024
1725631334973214000,0.1352138671875,-2.349778652191162,0.8800385594367981,0.8201953768730164
1725631334983248000,0.145247802734375,-2.295125961303711,0.9276660084724426,1.6573898792266846
1725631334993281800,0.15528173828125,-1.5425527095794678,-0.040968749672174454,2.1945412158966064
1725631335003317000,0.16531689453125,-0.6407611966133118,-0.9574138522148132,2.3400065898895264
1725631335013351000,0.175350830078125,-0.3247698247432709,-1.0864843130111694,2.2109007835388184
1725631335023384800,0.185384765625,-0.3608625829219818,-0.8481700420379639,1.855350136756897
1725631335033419000,0.1954189453125,-0.3018650412559509,-0.6322345733642578,1.391148328781128
1725631335043454000,0.205453857421875,-0.19741110503673553,-0.34177345037460327,0.9497544765472412
1725631335053487900,0.21548779296875,-0.24029584228992462,0.1679847240447998,0.7193845510482788
1725631335063521800,0.225521728515625,-0.38658756017684937,0.8147110342979431,0.6890612840652466
1725631335073557000,0.235556884765625,-0.5648710131645203,1.4902700185775757,0.7942966222763062
1725631335083591000,0.2455908203125,-0.6397231221199036,1.8210269212722778,0.9127563834190369
1725631335093624800,0.255624755859375,-0.5057196021080017,1.7472271919250488,0.9765732288360596
1725631335103659000,0.265658935546875,-0.11516942083835602,1.3882839679718018,1.0121065378189087
1725631335113694000,0.27569384765625,0.5723029375076294,0.9625853896141052,1.0079879760742188
1725631335123728000,0.285727783203125,1.4866074323654175,0.7266692519187927,0.9860458374023438
1725631335133761800,0.29576171875,2.294421434402466,0.9272946715354919,0.9660472273826599
1725631335143797000,0.305796875,2.7537245750427246,1.18259596824646,0.8317937850952148
1725631335153830700,0.31583056640625,2.909881114959717,1.319887638092041,0.6048009395599365
1725631335163864800,0.32586474609375,2.9426026344299316,1.4227956533432007,0.3911661207675934
1725631335173899000,0.33589892578125,2.8051297664642334,1.2744618654251099,0.1677308827638626
1725631335183934000,0.345933837890625,2.477593421936035,1.0617748498916626,-0.07152245193719864
1725631335193967900,0.3559677734375,2.1333367824554443,1.1338087320327759,-0.330742210149765
1725631335204001800,0.366001708984375,1.799899935722351,2.491603374481201,-0.8484966158866882
1725631335214036000,0.376035888671875,1.7556469440460205,4.3850178718566895,-1.8443752527236938
1725631335224071000,0.38607080078125,2.179212808609009,6.078231334686279,-2.668760061264038
1725631335234104800,0.396104736328125,2.57062029838562,7.291641712188721,-3.7680442333221436
1725631335244139000,0.406138916015625,2.568119525909424,7.745021820068359,-4.809043884277344
1725631335254174000,0.416174072265625,2.045637845993042,8.74038314819336,-5.1760406494140625
1725631335264208000,0.426207763671875,1.6338911056518555,8.574570655822754,-5.263713836669922
1725631335274242000,0.436241943359375,1.1582450866699219,7.20203971862793,-4.973577976226807
1725631335284277000,0.446277099609375,0.5792406797409058,5.6928815841674805,-4.137762546539307
1725631335294311000,0.456310791015625,0.25925135612487793,4.1143479347229,-3.2110755443573
1725631335304344800,0.4663447265625,0.3399909436702728,2.191060781478882,-2.464111566543579
1725631335314379000,0.47637890625,0.38806354999542236,0.5362230539321899,-1.8079253435134888
1725631335324413700,0.48641357421875,0.16804488003253937,-0.3868227005004883,-1.2704696655273438
1725631335334447900,0.49644775390625,-0.006920146755874157,-0.7655597925186157,-0.8975065350532532
1725631335344482000,0.50648193359375,-0.17580290138721466,-0.6522071361541748,-0.6832025051116943
1725631335354517000,0.51651708984375,-0.2765384614467621,-0.2089451551437378,-0.660163402557373
1725631335364551000,0.526551025390625,-0.43924880027770996,0.03662145882844925,-0.8309401869773865
1725631335374584800,0.536584716796875,-0.732880175113678,0.23859693109989166,-1.0946722030639648
1725631335384618800,0.54661865234375,-1.0659431219100952,0.3934842348098755,-1.3686600923538208
1725631335394653700,0.55665380859375,-1.4596290588378906,0.4161047041416168,-1.5726500749588013
1725631335404688000,0.56668798828125,-1.8346912860870361,0.5049208998680115,-1.6324363946914673
1725631335414722000,0.57672216796875,-2.1406123638153076,0.7850089073181152,-1.6482723951339722
1725631335424755700,0.586755615234375,-2.3593618869781494,1.253136157989502,-1.7569210529327393
1725631335434791000,0.596791015625,-2.4266390800476074,1.7906416654586792,-1.8688759803771973
1725631335444824800,0.606824951171875,-2.585057258605957,2.811840295791626,-1.9249682426452637
1725631335454858800,0.616858642578125,-2.711888313293457,3.4915003776550293,-2.2493579387664795
1725631335464893700,0.626893798828125,-2.6151442527770996,3.8238918781280518,-2.4046733379364014
1725631335474927600,0.636927734375,-2.606959104537964,3.8442814350128174,-2.178504467010498
1725631335484961800,0.6469619140625,-2.6212925910949707,3.272437334060669,-1.512927770614624
1725631335494996700,0.656996826171875,-2.5697267055511475,2.485976457595825,-0.7489433884620667
1725631335505030700,0.66703076171875,-2.494488477706909,2.049556255340576,-0.183203786611557
1725631335515064800,0.67706494140625,-2.210240125656128,1.9335546493530273,-0.011003795079886913
1725631335525098800,0.6870986328125,-1.787002682685852,2.1792638301849365,-0.18161015212535858
1725631335535133700,0.6971337890625,-1.345155954360962,2.274768590927124,-0.4588151276111603
1725631335545167600,0.707167724609375,-0.9367043375968933,2.1128406524658203,-0.6891219019889832
1725631335555201800,0.717201904296875,-0.4737325608730316,1.6269415616989136,-0.9354776740074158
1725631335565235700,0.727235595703125,0.15856099128723145,1.0936726331710815,-1.2252652645111084
1725631335575270700,0.737270751953125,0.777938187122345,0.9662286043167114,-1.595760464668274
1725631335585304800,0.747304931640625,1.1434130668640137,-0.06036486476659775,-2.085287094116211
1725631335595338800,0.7573388671875,1.3416321277618408,-0.8771129846572876,-2.365229606628418
1725631335605373700,0.767373779296875,1.4207708835601807,-0.7791613936424255,-2.7796716690063477
1725631335615407600,0.77740771484375,1.4450788497924805,-0.2960488498210907,-3.245034694671631
1725631335625441800,0.78744189453125,1.5454542636871338,0.37391674518585205,-3.508741855621338
1725631335635475700,0.797475830078125,1.7279328107833862,0.672447919845581,-3.6973659992218018
1725631335645510700,0.8075107421875,1.9218997955322266,0.5169640779495239,-3.8685131072998047
1725631335655544800,0.817544921875,2.124046802520752,0.4624069631099701,-4.178656101226807
1725631335665578500,0.82757861328125,2.1216793060302734,0.14484284818172455,-4.858597755432129
1725631335675613700,0.83761376953125,1.9890203475952148,-0.21391519904136658,-5.467606067657471
1725631335685647600,0.847647705078125,2.105313539505005,0.010350393131375313,-5.671535968780518
1725631335695681800,0.857681884765625,2.180572509765625,0.02873789705336094,-5.782766342163086
1725631335705715700,0.8677158203125,2.3367550373077393,0.2458808571100235,-5.741224765777588
1725631335715750700,0.877750732421875,2.4747722148895264,0.2612576186656952,-5.6623053550720215
1725631335725784800,0.887784912109375,2.5884599685668945,0.3118150532245636,-5.373776912689209
1725631335735818800,0.89781884765625,2.49884295463562,0.4555717706680298,-5.012628555297852
1725631335745853700,0.907853759765625,2.2684428691864014,1.279800295829773,-4.58994197845459
1725631335755887900,0.917887939453125,1.8058595657348633,2.0964863300323486,-4.345558166503906
1725631335765921500,0.927921630859375,1.309878945350647,2.1426730155944824,-4.205567359924316
1725631335775955700,0.937955810546875,1.067992091178894,2.19860577583313,-3.767300605773926
1725631335785990700,0.94799072265625,0.9999741315841675,2.420539617538452,-3.2823495864868164
1725631335796024800,0.95802490234375,1.0691349506378174,2.8074638843536377,-2.8419058322906494
1725631335806058800,0.968058837890625,1.2315888404846191,3.245365858078003,-2.5024425983428955
1725631335816093700,0.97809375,1.352874994277954,3.5964901447296143,-2.2768726348876953
1725631335826128000,0.9881279296875,1.4040718078613281,3.8559768199920654,-2.0841290950775146
1725631335836161500,0.99816162109375,1.497344970703125,4.221959114074707,-1.8661452531814575
1725631335846195700,1.00819580078125,1.6075257062911987,3.737616539001465,-1.9600043296813965
1725631335856230700,1.018230712890625,1.6883620023727417,3.240112543106079,-2.079789876937866
1725631335866264800,1.028264892578125,1.6193419694900513,2.814286231994629,-1.97298264503479
1725631335876298800,1.038298828125,1.4359196424484253,2.294257402420044,-1.604337453842163
1725631335886333700,1.048333740234375,1.233978271484375,1.457690954208374,-1.089633822441101
1725631335896367900,1.058367919921875,1.0462785959243774,1.1016725301742554,-0.45888370275497437
1725631335906401500,1.068401611328125,0.9422741532325745,0.8216940760612488,0.024490421637892723
1725631335916435700,1.078435791015625,0.9586648344993591,0.5597647428512573,0.36870136857032776
1725631335926470700,1.088470703125,0.9764185547828674,0.4903092384338379,0.3474123179912567
1725631335936504600,1.098504638671875,0.9008926153182983,0.49129968881607056,0.05373592674732208
1725631335946538800,1.108538818359375,0.7465078830718994,0.4966273307800293,-0.2764108180999756
1725631335956573700,1.11857373046875,0.5090180039405823,0.3828471601009369,-0.45424601435661316
1725631335966608000,1.12860791015625,0.2659406363964081,0.2601902186870575,-0.5529823899269104
1725631335976641500,1.1386416015625,0.16199927031993866,0.1522466540336609,-0.8284821510314941
1725631335986675700,1.14867578125,0.10146056115627289,-0.03728519380092621,-1.1721491813659668
1725631335996710700,1.158710693359375,0.07342053204774857,-0.29688867926597595,-1.439937710762024
1725631336006744600,1.16874462890625,0.1276020109653473,-0.4737966060638428,-1.6079388856887817
1725631336016778800,1.17877880859375,0.20955753326416016,-0.8338978290557861,-1.6836693286895752
1725631336026812700,1.188812744140625,0.14320780336856842,-1.2856112718582153,-1.5342092514038086
1725631336036847600,1.19884765625,-0.042736560106277466,-1.4243580102920532,-1.4937094449996948
1725631336046881800,1.2088818359375,-0.3574649393558502,-1.4232594966888428,-1.8868167400360107
1725631336056915700,1.218915771484375,-0.542428195476532,-1.3333237171173096,-1.8345142602920532
1725631336066951000,1.228950927734375,-0.5732499957084656,-1.3671895265579224,-1.4533323049545288
1725631336076984600,1.238984619140625,-0.46283119916915894,-1.1380970478057861,-1.0118049383163452
1725631336087018800,1.249018798828125,-0.2813364863395691,-0.4617639183998108,-0.9539056420326233
1725631336097053000,1.259052978515625,-0.1817188858985901,0.17304708063602448,-1.0752190351486206
1725631336107087600,1.269087646484375,-0.04188694432377815,0.5630936622619629,-1.0236033201217651
1725631336117121800,1.279121826171875,0.09123721718788147,0.5829964280128479,-0.8405930995941162
1725631336127155700,1.28915576171875,0.22380058467388153,0.48915597796440125,-0.6413721442222595
1725631336137191000,1.29919091796875,0.23501498997211456,0.9169513583183289,-0.30311617255210876
1725631336147224600,1.309224609375,0.31945425271987915,0.08725444972515106,-0.19140216708183289
1725631336157258800,1.3192587890625,0.12468241155147552,-0.2974202334880829,0.22688929736614227
1725631336167292700,1.329292724609375,0.08691426366567612,-0.9637588262557983,0.9904783368110657
1725631336177327600,1.33932763671875,0.4186234772205353,-1.8351305723190308,2.261188268661499
1725631336187361800,1.34936181640625,0.789870023727417,-1.9335870742797852,3.14180588722229
1725631336197395700,1.359395751953125,0.3032594323158264,-1.6053043603897095,2.357790231704712
1725631336207429600,1.3694296875,-0.035393454134464264,-0.9719008207321167,1.4994267225265503
1725631336217464600,1.379464599609375,-0.07232940942049026,-0.34311309456825256,1.0465948581695557
1725631336227498800,1.389498779296875,0.17953932285308838,-0.44090092182159424,0.5821099281311035
1725631336237532700,1.39953271484375,0.5039026141166687,-0.5948053598403931,0.15261833369731903
1725631336247567600,1.409567626953125,0.6364784836769104,-1.0740619897842407,-0.24866518378257751
1725631336257601800,1.419601806640625,0.5249926447868347,-0.9976120591163635,-0.22427503764629364
1725631336267635700,1.4296357421875,0.3365369737148285,-0.485270231962204,0.000445155194029212
1725631336277669600,1.439669677734375,0.1117335706949234,0.4294680058956146,0.6035711169242859
1725631336287704800,1.449704833984375,0.03978215157985687,0.10202730447053909,1.0179965496063232
1725631336297738800,1.45973876953125,0.051546890288591385,-0.36150500178337097,1.5110536813735962
1725631336307772700,1.469772705078125,-0.02261761762201786,-0.4205917716026306,1.9289894104003906
1725631336317807600,1.4798076171875,-0.18936242163181305,-0.2690773606300354,1.8312876224517822
1725631336327841800,1.489841796875,-0.35791122913360596,-0.16392724215984344,1.4985994100570679
1725631336337875700,1.499875732421875,-0.5437341332435608,-0.10288283973932266,1.2104547023773193
1725631336347909600,1.50990966796875,-0.7606959939002991,-0.15538065135478973,1.027942180633545
1725631336357944800,1.51994482421875,-0.9491277933120728,-0.38116517663002014,0.956914484500885
1725631336367978800,1.529978759765625,-1.1453769207000732,-0.6636703610420227,1.06407630443573
1725631336378012700,1.5400126953125,-1.256966233253479,-0.8823423385620117,1.205789566040039
1725631336388047600,1.550047607421875,-1.3292571306228638,-0.9668071269989014,1.336546540260315
1725631336398081800,1.560081787109375,-1.4233152866363525,-0.8404869437217712,1.3873875141143799
1725631336408115700,1.57011572265625,-1.596100926399231,-0.4616525173187256,1.3280035257339478
1725631336418149600,1.580149658203125,-1.8097193241119385,0.05347970128059387,1.255753993988037
1725631336428184800,1.590184814453125,-1.7983505725860596,0.7055144906044006,1.1624623537063599
1725631336438218500,1.600218505859375,-1.5525555610656738,1.1173211336135864,0.9805464744567871
1725631336448252700,1.610252685546875,-1.2271058559417725,1.2132362127304077,0.8429566621780396
1725631336458286800,1.620286865234375,-1.0006535053253174,0.9119806885719299,0.6986300945281982
1725631336468322300,1.630322265625,-0.8151739239692688,0.6262043118476868,0.6693938970565796
1725631336478356200,1.640356201171875,-0.6358015537261963,0.3217543661594391,0.6568728685379028
1725631336488390100,1.65039013671875,-0.5602056384086609,0.22728434205055237,0.6534945964813232
1725631336498425300,1.66042529296875,-0.47855105996131897,0.32060542702674866,0.533338725566864
1725631336508459000,1.670458984375,-0.36250728368759155,0.4060300290584564,0.3712502717971802
1725631336518493200,1.6804931640625,-0.271386981010437,0.34633681178092957,0.25825849175453186
1725631336528527400,1.69052734375,-0.19055338203907013,0.19002284109592438,0.15493158996105194
1725631336538562300,1.700562255859375,-0.15191639959812164,0.007284052670001984,-0.007284867111593485
1725631336548596200,1.71059619140625,-0.17164510488510132,-0.1468309611082077,-0.08875522017478943
1725631336558630100,1.720630126953125,-0.24372498691082,-0.10709694027900696,-0.11039118468761444
1725631336568665300,1.730665283203125,-0.3754047155380249,-0.010843638330698013,-0.08236061781644821
1725631336578699000,1.740698974609375,-0.4603096842765808,0.08262567967176437,-0.04546580836176872
1725631336588733200,1.750733154296875,-0.45490264892578125,0.19677488505840302,-0.029602689668536186
1725631336598767400,1.760767333984375,-0.42429202795028687,0.25700438022613525,-0.045495353639125824
1725631336608802300,1.77080224609375,-0.4647164046764374,0.4060567021369934,-0.0463680699467659
1725631336618836200,1.780836181640625,-0.5878377556800842,0.6573350429534912,-0.0727139562368393
1725631336628870100,1.7908701171875,-0.7136537432670593,0.8904029130935669,-0.09985928982496262
1725631336638905300,1.8009052734375,-0.7981352806091309,0.9434605836868286,-0.05153440684080124
1725631336648939000,1.81093896484375,-0.7400887608528137,0.886576771736145,-0.0777156800031662
1725631336658973200,1.82097314453125,-0.6110005378723145,0.8382393717765808,-0.16690686345100403
1725631336669007400,1.83100732421875,-0.4299444258213043,0.6976431012153625,-0.312125563621521
1725631336679042000,1.8410419921875,-0.2511778473854065,0.6509388089179993,-0.41750025749206543
1725631336689076200,1.851076171875,-0.0635480284690857,0.7077488303184509,-0.5736690759658813
1725631336699110100,1.861110107421875,0.1422198861837387,0.9722412824630737,-0.7843249440193176
1725631336709144000,1.87114404296875,0.397859662771225,1.1568076610565186,-1.1169297695159912
1725631336719179300,1.88117919921875,0.6128650903701782,1.7262930870056152,-1.341133713722229
1725631336729213200,1.891213134765625,0.7879354357719421,1.8198676109313965,-1.5799407958984375
1725631336739247400,1.901247314453125,0.9659606218338013,1.8576306104660034,-1.6572086811065674
1725631336749282000,1.911281982421875,0.9670432209968567,1.762571930885315,-1.3768202066421509
1725631336759316200,1.921316162109375,0.9629900455474854,1.3386157751083374,-0.9381266236305237
1725631336769350400,1.931350341796875,1.0181223154067993,1.1027734279632568,-0.5352380275726318
1725631336779384000,1.941384033203125,1.066831350326538,0.9530673027038574,-0.2716887593269348
1725631336789419300,1.951419189453125,1.165088415145874,0.2140001356601715,-0.4090724289417267
1725631336799453200,1.961453125,1.110715627670288,-0.2659507393836975,-0.452118456363678
1725631336809487000,1.971487060546875,1.142459511756897,-0.7249233722686768,-0.15688173472881317
1725631336819521300,1.981521240234375,1.19424569606781,-0.9735110998153687,0.3674062490463257
1725631336829556200,1.99155615234375,1.3256380558013916,-1.3315894603729248,0.7902392148971558
1725631336839590400,2.00159033203125,1.4894672632217407,-1.3697024583816528,1.0886447429656982
1725631336849624000,2.0116240234375,1.3088083267211914,-1.4367129802703857,1.2272011041641235
1725631336859659300,2.0216591796875,0.7118558287620544,-1.7334060668945312,1.1696888208389282
1725631336869693200,2.031693115234375,0.1183144822716713,-1.8241106271743774,1.0697249174118042
1725631336879727000,2.04172705078125,-0.13546785712242126,-1.7780274152755737,1.0700379610061646
1725631336889761300,2.05176123046875,-0.3578364849090576,-1.9739094972610474,1.152172565460205
1725631336899796200,2.061796142578125,-0.4915704131126404,-2.222642421722412,1.1182093620300293
1725631336909830100,2.071830078125,-0.6296537518501282,-2.3236286640167236,0.9719946980476379
1725631336919864000,2.081864013671875,-0.7946172952651978,-2.123335838317871,0.6890184879302979
1725631336929899300,2.091899169921875,-0.8876779675483704,-1.598028540611267,0.29170283675193787
1725631336939933200,2.10193310546875,-1.0200539827346802,-1.099191665649414,-0.07771020382642746
1725631336949967000,2.111967041015625,-1.1309075355529785,-0.8641348481178284,-0.15037162601947784
1725631336960001300,2.122001220703125,-1.054015874862671,-0.8418946862220764,0.148677796125412
1725631336970036200,2.1320361328125,-0.9139127731323242,-0.9776517152786255,0.6051446199417114
1725631336980070100,2.142070068359375,-0.706146776676178,-1.0572285652160645,1.0274626016616821
1725631336990104300,2.152104248046875,-0.6214795708656311,-1.2662837505340576,1.4087257385253906
1725631337000138200,2.16213818359375,-0.7619059681892395,-1.6556754112243652,2.2037668228149414
1725631337010173400,2.17217333984375,-0.6162547469139099,-1.01620352268219,2.7140285968780518
1725631337020207000,2.18220703125,-0.8557911515235901,-0.10940200090408325,2.783452033996582
1725631337030241300,2.1922412109375,-1.2715473175048828,0.6106293797492981,2.6716976165771484
1725631337040276200,2.202276123046875,-1.692638635635376,1.1017271280288696,2.4939513206481934
1725631337050310100,2.21231005859375,-2.0338687896728516,1.3250731229782104,2.444064140319824
1725631337060344300,2.22234423828125,-1.5147346258163452,0.8393281698226929,2.2501413822174072
1725631337070378200,2.232378173828125,-0.7348247170448303,0.8158209919929504,2.133207082748413
1725631337080413200,2.2424130859375,0.19060488045215607,0.35055553913116455,1.7667824029922485
1725631337090447000,2.252447021484375,0.6224958300590515,0.05988694354891777,1.6394904851913452
1725631337100481300,2.262481201171875,0.8477074503898621,-0.14928457140922546,1.4595311880111694
1725631337110516200,2.27251611328125,1.0334899425506592,-0.2963919937610626,1.0438573360443115
1725631337120550100,2.282550048828125,1.0574476718902588,-0.2241789847612381,0.6840064525604248
1725631337130584300,2.292584228515625,0.8299503326416016,-0.08406102657318115,0.470883309841156
1725631337140618200,2.3026181640625,0.5991648435592651,0.07666667550802231,0.21468153595924377
1725631337150653200,2.312653076171875,0.4269864559173584,0.3005730211734772,-0.14351283013820648
1725631337160687000,2.32268701171875,0.32213294506073,0.5065687298774719,-0.6159943342208862
1725631337170721300,2.33272119140625,0.23194950819015503,0.40168118476867676,-1.1756254434585571
1725631337180755200,2.342755126953125,0.10966461151838303,0.45173314213752747,-1.7613413333892822
1725631337190790100,2.3527900390625,-0.3498406410217285,2.06781268119812,-2.2372801303863525
1725631337200824300,2.36282421875,-0.24574774503707886,1.7114633321762085,-2.680280923843384
1725631337210858000,2.37285791015625,-0.034153468906879425,1.2425591945648193,-2.804961681365967
1725631337220893200,2.38289306640625,-0.24470441043376923,1.6308655738830566,-2.5203635692596436
1725631337230927000,2.392927001953125,-0.7210959792137146,1.392509937286377,-2.559264898300171
1725631337240961300,2.402961181640625,-1.0167593955993652,0.3553963303565979,-2.5658793449401855
1725631337250995200,2.4129951171875,-0.906557023525238,-0.7992858290672302,-2.1543684005737305
1725631337261030100,2.423030029296875,-0.6114495396614075,-1.622003197669983,-1.5538196563720703
1725631337271064300,2.433064208984375,-0.04589826613664627,-1.6963067054748535,-1.3672196865081787
1725631337281098200,2.44309814453125,0.26395750045776367,-1.9991203546524048,-1.6782724857330322
1725631337291133200,2.45313330078125,0.4297853410243988,-1.8297444581985474,-2.024634838104248
1725631337301167400,2.46316748046875,0.8033472299575806,-1.7306581735610962,-1.9122493267059326
1725631337311201000,2.473200927734375,1.2124756574630737,-1.4020099639892578,-1.338700294494629
1725631337321235200,2.483235107421875,1.445786714553833,-1.2354836463928223,-0.8258189558982849
1725631337331270100,2.493270263671875,1.615986704826355,-1.192813754081726,-0.707304060459137
1725631337341304300,2.50330419921875,1.780706524848938,-1.4208446741104126,-0.688895583152771
1725631337351338200,2.513338134765625,1.8565698862075806,-1.8830205202102661,-0.6723701357841492
1725631337361372200,2.5233720703125,1.771551251411438,-1.9646345376968384,-0.7122879028320312
1725631337371407400,2.533407470703125,1.700190782546997,-1.7918843030929565,-0.9062065482139587
1725631337381441000,2.54344091796875,1.8696813583374023,-2.342216730117798,-1.1090493202209473
1725631337391475200,2.55347509765625,1.6699274778366089,-2.346503496170044,-0.7603654265403748
1725631337401510100,2.56351025390625,1.2758370637893677,-2.0723109245300293,-0.5312358736991882
1725631337411544300,2.57354443359375,0.9928550720214844,-2.167084217071533,-0.5632476210594177
1725631337421578200,2.583578125,1.0511325597763062,-2.2862699031829834,-0.79923415184021
1725631337431612200,2.593612060546875,1.427269458770752,-2.6618154048919678,-1.287161946296692
1725631337441647400,2.6036474609375,1.9748255014419556,-2.9480714797973633,-1.9805909395217896
1725631337451681000,2.613680908203125,2.4671571254730225,-3.13600754737854,-2.6775174140930176
1725631337461715000,2.62371484375,2.706625461578369,-3.161771774291992,-3.239807367324829
1725631337471750000,2.63375,2.7662620544433594,-3.177532911300659,-3.581639051437378
1725631337481783800,2.64378369140625,2.6186397075653076,-3.2443721294403076,-3.703922748565674
1725631337491818000,2.65381787109375,2.342372179031372,-3.271121025085449,-3.5749051570892334
1725631337501852000,2.663851806640625,1.9326602220535278,-3.39621639251709,-3.180518388748169
1725631337511886800,2.673886962890625,1.4329878091812134,-3.7223870754241943,-2.6427035331726074
1725631337521921000,2.683921142578125,1.0146931409835815,-3.9960391521453857,-2.246110677719116
1725631337531954700,2.69395458984375,0.7017685174942017,-3.6997742652893066,-2.3959288597106934
1725631337541988900,2.70398876953125,0.4518953859806061,-3.616472005844116,-2.427173614501953
1725631337552023800,2.71402392578125,0.28734293580055237,-3.490349531173706,-2.1894643306732178
1725631337562058000,2.72405810546875,0.09025243669748306,-2.627100706100464,-2.0425865650177
1725631337572092000,2.734091796875,-0.2952100336551666,-0.34595349431037903,-2.187069892883301
1725631337582126800,2.744126953125,-0.4876808524131775,1.492740273475647,-2.152865409851074
1725631337592161000,2.7541611328125,-0.32647863030433655,2.496495246887207,-1.8001219034194946
1725631337602194700,2.764194580078125,0.05230493098497391,2.59240460395813,-1.3305693864822388
1725631337612228900,2.774228759765625,0.4209764301776886,2.4998905658721924,-0.8911095261573792
1725631337622263800,2.784263916015625,0.7056037187576294,2.5754425525665283,-0.4241306781768799
1725631337632298000,2.794298095703125,0.9140815734863281,2.8778328895568848,-0.028457656502723694
1725631337642332000,2.804331787109375,1.0847463607788086,3.283078193664551,0.3522287905216217
1725631337652365800,2.81436572265625,1.1906768083572388,3.3725810050964355,0.6107527613639832
1725631337662401000,2.824401123046875,1.3569941520690918,3.182502508163452,0.760337769985199
1725631337672434700,2.8344345703125,1.5598069429397583,2.7632029056549072,0.9391013979911804
1725631337682468900,2.84446875,1.7749348878860474,2.2282919883728027,1.215340256690979
1725631337692503800,2.85450390625,2.1199166774749756,1.8648581504821777,1.4864617586135864
1725631337702537700,2.864537841796875,2.315718173980713,1.6016632318496704,1.8200643062591553
1725631337712572000,2.874572021484375,2.492436647415161,1.407504677772522,2.162792205810547
1725631337722605800,2.884605712890625,2.702479124069214,1.1719547510147095,2.375652551651001
1725631337732641000,2.89464111328125,2.8239169120788574,0.7537911534309387,2.325983762741089
1725631337742675000,2.904675048828125,2.706740617752075,0.1557207852602005,1.8054038286209106
1725631337752708900,2.914708984375,2.253587007522583,-0.5604655146598816,0.8928418755531311
1725631337762744000,2.924744140625,1.586928367614746,-1.1787457466125488,0.07372002303600311
1725631337772777700,2.93477783203125,0.8843805193901062,-1.6513185501098633,-0.14518623054027557
1725631337782812000,2.94481201171875,0.32268327474594116,-2.0030441284179688,0.12447436898946762
1725631337792846000,2.95484619140625,0.047613609582185745,-2.2366628646850586,0.5161023736000061
1725631337802880800,2.964880859375,-0.20768029987812042,-2.488215446472168,0.8306058049201965
1725631337812915000,2.9749150390625,-0.4254474937915802,-2.62965726852417,1.0435103178024292
1725631337822948900,2.984948974609375,-0.562149167060852,-2.6683897972106934,1.1276172399520874
1725631337832984000,2.994984130859375,-0.7240864038467407,-2.6448233127593994,0.9675838351249695
1725631337843017700,3.005017822265625,-0.8825332522392273,-2.7431814670562744,0.6511350274085999
1725631337853052000,3.015052001953125,-0.9317697882652283,-2.12665057182312,0.41501808166503906
1725631337863086000,3.025086181640625,-0.9060512185096741,-1.3886377811431885,0.31153950095176697
1725631337873120800,3.035120849609375,-0.7838919758796692,-1.0108542442321777,0.3366645574569702
1725631337883155000,3.045155029296875,-0.5685986876487732,-0.9386958479881287,0.43314746022224426
1725631337893188900,3.05518896484375,-0.33157601952552795,-1.0080605745315552,0.5004857778549194
1725631337903222800,3.065222900390625,-0.05363870784640312,-1.081512451171875,0.45245036482810974
1725631337913257700,3.0752578125,0.20311638712882996,-0.8637047410011292,0.3848228454589844
1725631337923292000,3.0852919921875,0.1818099319934845,-1.038672685623169,0.3780106008052826
1725631337933325800,3.095325927734375,-0.013347317464649677,-1.196164846420288,0.35113266110420227
1725631337943360800,3.10536083984375,-0.24699315428733826,-0.6341090202331543,0.21554210782051086
1725631337953395000,3.11539501953125,-0.5648528933525085,-0.06508789211511612,0.06564182043075562
1725631337963428900,3.125428955078125,-0.8051890134811401,-0.11124501377344131,-0.097915418446064
1725631337973462800,3.135462890625,-0.9183589816093445,-0.2921261191368103,-0.23601177334785461
1725631337983498000,3.145498046875,-0.9206892251968384,-0.7386865019798279,-0.21067401766777039
1725631337993532000,3.155531982421875,-0.8317103385925293,-0.990477979183197,-0.05497842654585838
1725631338003565800,3.16556591796875,-0.7433964610099792,-1.1844607591629028,0.16228416562080383
1725631338013600000,3.17560009765625,-0.6974630951881409,-1.15485417842865,0.39554300904273987
1725631338023635000,3.185635009765625,-0.6867029666900635,-1.1230409145355225,0.5184404850006104
1725631338033668900,3.1956689453125,-0.6314764618873596,-0.9853435158729553,0.5688639879226685
1725631338043702800,3.205702880859375,-0.4764590561389923,-0.7567760348320007,0.6078331470489502
1725631338053738000,3.215738037109375,-0.3110261559486389,-0.44614121317863464,0.659780740737915
1725631338063772000,3.22577197265625,-0.15895235538482666,0.030235540121793747,0.7040780782699585
1725631338073805800,3.235805908203125,-0.035699933767318726,0.5305260419845581,0.7081359624862671
1725631338083840000,3.245840087890625,-0.0008969700429588556,1.0427660942077637,0.6831499338150024
1725631338093875000,3.255875,-0.03726962208747864,1.373195767402649,0.631112277507782
1725631338103908900,3.265908935546875,-0.11405980587005615,1.6015126705169678,0.5408506393432617
1725631338113942800,3.27594287109375,-0.15018053352832794,1.8505140542984009,0.42773982882499695
1725631338123977000,3.28597705078125,-0.17534273862838745,1.9111686944961548,0.29158076643943787
1725631338134012000,3.296011962890625,-0.23713074624538422,1.861313819885254,0.1869712918996811
1725631338144045800,3.3060458984375,-0.280161589384079,2.056386947631836,0.06157024949789047
1725631338154080000,3.316080078125,-0.2530285120010376,2.674231767654419,-0.13729411363601685
1725631338164115000,3.326114990234375,-0.25231677293777466,3.198402166366577,-0.3294195234775543
1725631338174148900,3.33614892578125,-0.2834397852420807,3.6117565631866455,-0.4359704554080963
1725631338184182800,3.346182861328125,-0.25323155522346497,4.081335067749023,-0.4539710283279419
1725631338194217000,3.356217041015625,-0.16680000722408295,4.250991344451904,-0.33734986186027527
1725631338204251600,3.366251708984375,-0.022173795849084854,3.967586040496826,-0.06045679748058319
1725631338214285800,3.376285888671875,0.2125401794910431,3.51529860496521,0.18423870205879211
1725631338224320000,3.386320068359375,0.5469130873680115,2.8861865997314453,0.30315229296684265
1725631338234355000,3.39635498046875,0.8397305607795715,1.9514522552490234,0.3041781485080719
1725631338244388900,3.406388916015625,0.9670680165290833,0.9564610719680786,0.1443416327238083
1725631338254422800,3.4164228515625,0.8926185369491577,-0.009964140132069588,-0.11212129890918732
1725631338264457000,3.42645703125,0.8094543814659119,-0.540442943572998,-0.3674127459526062
1725631338274492000,3.436491943359375,0.8049829006195068,-0.5434269905090332,-0.5204834938049316
1725631338284525800,3.44652587890625,0.7852941751480103,-0.4058547914028168,-0.620576024055481
1725631338294560000,3.45656005859375,0.6445211172103882,-0.32512664794921875,-0.6614350080490112
1725631338304594000,3.466593994140625,0.3933863937854767,0.0239429734647274,-0.5569536089897156
1725631338314628900,3.47662890625,0.059839311987161636,0.39730724692344666,-0.3757809102535248
1725631338324663000,3.4866630859375,-0.11796783655881882,1.0947080850601196,-0.15012796223163605
1725631338334696700,3.49669677734375,-0.29142671823501587,1.7611722946166992,-0.04296820983290672
1725631338344732000,3.50673193359375,-0.2973201274871826,2.438326835632324,0.06093247979879379
1725631338354765800,3.516765869140625,-0.1619569957256317,3.074282646179199,0.12413249164819717
1725631338364800000,3.526800048828125,-0.15527579188346863,3.3488550186157227,0.1467124968767166
1725631338374834000,3.536833984375,-0.13580648601055145,3.3742568492889404,0.244636669754982
1725631338384868900,3.546868896484375,-0.26096591353416443,1.8360402584075928,0.38734152913093567
1725631338394903000,3.556903076171875,-0.11656293272972107,-2.5816142559051514,0.9845486879348755
1725631338404936700,3.566936767578125,0.3298672139644623,-3.35957932472229,1.2011452913284302
1725631338414972000,3.576971923828125,0.5300666093826294,-1.8794575929641724,0.986724317073822
1725631338425005800,3.587005859375,0.31846529245376587,-1.1187973022460938,0.6468892097473145
1725631338435039700,3.597039794921875,0.026195334270596504,-0.5141676664352417,0.17081263661384583
1725631338445074000,3.607073974609375,-0.2104475200176239,0.1392081081867218,-0.37575939297676086
1725631338455108900,3.61710888671875,-0.3585408627986908,0.5871766209602356,-0.8136539459228516
1725631338465143000,3.62714306640625,-0.4140559434890747,0.7717720866203308,-0.9820371866226196
1725631338475177000,3.637177001953125,-0.4112228751182556,0.5363379716873169,-0.8881716728210449
1725631338485211000,3.6472109375,-0.3356800079345703,0.1958564668893814,-0.6624897122383118
1725631338495245800,3.657245849609375,-0.2252994328737259,-0.011552643962204456,-0.4491148293018341
1725631338505280000,3.667280029296875,-0.116319939494133,-0.21598832309246063,-0.3097649812698364
1725631338515314000,3.67731396484375,-0.052335623651742935,-0.3411148190498352,-0.24904197454452515
1725631338525348900,3.687348876953125,-0.06924718618392944,-0.21389475464820862,-0.25884246826171875
1725631338535383000,3.697383056640625,-0.12416396290063858,0.07145363092422485,-0.31605860590934753
1725631338545417000,3.7074169921875,-0.16867488622665405,0.27390775084495544,-0.38904449343681335
1725631338555451000,3.717450927734375,-0.18111902475357056,0.31722167134284973,-0.4364919066429138
1725631338565486000,3.727486083984375,-0.18484872579574585,0.26526373624801636,-0.43495288491249084
1725631338575520000,3.73752001953125,-0.14176437258720398,0.1283562034368515,-0.39619749784469604
1725631338585554000,3.747553955078125,-0.07944896072149277,0.07195670157670975,-0.3158801794052124
1725631338595588000,3.757588134765625,-0.04445475712418556,0.12051118910312653,-0.2294347584247589
1725631338605623000,3.767623046875,0.010722504928708076,0.17184576392173767,-0.16026581823825836
1725631338615657000,3.777656982421875,-0.006279382389038801,0.30910244584083557,-0.06331583857536316
1725631338625691000,3.78769091796875,-0.05822433903813362,0.4703139662742615,-0.015323548577725887
1725631338635726000,3.79772607421875,-0.12590086460113525,0.6674938797950745,-0.059261444956064224
1725631338645760000,3.807760009765625,-0.2770703136920929,1.0090110301971436,-0.10285773873329163
1725631338655794000,3.8177939453125,-0.6178014874458313,1.3553284406661987,-0.12951384484767914
1725631338665828000,3.827828125,-1.0737982988357544,1.5848337411880493,-0.09978988766670227
1725631338675863000,3.837863037109375,-1.4002407789230347,1.3687783479690552,-0.11209902167320251
1725631338685897000,3.84789697265625,-1.567702054977417,0.9305306077003479,-0.15127266943454742
1725631338695931000,3.857930908203125,-1.5714247226715088,0.5863468647003174,-0.14929020404815674
1725631338705966000,3.867966064453125,-1.4979724884033203,0.4365350008010864,-0.1041480153799057
1725631338715999700,3.877999755859375,-1.4261753559112549,0.3532624840736389,-0.029325436800718307
1725631338726034000,3.888033935546875,-1.371375322341919,0.28434082865715027,0.030792318284511566
1725631338736068000,3.898068115234375,-1.2799527645111084,0.3725287616252899,0.09223970025777817
1725631338746103000,3.90810302734375,-1.1637051105499268,0.6405600905418396,0.16418404877185822
1725631338756137000,3.918136962890625,-1.0364547967910767,0.940982460975647,0.22526630759239197
1725631338766171000,3.9281708984375,-0.912700355052948,1.107463002204895,0.25678518414497375
1725631338776206000,3.9382060546875,-0.8347877264022827,1.009055256843567,0.23053306341171265
1725631338786239700,3.94823974609375,-0.7891970276832581,0.7030792832374573,0.16641241312026978
1725631338796274000,3.95827392578125,-0.6954551339149475,0.35484516620635986,0.09766503423452377
1725631338806308000,3.96830810546875,-0.4906577169895172,0.15812203288078308,0.07892831414937973
1725631338816343000,3.978343017578125,-0.21317896246910095,0.047130268067121506,0.0992136150598526
1725631338826377000,3.988376953125,0.07667124271392822,-0.12565027177333832,0.07049033045768738
1725631338836411000,3.998410888671875,0.3260959982872009,-0.20856192708015442,-0.00885455310344696
1725631338846444800,4.00844482421875,0.464067667722702,-0.18577145040035248,-0.09018666297197342
1725631338856480000,4.01847998046875,0.5532612204551697,-0.235343798995018,-0.23056480288505554
1725631338866514000,4.028513916015625,0.5887070298194885,-0.3711778223514557,-0.3998297154903412
1725631338876548000,4.038548095703125,0.6107039451599121,-0.5675966143608093,-0.5468484163284302
1725631338886582800,4.048582763671875,0.6716800332069397,-0.7631332874298096,-0.6495729684829712
1725631338896617000,4.058616943359375,0.7302466630935669,-0.9899020195007324,-0.7220282554626465
1725631338906651100,4.068651123046875,0.771395742893219,-1.3068516254425049,-0.7907975316047668
1725631338916684800,4.078684814453125,0.8122534155845642,-1.5324161052703857,-0.8189268708229065
1725631338926720000,4.088719970703125,0.8314703702926636,-1.5375356674194336,-0.8415079712867737
1725631338936754000,4.09875390625,0.8638914227485657,-1.4345299005508423,-0.8635029792785645
1725631338946788000,4.1087880859375,0.9166167974472046,-1.2594431638717651,-0.8790743947029114
1725631338956822000,4.118822021484375,0.9927411079406738,-0.8928952813148499,-0.8941100835800171
1725631338966857000,4.12885693359375,1.105224847793579,-0.41339796781539917,-0.8691020607948303
1725631338976891100,4.13889111328125,1.2642797231674194,-0.016630660742521286,-0.7449436783790588
1725631338986924800,4.1489248046875,1.387971043586731,0.3545014560222626,-0.5257635116577148
1725631338996960000,4.1589599609375,1.4698888063430786,0.6737470626831055,-0.3030222952365875
1725631339006994000,4.168993896484375,1.5089062452316284,0.7771532535552979,-0.12084333598613739
1725631339017027800,4.17902783203125,1.4839569330215454,0.6451686024665833,-0.03677693009376526
1725631339027062000,4.18906201171875,1.3462861776351929,0.484230101108551,-0.04710819944739342
1725631339037097000,4.199096923828125,1.129001498222351,0.35973265767097473,-0.11381212621927261
1725631339047131100,4.209131103515625,0.8640865087509155,0.18052750825881958,-0.20815809071063995
1725631339057164800,4.219164794921875,0.6224014759063721,-0.020429298281669617,-0.2854864299297333
1725631339067199000,4.229198974609375,0.44125252962112427,-0.17049993574619293,-0.3512362539768219
1725631339077234000,4.23923388671875,0.36240243911743164,-0.21926508843898773,-0.40558338165283203
1725631339087267800,4.249267822265625,0.37792131304740906,-0.17296750843524933,-0.43999841809272766
1725631339097302000,4.259302001953125,0.4433671534061432,-0.05174627900123596,-0.44381606578826904
1725631339107337000,4.2693369140625,0.5586296916007996,0.05214056000113487,-0.4170895218849182
1725631339117371000,4.279370849609375,0.7319066524505615,0.01120644249022007,-0.3718211054801941
1725631339127405000,4.289405029296875,0.8763067722320557,-0.21971964836120605,-0.264924556016922
1725631339137439000,4.29943896484375,0.9448671936988831,-0.42774370312690735,-0.10705795884132385
1725631339147474200,4.30947412109375,0.9826520085334778,-0.4894567131996155,0.0012670326977968216
1725631339157507800,4.3195078125,0.9884364008903503,-0.49403655529022217,0.07270365953445435
1725631339167542000,4.3295419921875,0.9545018672943115,-0.4172608554363251,0.1032072976231575
1725631339177576200,4.339576171875,0.9162501096725464,0.012329122051596642,0.12334159761667252
1725631339187611000,4.34961083984375,0.8522517681121826,0.5489098429679871,0.20918181538581848
1725631339197645000,4.35964501953125,0.7652420401573181,0.7523489594459534,0.3713456988334656
1725631339207679000,4.369678955078125,0.7229413390159607,0.7486958503723145,0.4936562180519104
1725631339217714200,4.379714111328125,0.6885796785354614,0.7527151107788086,0.5329793691635132
1725631339227747800,4.389747802734375,0.6307971477508545,0.896482527256012,0.4941940903663635
1725631339237782000,4.399781982421875,0.572472333908081,1.1020606756210327,0.39658257365226746
1725631339247816000,4.40981591796875,0.5036261081695557,1.2286049127578735,0.26802095770835876
1725631339257851000,4.419850830078125,0.48030826449394226,1.2037787437438965,0.1177438348531723
1725631339267885000,4.429885009765625,0.5024179220199585,1.0922861099243164,-0.01845008134841919
1725631339277919000,4.4399189453125,0.5051844120025635,0.9748710989952087,-0.16125783324241638
1725631339287954000,4.449953857421875,0.4494723379611969,0.788663387298584,-0.2696782350540161
1725631339297987800,4.45998779296875,0.37151309847831726,0.6195052266120911,-0.3154776990413666
1725631339308022000,4.47002197265625,0.3876916170120239,0.5271207690238953,-0.39100128412246704
1725631339318056000,4.480055908203125,0.3664393126964569,0.43148073554039,-0.4863022267818451
1725631339328091000,4.4900908203125,0.32920053601264954,0.2957388460636139,-0.533047616481781
1725631339338125000,4.500125,0.33024075627326965,0.16842643916606903,-0.5000731348991394
1725631339348159000,4.510158935546875,0.39572376012802124,0.04787007346749306,-0.4181584119796753
1725631339358193000,4.52019287109375,0.430853009223938,-0.08856979757547379,-0.2549889087677002
1725631339368227800,4.530227783203125,0.3844357430934906,-0.2555065453052521,-0.053893689066171646
1725631339378262000,4.540261962890625,0.24319209158420563,-0.25488603115081787,0.09862607717514038
1725631339388296000,4.5502958984375,0.08502774685621262,-0.22330625355243683,0.18420915305614471
1725631339398331000,4.560330810546875,-0.08596769720315933,-0.13684406876564026,0.2062111347913742
1725631339408365000,4.570364990234375,-0.21577903628349304,-0.06988662481307983,0.1358155608177185
1725631339418399000,4.58039892578125,-0.34943801164627075,-0.08730609714984894,0.1305217295885086
1725631339428433000,4.590432861328125,-0.4975731372833252,-0.030658788979053497,0.23749582469463348
1725631339438468000,4.600468017578125,-0.6002925634384155,0.045895904302597046,0.37244275212287903
1725631339448502000,4.610501953125,-0.6557973027229309,0.07546210289001465,0.46614760160446167
1725631339458536000,4.620535888671875,-0.69195157289505,0.10541174560785294,0.5248665809631348
1725631339468571100,4.630571044921875,-0.7018945217132568,0.0844971165060997,0.5455231666564941
1725631339478605300,4.640605224609375,-0.6987384557723999,-0.0034295418299734592,0.5077859163284302
1725631339488639200,4.65063916015625,-0.7140292525291443,0.016450896859169006,0.37884074449539185
1725631339498673200,4.660673095703125,-0.7547889351844788,0.15143561363220215,0.18320360779762268
1725631339508708400,4.670708251953125,-0.8184810280799866,0.2703093886375427,0.01035395823419094
1725631339518742300,4.6807421875,-0.8886028528213501,0.33057165145874023,-0.09205444157123566
1725631339528776200,4.690776123046875,-0.9272468686103821,0.32251909375190735,-0.1523124873638153
1725631339538811100,4.70081103515625,-0.918440580368042,0.26266586780548096,-0.21247729659080505
1725631339548845300,4.71084521484375,-0.8673953413963318,0.093222975730896,-0.2817966341972351
1725631339558879200,4.720879150390625,-0.8508589863777161,-0.0026819794438779354,-0.37398168444633484
1725631339568913200,4.7309130859375,-0.837600827217102,-0.004276282154023647,-0.45304951071739197
1725631339578948400,4.7409482421875,-0.7584577798843384,-0.20985420048236847,-0.386438250541687
1725631339588982000,4.75098193359375,-0.6255902647972107,-0.468768835067749,-0.22630904614925385
1725631339599016200,4.76101611328125,-0.4907328486442566,-0.43136125802993774,-0.06563840806484222
1725631339609050400,4.77105029296875,-0.3748813271522522,-0.3120793104171753,0.05370952561497688
1725631339619085300,4.781085205078125,-0.2675577998161316,-0.22873276472091675,0.1135784462094307
1725631339629119200,4.791119140625,-0.20459295809268951,-0.1624211221933365,0.12684288620948792
1725631339639153200,4.801153076171875,-0.21601712703704834,-0.1485242247581482,0.13009433448314667
1725631339649188400,4.811188232421875,-0.26303794980049133,-0.11957436054944992,0.17580673098564148
1725631339659222000,4.821221923828125,-0.3300582468509674,-0.043608229607343674,0.21875473856925964
1725631339669256200,4.831256103515625,-0.43605509400367737,0.15465575456619263,0.20382648706436157
1725631339679290400,4.841290283203125,-0.5643206834793091,0.4150974452495575,0.16196931898593903
1725631339689325000,4.851324951171875,-0.714156985282898,0.5928131937980652,0.16047070920467377
1725631339699359200,4.861359130859375,-0.9027742743492126,0.7133159041404724,0.24145610630512238
1725631339709393200,4.87139306640625,-1.1434744596481323,0.8957943916320801,0.39847496151924133
1725631339719428400,4.881428466796875,-1.3632984161376953,0.9100779891014099,0.47342804074287415
1725631339729462300,4.891462158203125,-1.4767320156097412,0.8544378876686096,0.40916839241981506
1725631339739496200,4.90149609375,-1.5847543478012085,0.9423288702964783,0.4074290692806244
1725631339749530400,4.9115302734375,-1.596433162689209,0.7662147283554077,0.4431423842906952
1725631339759565000,4.92156494140625,-1.484728455543518,0.5394002199172974,0.4713175594806671
1725631339769599200,4.93159912109375,-1.2874752283096313,0.45705968141555786,0.517776608467102
1725631339779633400,4.94163330078125,-1.0917569398880005,0.3829289972782135,0.5766702890396118
1725631339789667000,4.9516669921875,-0.9800076484680176,0.09995441883802414,0.6313783526420593
1725631339799702300,4.961702392578125,-0.8678507208824158,-0.12723132967948914,0.6678854823112488
1725631339809736200,4.971736083984375,-0.7397801280021667,-0.2112833857536316,0.7435688376426697
1725631339819770000,4.98177001953125,-0.5990413427352905,-0.28847724199295044,0.8889718651771545
1725631339829805000,4.99180517578125,-0.46062055230140686,-0.45499077439308167,1.0416427850723267
1725631339839839200,5.001839111328125,-0.2979418933391571,-0.6033876538276672,1.1204653978347778
1725631339849873400,5.011873291015625,-0.13536866009235382,-0.6331316828727722,1.1285070180892944
1725631339859907000,5.021906982421875,-0.05242690443992615,-0.7680351734161377,1.0462052822113037
1725631339869942300,5.0319423828125,-0.03984823450446129,-0.949054479598999,0.8609616756439209
1725631339879976200,5.04197607421875,-0.07107513397932053,-0.9745734333992004,0.6582250595092773
1725631339890010000,5.052010009765625,-0.0582122802734375,-0.8309922218322754,0.5151737332344055
1725631339900045000,5.062045166015625,-0.008560302667319775,-0.4368765950202942,0.45508089661598206
1725631339910079200,5.072079345703125,0.027786847203969955,0.11993397027254105,0.41117197275161743
1725631339920113400,5.082113525390625,0.06466443836688995,0.5933036208152771,0.37230873107910156
1725631339930147000,5.09214697265625,0.15576395392417908,0.8377621173858643,0.3116249144077301
1725631339940182300,5.102182373046875,0.28472647070884705,0.9009788632392883,0.21198725700378418
1725631339950216200,5.11221630859375,0.40551117062568665,0.7281314134597778,0.0850602313876152
1725631339960250000,5.12225,0.5027341842651367,0.3113485872745514,-0.05515839159488678
1725631339970284300,5.1322841796875,0.5620855689048767,-0.12344519793987274,-0.20475612580776215
1725631339980319200,5.1423193359375,0.5835453271865845,-0.3936561942100525,-0.3198201358318329
1725631339990353200,5.152353271484375,0.562698483467102,-0.6342916488647461,-0.41765862703323364
1725631340000387000,5.162386962890625,0.5113620758056641,-0.9513028860092163,-0.5492954850196838
1725631340010422300,5.17242236328125,0.4637076258659363,-1.0800169706344604,-0.6994670629501343
1725631340020456200,5.182456298828125,0.4616948068141937,-1.026426911354065,-0.8102723956108093
1725631340030490000,5.192489990234375,0.5043675303459167,-0.9504509568214417,-0.8195687532424927
1725631340040524300,5.202524169921875,0.5365233421325684,-0.9312191605567932,-0.7614114284515381
1725631340050559200,5.212559326171875,0.5553960800170898,-0.9073753356933594,-0.6462417840957642
1725631340060593200,5.22259326171875,0.5512029528617859,-0.8270094394683838,-0.4675268828868866
1725631340070627300,5.23262744140625,0.516233503818512,-0.484839528799057,-0.2621691823005676
1725631340080662300,5.242662353515625,0.5147714018821716,0.02474941499531269,-0.10119813680648804
1725631340090696200,5.2526962890625,0.4510129392147064,0.32261040806770325,-0.024288175627589226
1725631340100730000,5.262730224609375,0.4017367362976074,0.31503424048423767,-0.050697676837444305
1725631340110764300,5.272764404296875,0.39022621512413025,0.30117714405059814,-0.10545614361763
1725631340120799200,5.28279931640625,0.3753327429294586,0.3344261944293976,-0.14641183614730835
1725631340130833200,5.292833251953125,0.36419451236724854,0.3379928469657898,-0.1399725079536438
1725631340140867300,5.302867431640625,0.35871532559394836,0.2457129806280136,-0.06338559091091156
1725631340150901200,5.3129013671875,0.3831009864807129,0.03410104289650917,0.057852283120155334
1725631340160936200,5.322936279296875,0.4256633520126343,-0.1374986618757248,0.15187332034111023
1725631340170970000,5.33297021484375,0.4843422472476959,-0.1795961856842041,0.1758994162082672
1725631340181004300,5.34300439453125,0.5320426225662231,-0.17316357791423798,0.18973267078399658
1725631340191039200,5.353039306640625,0.5562631487846375,-0.13576121628284454,0.2314770668745041
1725631340201073200,5.3630732421875,0.549490749835968,-0.05757160484790802,0.2958486080169678
1725631340211107300,5.373107421875,0.5327231884002686,-0.037591565400362015,0.36115044355392456
1725631340221141000,5.38314111328125,0.5091688632965088,0.003346811980009079,0.41288793087005615
1725631340231176200,5.39317626953125,0.497653067111969,0.034361209720373154,0.4314304292201996
1725631340241210000,5.403210205078125,0.49688899517059326,0.09255580604076385,0.3981233239173889
1725631340251244300,5.413244384765625,0.48055559396743774,0.18273206055164337,0.29942551255226135
1725631340261279200,5.423279296875,0.4383162558078766,0.17922520637512207,0.16228097677230835
1725631340271313200,5.433313232421875,0.44521981477737427,0.1158180683851242,0.03308616951107979
1725631340281347300,5.443347412109375,0.5248235464096069,0.09882097691297531,-0.06391548365354538
1725631340291381200,5.45338134765625,0.600250780582428,0.20219221711158752,-0.12328357249498367
1725631340301416200,5.463416259765625,0.6717182993888855,0.2413095235824585,-0.1447100192308426
1725631340311450400,5.473450439453125,0.7628564238548279,0.2723611295223236,-0.13440807163715363
1725631340321484300,5.483484375,0.8439573645591736,0.40420064330101013,-0.08743098378181458
1725631340331518200,5.493518310546875,0.9394438862800598,0.5836747884750366,-0.047312017530202866
1725631340341553200,5.50355322265625,1.116199254989624,0.7781161665916443,-0.038102805614471436
1725631340351587300,5.51358740234375,1.2468597888946533,0.878539502620697,-0.04809420928359032
1725631340361621200,5.523621337890625,1.244053602218628,0.9454016089439392,-0.0094181839376688
1725631340371656200,5.53365625,1.1116039752960205,0.9949771761894226,0.03371140733361244
1725631340381690400,5.5436904296875,1.0029441118240356,0.8847212195396423,0.04373661056160927
1725631340391724000,5.55372412109375,0.8914011716842651,0.6521368026733398,0.02962176688015461
1725631340401758200,5.56375830078125,0.7824349999427795,0.4631359875202179,-0.06343494355678558
1725631340411793200,5.573793212890625,0.6313765048980713,0.24432694911956787,-0.1650792956352234
1725631340421827300,5.583827392578125,0.3970622718334198,-0.02420942485332489,-0.24347156286239624
1725631340431861200,5.593861328125,0.12821435928344727,-0.26512157917022705,-0.27218368649482727
1725631340441896200,5.603896240234375,-0.06520890444517136,-0.5854902863502502,-0.20872217416763306
1725631340451930400,5.613930419921875,-0.13697099685668945,-0.9841253161430359,-0.0005854275077581406
1725631340461964000,5.623964111328125,-0.2726539969444275,-1.2568304538726807,0.18444859981536865
1725631340471998200,5.633998291015625,-0.4354571998119354,-1.3253345489501953,0.34628453850746155
1725631340482033000,5.644032958984375,-0.4872799217700958,-1.045863151550293,0.4800684452056885
1725631340492067000,5.654067138671875,-0.4357379078865051,-0.7725940942764282,0.617572009563446
1725631340502101200,5.664101318359375,-0.40230536460876465,-0.47848495841026306,0.7434945106506348
1725631340512135000,5.674135009765625,-0.4506101906299591,-0.18281133472919464,0.7339320182800293
1725631340522170000,5.684170166015625,-0.6413553953170776,0.3548225462436676,0.43869397044181824
1725631340532204000,5.6942041015625,-0.9209526181221008,0.7832737565040588,0.03189530596137047
1725631340542238200,5.70423828125,-1.0873016119003296,0.9227514863014221,-0.24463722109794617
1725631340552273200,5.714273193359375,-1.1437804698944092,0.8252038359642029,-0.3422347903251648
1725631340562307000,5.72430712890625,-1.1542779207229614,0.6216927766799927,-0.3452199399471283
1725631340572341200,5.73434130859375,-1.084944486618042,0.3910404443740845,-0.30000483989715576
1725631340582375200,5.744375244140625,-0.9231836199760437,0.15914702415466309,-0.22756072878837585
1725631340592410000,5.75441015625,-0.7141616940498352,0.09614594280719757,-0.17703308165073395
1725631340602444300,5.7644443359375,-0.5360846519470215,0.09414511173963547,-0.16086289286613464
1725631340612478000,5.77447802734375,-0.3486423194408417,0.016268420964479446,-0.13496312499046326
1725631340622513200,5.78451318359375,-0.22474461793899536,-0.01253313384950161,-0.1307116597890854
1725631340632547000,5.794547119140625,-0.2405809760093689,0.10281488299369812,-0.17216920852661133
1725631340642581200,5.804581298828125,-0.3327111601829529,0.14092259109020233,-0.23774050176143646
1725631340652615200,5.814615234375,-0.4036920666694641,0.0863661915063858,-0.3034452497959137
1725631340662650000,5.824650146484375,-0.47412630915641785,-0.006455087102949619,-0.3673454225063324
1725631340672684300,5.834684326171875,-0.5301491618156433,-0.10828704386949539,-0.4386919140815735
1725631340682718000,5.844718017578125,-0.5143124461174011,-0.25134432315826416,-0.5075260996818542
1725631340692752100,5.854752197265625,-0.4566856622695923,-0.3543647527694702,-0.5402868986129761
1725631340702787000,5.864787109375,-0.407465398311615,-0.3637057840824127,-0.5458350777626038
1725631340712821000,5.874821044921875,-0.39765676856040955,-0.2810727655887604,-0.5182462930679321
1725631340722855200,5.884855224609375,-0.3900965750217438,-0.19353251159191132,-0.4782618582248688
1725631340732890000,5.89489013671875,-0.37464356422424316,-0.05149251967668533,-0.40910014510154724
1725631340742924300,5.90492431640625,-0.3484894633293152,0.16614791750907898,-0.32142356038093567
1725631340752958000,5.9149580078125,-0.3102070689201355,0.29145410656929016,-0.1938205361366272
1725631340762992000,5.9249921875,-0.24619588255882263,0.33851003646850586,-0.03769804537296295
1725631340773027000,5.935027099609375,-0.19653049111366272,0.5242994427680969,0.13425123691558838
1725631340783061000,5.94506103515625,-0.2734455168247223,0.7234753966331482,0.34289687871932983
1725631340793095200,5.95509521484375,-0.4386715292930603,0.8048520088195801,0.5506716370582581
1725631340803130000,5.965130126953125,-0.6448955535888672,0.8774337768554688,0.676725447177887
1725631340813164300,5.975164306640625,-0.9128736853599548,0.9760056734085083,0.6539322137832642
1725631340823198200,5.9851982421875,-1.0816410779953003,1.0004935264587402,0.6041683554649353
1725631340833232100,5.995232177734375,-1.0957369804382324,0.8810837268829346,0.6231201887130737
1725631340843267300,6.005267333984375,-0.9849500060081482,0.7151232361793518,0.749817967414856
1725631340853301000,6.015301025390625,-0.8387209177017212,0.5001296401023865,0.9863006472587585
1725631340863335200,6.025335205078125,-0.7267299294471741,0.16736046969890594,1.2216111421585083
1725631340873369300,6.035369384765625,-0.6646995544433594,-0.17515473067760468,1.366047739982605
1725631340883404000,6.045404052734375,-0.6696953773498535,-0.5030258297920227,1.4062886238098145
1725631340893438200,6.055438232421875,-0.7498161792755127,-0.9347629547119141,1.320890188217163
1725631340903472000,6.06547216796875,-0.8419464230537415,-1.25001859664917,1.097254991531372
1725631340913507300,6.07550732421875,-0.9128196239471436,-1.3181979656219482,0.8380541801452637
1725631340923541000,6.085541015625,-0.9369829893112183,-1.2836865186691284,0.6036677360534668
1725631340933575200,6.0955751953125,-0.8398906588554382,-1.1080138683319092,0.43899476528167725
1725631340943609300,6.105609375,-0.696223258972168,-0.8124655485153198,0.4073164463043213
1725631340953644000,6.11564404296875,-0.5749138593673706,-0.4940987527370453,0.5192025303840637
1725631340963678200,6.12567822265625,-0.478801965713501,-0.31969794631004333,0.5996379852294922
1725631340973712100,6.135712158203125,-0.4468938410282135,-0.46455925703048706,0.5011327266693115
1725631340983747300,6.145747314453125,-0.39536675810813904,-0.5370933413505554,0.37653377652168274
1725631340993781000,6.155781005859375,-0.29045844078063965,-0.38522955775260925,0.34939244389533997
1725631341003815200,6.165815185546875,-0.1226808950304985,-0.35939475893974304,0.24706286191940308
1725631341013849000,6.17584912109375,0.1666308343410492,-0.4444417357444763,0.056808486580848694
1725631341023884000,6.185884033203125,0.3300333619117737,-0.33015403151512146,-0.04492027312517166
1725631341033918200,6.195918212890625,0.3373427093029022,-0.14451190829277039,-0.0947883203625679
1725631341043952000,6.2059521484375,0.30917686223983765,-0.03596118837594986,-0.16999678313732147
1725631341053986000,6.215986083984375,0.28003817796707153,-0.012321606278419495,-0.27149656414985657
1725631341064021000,6.22602099609375,0.23614610731601715,-0.05237900838255882,-0.3694734573364258
1725631341074055200,6.23605517578125,0.24586917459964752,-0.0522041842341423,-0.3884643018245697
1725631341084089000,6.246089111328125,0.2631182074546814,-0.13398054242134094,-0.4030941128730774
1725631341094124000,6.2561240234375,0.34376999735832214,-0.30798980593681335,-0.43181294202804565
1725631341104158200,6.266158203125,0.45071694254875183,-0.4258708953857422,-0.44424402713775635
1725631341114192100,6.276192138671875,0.5669834613800049,-0.4929185211658478,-0.43566128611564636
1725631341124226000,6.28622607421875,0.6543822288513184,-0.5264144539833069,-0.46078476309776306
1725631341134261200,6.29626123046875,0.72426438331604,-0.5595223903656006,-0.5215149521827698
1725631341144295200,6.306295166015625,0.7766605019569397,-0.48126885294914246,-0.5974453687667847
1725631341154329000,6.3163291015625,0.8338537216186523,-0.4328555464744568,-0.6539831757545471
1725631341164364000,6.326364013671875,0.8866642117500305,-0.4712737798690796,-0.6673508882522583
1725631341174398200,6.336398193359375,0.9466878771781921,-0.4682345688343048,-0.6294024586677551
1725631341184432000,6.34643212890625,0.983923077583313,-0.5244104862213135,-0.5272291898727417
1725631341194466000,6.356466064453125,0.9790221452713013,-0.5909847021102905,-0.40723204612731934
1725631341204501200,6.366501220703125,0.969696044921875,-0.3954921364784241,-0.33586224913597107
1725631341214535200,6.37653515625,0.9816943407058716,-0.08078616112470627,-0.29753321409225464
1725631341224569000,6.386569091796875,0.9957523941993713,0.15426123142242432,-0.25166425108909607
1725631341234603300,6.396603271484375,0.9773098826408386,0.3488730192184448,-0.18588756024837494
1725631341244638200,6.40663818359375,0.9082828760147095,0.5295535922050476,-0.10779809206724167
1725631341254672100,6.416672119140625,0.7557274103164673,0.6116622686386108,-0.08090122789144516
1725631341264706000,6.4267060546875,0.6311924457550049,0.6932455897331238,-0.11851784586906433
1725631341274741200,6.4367412109375,0.5446175336837769,0.7443063259124756,-0.1927747130393982
1725631341284775000,6.44677490234375,0.5024570226669312,0.6188575625419617,-0.22003589570522308
1725631341294809000,6.45680908203125,0.5135377049446106,0.39346152544021606,-0.17543412744998932
1725631341304843300,6.46684326171875,0.5470424294471741,0.26436373591423035,-0.09571055322885513
1725631341314878200,6.476878173828125,0.5887612700462341,0.15985240042209625,-0.05395529419183731
1725631341324912000,6.486912109375,0.6222137808799744,0.0521073043346405,-0.08420853316783905
1725631341334946000,6.496946044921875,0.6032034158706665,0.06955508887767792,-0.19033212959766388
1725631341344981200,6.506981201171875,0.5185524821281433,0.1528550386428833,-0.31900250911712646
1725631341355015000,6.517014892578125,0.4124433398246765,0.27886730432510376,-0.41692107915878296
1725631341365049000,6.527049072265625,0.30823010206222534,0.4503690302371979,-0.43989747762680054
1725631341375083300,6.537083251953125,0.18906816840171814,0.5479015707969666,-0.3261239230632782
1725631341385118000,6.547117919921875,0.12509717047214508,0.3241491913795471,-0.1636202335357666
1725631341395152100,6.557152099609375,0.09781547635793686,-0.010216549970209599,0.021442560479044914
1725631341405186300,6.567186279296875,0.22626079618930817,-0.18170414865016937,0.055875103920698166
1725631341415220000,6.577219970703125,0.45276063680648804,-0.34043648838996887,-0.03217681497335434
1725631341425255200,6.587255126953125,0.6535027623176575,-0.4126150608062744,-0.11681660264730453
1725631341435289000,6.5972890625,0.8215212821960449,-0.25017794966697693,-0.1461411863565445
1725631341445323300,6.6073232421875,0.9561368823051453,-0.029092973098158836,-0.15683536231517792
1725631341455358000,6.61735791015625,1.0470964908599854,0.12183479964733124,-0.15374799072742462
1725631341465392400,6.627392333984375,1.0953612327575684,0.3143584430217743,-0.16993814706802368
1725631341475426300,6.63742626953125,1.1356335878372192,0.4806009531021118,-0.21346914768218994
1725631341485460200,6.647460205078125,1.279922604560852,0.5977818965911865,-0.3094811737537384
1725631341495495400,6.657495361328125,1.3976961374282837,0.869629442691803,-0.4341978430747986
1725631341505529000,6.667529052734375,1.4493372440338135,1.1128391027450562,-0.4809264838695526
1725631341515563300,6.677563232421875,1.4386043548583984,1.2202777862548828,-0.44015881419181824
1725631341525598200,6.68759814453125,1.3957293033599854,1.2625290155410767,-0.3848465383052826
1725631341535632100,6.697632080078125,1.2864148616790771,1.2270995378494263,-0.3459849953651428
1725631341545666300,6.707666259765625,1.119571566581726,1.028293251991272,-0.3272853493690491
1725631341555700200,6.7177001953125,0.9447373151779175,0.8135434985160828,-0.3542129099369049
1725631341565735400,6.7277353515625,0.7690714597702026,0.600206732749939,-0.42285215854644775
1725631341575769000,6.73776904296875,0.5653019547462463,0.2595568597316742,-0.4398004114627838
1725631341585803300,6.74780322265625,0.3346503973007202,-0.07116647809743881,-0.38349878787994385
1725631341595837400,6.75783740234375,0.10183967649936676,-0.3101208209991455,-0.28489649295806885
1725631341605872000,6.7678720703125,-0.23752960562705994,-0.5694807767868042,-0.16782152652740479
1725631341615906300,6.77790625,-0.4643484055995941,-0.7535926103591919,-0.08924995362758636
1725631341625940200,6.787940185546875,-0.5507592558860779,-0.7998080253601074,0.02643136866390705
1725631341635975400,6.797975341796875,-0.5688273906707764,-0.7460313439369202,0.16151832044124603
1725631341646009000,6.808009033203125,-0.5172898769378662,-0.6172621250152588,0.22770719230175018
1725631341656043300,6.818043212890625,-0.48249924182891846,-0.43258747458457947,0.2502962052822113
1725631341666077200,6.8280771484375,-0.5402235388755798,-0.18436196446418762,0.23131665587425232
1725631341676112100,6.838112060546875,-0.704902708530426,0.02564268745481968,0.1702980399131775
1725631341686146300,6.848146240234375,-0.9436591267585754,0.2625095546245575,0.030861040577292442
1725631341696180200,6.85818017578125,-1.2330807447433472,0.47759512066841125,-0.15623441338539124
1725631341706214100,6.868214111328125,-1.4506464004516602,0.6960355639457703,-0.33188214898109436
1725631341716249300,6.878249267578125,-1.49005925655365,0.9109069108963013,-0.4603309631347656
1725631341726283300,6.888283203125,-1.3504525423049927,1.062319040298462,-0.5327617526054382
1725631341736317200,6.898317138671875,-1.1526823043823242,1.204317331314087,-0.5599679946899414
1725631341746352000,6.90835205078125,-0.978218138217926,1.225321888923645,-0.5156423449516296
1725631341756386300,6.91838623046875,-0.8116298317909241,1.0650007724761963,-0.38472244143486023
1725631341766420500,6.92842041015625,-0.647170901298523,0.8238513469696045,-0.18881234526634216
1725631341776454100,6.9384541015625,-0.5324094295501709,0.662437915802002,-0.023259857669472694
1725631341786489300,6.9484892578125,-0.5144365429878235,0.5949203968048096,0.005576849449425936
1725631341796523300,6.958523193359375,-0.4783676266670227,0.3489916920661926,-0.03611689433455467
1725631341806557200,6.96855712890625,-0.42908769845962524,0.05222286283969879,-0.065797820687294
1725631341816591400,6.97859130859375,-0.44539132714271545,-0.09272582083940506,-0.10383040457963943
1725631341826626300,6.988626220703125,-0.5020578503608704,-0.22198472917079926,-0.13606876134872437
1725631341836660200,6.99866015625,-0.5113412141799927,-0.376270055770874,-0.17169371247291565
1725631341846694100,7.008694091796875,-0.470364511013031,-0.43860214948654175,-0.24469974637031555
1725631341856729300,7.018729248046875,-0.40470752120018005,-0.500963568687439,-0.29833734035491943
1725631341866763300,7.02876318359375,-0.33770930767059326,-0.5961460471153259,-0.30406367778778076
1725631341876797200,7.038797119140625,-0.2694491744041443,-0.6343838572502136,-0.2660040557384491
1725631341886831400,7.048831298828125,-0.20955093204975128,-0.5660444498062134,-0.1733153760433197
1725631341896866300,7.0588662109375,-0.2738710939884186,-0.4011141061782837,-0.011668164283037186
1725631341906900200,7.068900146484375,-0.39894992113113403,-0.22538435459136963,0.13257023692131042
1725631341916934100,7.07893408203125,-0.5766069889068604,-0.011235290206968784,0.2659274935722351
1725631341926969300,7.08896923828125,-0.7434835433959961,0.13557253777980804,0.3187131881713867
1725631341937003000,7.0990029296875,-0.8643476366996765,0.21778836846351624,0.2803572416305542
1725631341947037200,7.109037109375,-0.973917543888092,0.16574381291866302,0.2158200442790985
1725631341957071400,7.1190712890625,-1.1028852462768555,0.06885415315628052,0.25040557980537415
1725631341967106300,7.129106201171875,-1.1523158550262451,-0.019739093258976936,0.340861439704895
1725631341977140200,7.13914013671875,-1.1486324071884155,-0.10257959365844727,0.4781862199306488
1725631341987174400,7.14917431640625,-1.1698205471038818,-0.19660437107086182,0.6219848990440369
1725631341997208300,7.159208251953125,-1.1715950965881348,-0.1899719536304474,0.7651191353797913
1725631342007243300,7.1692431640625,-1.1069655418395996,-0.1496596783399582,0.8743686676025391
1725631342017277200,7.179277099609375,-0.980610191822052,-0.14226187765598297,0.8893435597419739
1725631342027311400,7.189311279296875,-0.8251782655715942,-0.05731556564569473,0.8410825133323669
1725631342037346300,7.19934619140625,-0.6917666792869568,0.034765925258398056,0.7717058062553406
1725631342047380200,7.209380126953125,-0.5886328220367432,0.025309305638074875,0.686643123626709
1725631342057414400,7.219414306640625,-0.5011826157569885,-0.030540095642209053,0.5926798582077026
1725631342067448000,7.229447998046875,-0.4365237057209015,-0.0812743753194809,0.49153274297714233
1725631342077483300,7.239483154296875,-0.3422389030456543,-0.16421815752983093,0.4083857834339142
1725631342087517200,7.24951708984375,-0.22065149247646332,-0.22924722731113434,0.4248558580875397
1725631342097551400,7.25955126953125,-0.14119838178157806,-0.24151019752025604,0.44438180327415466
1725631342107586000,7.2695859375,-0.0872747004032135,-0.238470196723938,0.4192468822002411
1725631342117620200,7.2796201171875,-0.040855757892131805,-0.21355120837688446,0.35540977120399475
1725631342127654400,7.289654296875,0.060541700571775436,-0.15934044122695923,0.277942419052124
1725631342137688000,7.29968798828125,0.197025328874588,-0.16130471229553223,0.17056690156459808
1725631342147723300,7.30972314453125,0.3312089443206787,-0.09328518807888031,0.08610501140356064
1725631342157757200,7.319757080078125,0.4224886894226074,-0.052764780819416046,0.00866361428052187
1725631342167791400,7.329791259765625,0.47031453251838684,-0.1413511037826538,-0.10983400046825409
1725631342177825300,7.3398251953125,0.5594822764396667,-0.12795907258987427,-0.17833641171455383
1725631342187860200,7.349860107421875,0.6388383507728577,-0.07758565247058868,-0.21413329243659973
1725631342197894400,7.359894287109375,0.7117832899093628,-0.11437864601612091,-0.25283026695251465
1725631342207928000,7.369927978515625,0.7850199341773987,-0.264047235250473,-0.3053925633430481
1725631342217963300,7.37996337890625,0.8332440853118896,-0.37114185094833374,-0.33651864528656006
1725631342227997200,7.3899970703125,0.8405115604400635,-0.5118350386619568,-0.37031814455986023
1725631342238031000,7.400031005859375,0.8470243811607361,-0.7423747181892395,-0.4196189045906067
1725631342248065300,7.410065185546875,0.8242881894111633,-0.9006695747375488,-0.48335394263267517
1725631342258100200,7.420100341796875,0.776187539100647,-0.9309601187705994,-0.5639441609382629
1725631342268134400,7.430134521484375,0.7301244139671326,-0.9801555871963501,-0.6697384715080261
1725631342278168300,7.440168212890625,0.7022885680198669,-0.9943001866340637,-0.7668232321739197
1725631342288202200,7.4502021484375,0.6944308876991272,-0.8493618965148926,-0.8235741257667542
1725631342298237400,7.460237548828125,0.7213716506958008,-0.5447255969047546,-0.793410062789917
1725631342308271000,7.47027099609375,0.7649012804031372,-0.35680896043777466,-0.657650887966156
1725631342318305300,7.48030517578125,0.7923252582550049,-0.1499103158712387,-0.4407210350036621
1725631342328340200,7.49034033203125,0.7899856567382812,0.13495337963104248,-0.14936882257461548
1725631342338374100,7.5003740234375,0.7578319311141968,0.2318630814552307,0.13052015006542206
1725631342348408300,7.510408203125,0.7239296436309814,0.260980486869812,0.28264445066452026
1725631342358442200,7.520442138671875,0.6909556984901428,0.33049753308296204,0.286338746547699
1725631342368477400,7.5304775390625,0.6034950613975525,0.2546672224998474,0.18327602744102478
1725631342378511000,7.540510986328125,0.500812292098999,0.1345313936471939,0.04161618649959564
1725631342388545300,7.550545166015625,0.4410323202610016,-0.0009457338019274175,-0.0648423433303833
1725631342398579500,7.560579345703125,0.41105154156684875,-0.13135775923728943,-0.1047421246767044
1725631342408614100,7.5706142578125,0.4159887731075287,-0.2363893687725067,-0.08835197240114212
1725631342418648300,7.5806484375,0.40603363513946533,-0.29630807042121887,-0.022678187116980553
1725631342428682200,7.59068212890625,0.38581332564353943,-0.3888630270957947,0.05743768811225891
1725631342438717400,7.600717529296875,0.37584343552589417,-0.39977067708969116,0.1042971983551979
1725631342448751000,7.610751220703125,0.3991319537162781,-0.2243455946445465,0.10733427107334137
1725631342458785300,7.620785400390625,0.4319273829460144,-0.06047844514250755,0.08073657006025314
1725631342468818700,7.630818603515625,0.45098069310188293,0.08444917947053909,0.056857332587242126
1725631342478853600,7.640853515625,0.45683905482292175,0.2617379128932953,0.06690014898777008
1725631342488887600,7.650887451171875,0.481627494096756,0.3434330224990845,0.11878545582294464
1725631342498921700,7.660921630859375,0.5024526119232178,0.3595028221607208,0.24623581767082214
1725631342508955400,7.670955322265625,0.4876137375831604,0.3238489329814911,0.3803113102912903
1725631342518990600,7.680990478515625,0.4202154874801636,0.36116164922714233,0.4627423584461212
1725631342529024500,7.6910244140625,0.3318786919116974,0.574288547039032,0.4458581805229187
1725631342539058700,7.70105859375,0.3136957287788391,0.6778860688209534,0.3169877827167511
1725631342549093400,7.71109326171875,0.4198349416255951,0.5248371362686157,0.17370758950710297
1725631342559127600,7.72112744140625,0.5766350030899048,0.5611121654510498,0.04473724961280823
1725631342569161700,7.73116162109375,0.6347963213920593,0.795199990272522,-0.07168496400117874
1725631342579195400,7.7411953125,0.6297748684883118,0.9735267758369446,-0.1416652798652649
1725631342589230600,7.751230712890625,0.6324892044067383,1.0818971395492554,-0.20937880873680115
1725631342599264500,7.761264404296875,0.7032256722450256,1.1175007820129395,-0.31904223561286926
1725631342609298400,7.77129833984375,0.7829594016075134,1.0817747116088867,-0.44450774788856506
1725631342619333600,7.781333740234375,0.8880193829536438,1.0238343477249146,-0.5953501462936401
1725631342629367600,7.791367431640625,0.9042721390724182,0.9351125359535217,-0.6591254472732544
1725631342639401700,7.801401611328125,0.8452672362327576,0.8639332056045532,-0.6307894587516785
1725631342649435600,7.811435546875,0.8223302364349365,0.6954360604286194,-0.5740215182304382
1725631342659470600,7.821470703125,0.8483981490135193,0.4934585988521576,-0.5417550802230835
1725631342669504800,7.8315048828125,0.9104668498039246,0.42047491669654846,-0.5573204159736633
1725631342679538400,7.841538330078125,0.9900000691413879,0.39977288246154785,-0.6041372418403625
1725631342689572600,7.851572509765625,1.0627498626708984,0.24497081339359283,-0.6024053692817688
1725631342699607600,7.861607666015625,1.1171187162399292,-0.016428250819444656,-0.4966411888599396
1725631342709641700,7.871641845703125,1.0927369594573975,-0.19253963232040405,-0.2772856652736664
1725631342719675600,7.881675537109375,0.934122622013092,-0.3317599594593048,0.03788250684738159
1725631342729710600,7.891710693359375,0.5757386684417725,-0.4352192282676697,0.301455557346344
1725631342739744800,7.901744873046875,0.11430240422487259,-0.5245426297187805,0.2871985137462616
1725631342749778400,7.9117783203125,-0.31517839431762695,-0.614693284034729,0.10008376091718674
1725631342759812600,7.9218125,-0.6790896058082581,-0.6731184124946594,-0.011570515111088753
1725631342769847600,7.93184765625,-0.9198049902915955,-0.7351894974708557,0.15719906985759735
1725631342779881500,7.941881591796875,-0.9495866298675537,-0.6755051612854004,0.47520050406455994
1725631342789915600,7.95191552734375,-0.9184966087341309,-0.458012193441391,0.6430864334106445
1725631342799949600,7.961949462890625,-0.9696427583694458,-0.2858687937259674,0.6059349179267883
1725631342809984800,7.97198486328125,-1.1246168613433838,-0.2325057089328766,0.43150562047958374
1725631342820018400,7.982018310546875,-1.2741540670394897,-0.08763540536165237,0.1502380520105362
1725631342830052600,7.992052490234375,-1.3847318887710571,0.09877734631299973,-0.132346510887146
1725631342840087600,8.002087646484375,-1.3922758102416992,0.1415756493806839,-0.29469677805900574
1725631342850121500,8.01212158203125,-1.2530386447906494,0.12284404784440994,-0.29663288593292236
1725631342860155600,8.02215576171875,-1.0062812566757202,0.1378978043794632,-0.1932196468114853
1725631342870189600,8.032189453125,-0.7355451583862305,0.06811019033193588,-0.027840012684464455
1725631342880224500,8.042224609375,-0.5196470022201538,-0.04272929206490517,0.1328706294298172
1725631342890258400,8.052258544921875,-0.4031909704208374,-0.13663500547409058,0.23118653893470764
1725631342900292600,8.062292724609375,-0.34423497319221497,-0.11668767035007477,0.2570543587207794
1725631342910327600,8.07232763671875,-0.3138813376426697,-0.032668933272361755,0.24600277841091156
1725631342920361500,8.082361572265626,-0.2898753881454468,0.01590839773416519,0.23561063408851624
1725631342930395600,8.092395751953125,-0.29402273893356323,0.10903941094875336,0.202361598610878
1725631342940429600,8.1024296875,-0.36810073256492615,0.2790009677410126,0.14216569066047668
1725631342950464500,8.112464599609375,-0.45506760478019714,0.34534725546836853,0.08399107307195663
1725631342960498700,8.122498779296874,-0.4831622838973999,0.2479299157857895,0.056707195937633514
1725631342970532600,8.13253271484375,-0.4796146750450134,0.18202973902225494,0.035226937383413315
1725631342980566500,8.14256640625,-0.4769716262817383,0.1623365730047226,0.03622603788971901
1725631342990601500,8.1526015625,-0.428646981716156,0.03185872361063957,0.06350399553775787
1725631343000635600,8.1626357421875,-0.3471467196941376,-0.1327248513698578,0.10204946249723434
1725631343010669600,8.172669677734374,-0.31981149315834045,-0.24819205701351166,0.08777278661727905
1725631343020704500,8.18270458984375,-0.38678741455078125,-0.29013022780418396,0.017554080113768578
1725631343030738700,8.19273876953125,-0.5981380343437195,-0.29628345370292664,-0.05712441727519035
1725631343040772600,8.202772705078125,-0.7529370784759521,-0.3706457316875458,-0.2307727336883545
1725631343050806500,8.212806640625,-0.8854687213897705,-0.40973028540611267,-0.3491683602333069
1725631343060841500,8.222841552734375,-0.9898560047149658,-0.42326483130455017,-0.30663520097732544
1725631343070875600,8.232875732421874,-1.1302011013031006,-0.3574192523956299,-0.07654552161693573
1725631343080909600,8.24290966796875,-1.2444322109222412,-0.33094164729118347,0.21547043323516846
1725631343090943500,8.252943603515625,-1.3285223245620728,-0.3150772154331207,0.5682833194732666
1725631343100978700,8.262978759765625,-1.331894040107727,-0.4981337785720825,0.820804238319397
1725631343111012600,8.2730126953125,-1.2497354745864868,-0.6316311359405518,0.9654330611228943
1725631343121046500,8.283046630859374,-1.2164605855941772,-0.6640993356704712,1.0688830614089966
1725631343131081500,8.29308154296875,-1.254366159439087,-0.6046258807182312,1.137083888053894
1725631343141115600,8.30311572265625,-1.2956756353378296,-0.4881350100040436,1.156873106956482
1725631343151149600,8.313149658203125,-1.2906113862991333,-0.3669191002845764,1.1391944885253906
1725631343161183500,8.32318359375,-1.2529884576797485,-0.1739320456981659,1.0778765678405762
1725631343171218700,8.33321875,-1.1748573780059814,-0.025886129587888718,1.0284749269485474
1725631343181252400,8.34325244140625,-1.0718252658843994,-0.17183168232440948,0.9546710848808289
1725631343191286500,8.35328662109375,-0.8152906894683838,-0.23924614489078522,0.8886140584945679
1725631343201320700,8.36332080078125,-0.6225376725196838,-0.08928342908620834,0.8579183220863342
1725631343211355600,8.373355712890625,-0.5437853336334229,0.029546819627285004,0.8787665963172913
1725631343221389600,8.3833896484375,-0.489643931388855,0.16360117495059967,0.8917235732078552
1725631343231423700,8.393423828125,-0.4350094199180603,0.3282250165939331,0.8777952194213867
1725631343241458700,8.403458740234376,-0.34321829676628113,0.4473542869091034,0.8459755182266235
1725631343251492600,8.41349267578125,-0.2054779976606369,0.4825868606567383,0.7664148807525635
1725631343261526500,8.423526611328125,-0.038384389132261276,0.2792437970638275,0.6470089554786682
1725631343271560700,8.433560791015625,0.14314359426498413,0.029806261882185936,0.5325212478637695
1725631343281595400,8.443595458984374,0.2601585388183594,-0.06930626928806305,0.44886690378189087
1725631343291629600,8.453629638671876,0.2824620008468628,-0.05862672999501228,0.32116806507110596
1725631343301663700,8.463663818359375,0.27393093705177307,-0.07502156496047974,0.17969442903995514
1725631343311697400,8.473697509765625,0.32613369822502136,0.08932103961706161,0.1430906057357788
1725631343321732600,8.483732666015625,0.39101192355155945,0.34684330224990845,0.21165326237678528
1725631343331766500,8.4937666015625,0.4586508870124817,0.5040469765663147,0.28046536445617676
1725631343341800700,8.50380078125,0.5134660601615906,0.5366703867912292,0.277841180562973
1725631343351835400,8.51383544921875,0.5452221632003784,0.44259312748908997,0.23862482607364655
1725631343361869600,8.52386962890625,0.5756784677505493,0.30943629145622253,0.17254364490509033
1725631343371903700,8.53390380859375,0.5267192125320435,-0.01647656224668026,0.020756250247359276
1725631343381937400,8.5439375,0.5654858350753784,-0.3770226836204529,-0.15038441121578217
1725631343391972600,8.55397265625,0.5790871381759644,-0.567023754119873,-0.32982581853866577
1725631343402006500,8.564006591796876,0.5338770151138306,-0.7218474745750427,-0.5346742272377014
1725631343412040400,8.57404052734375,0.512993574142456,-0.6970193386077881,-0.7454418540000916
1725631343422075400,8.584075439453125,0.5813199877738953,-0.532658040523529,-0.8816794157028198
1725631343432109600,8.594109619140625,0.7211013436317444,-0.4978955388069153,-0.9106625914573669
1725631343442143700,8.604143798828124,0.8512765169143677,-0.5790860652923584,-0.8571121692657471
1725631343452177400,8.614177490234376,0.9423888325691223,-0.7689809203147888,-0.7495215535163879
1725631343462212600,8.624212646484375,0.944233238697052,-0.9370087385177612,-0.5438175201416016
1725631343472247000,8.6342470703125,0.8292405605316162,-0.8957856297492981,-0.30894187092781067
1725631343482281000,8.644281005859375,0.702966570854187,-0.6255354881286621,-0.15108919143676758
1725631343492315100,8.654315185546874,0.6165437698364258,-0.35283762216567993,-0.07667567580938339
1725631343502350000,8.66435009765625,0.5271214842796326,-0.1445358693599701,-0.05600256845355034
1725631343512384300,8.67438427734375,0.3959759473800659,-0.08406400680541992,-0.07203320413827896
1725631343522418000,8.68441796875,0.3177880346775055,-0.02100425213575363,-0.08464362472295761
1725631343532453000,8.694453125,0.31397169828414917,0.05101481080055237,-0.07854817807674408
1725631343542487000,8.704487060546874,0.3521203398704529,0.04537547752261162,-0.05745159462094307
1725631343552521000,8.71452099609375,0.41248753666877747,-0.02532426081597805,0.01101614534854889
1725631343562555100,8.72455517578125,0.4823291599750519,-0.01887735351920128,0.07043320685625076
1725631343572590000,8.734590087890625,0.5218674540519714,0.09076152741909027,0.06686563044786453
1725631343582624300,8.744624267578125,0.5506635904312134,0.21698909997940063,0.004350730217993259
1725631343592658000,8.754657958984374,0.5644680857658386,0.334459513425827,-0.04665546491742134
1725631343602692000,8.764692138671874,0.528182864189148,0.42010846734046936,-0.02603975124657154
1725631343612727000,8.77472705078125,0.4873068034648895,0.44987809658050537,0.05406174063682556
1725631343622761000,8.784760986328125,0.44478127360343933,0.42898303270339966,0.14957112073898315
1725631343632795100,8.794795166015625,0.37627145648002625,0.27726247906684875,0.20973671972751617
1725631343642830000,8.804830078125,0.39697638154029846,0.14983169734477997,0.13737662136554718
1725631343652864000,8.814864013671874,0.5895335674285889,0.02293020859360695,-0.0068452684208750725
1725631343662898200,8.824898193359376,0.7292852401733398,0.11935650557279587,-0.18835289776325226
1725631343672932000,8.83493212890625,0.7777279019355774,0.31756332516670227,-0.3163604140281677
1725631343682967300,8.84496728515625,0.8005869388580322,0.43581870198249817,-0.3369584381580353
1725631343693001000,8.8550009765625,0.8079791069030762,0.722641110420227,-0.31268906593322754
1725631343703035100,8.86503515625,0.8199700713157654,1.1575671434402466,-0.31698355078697205
1725631343713070000,8.875070068359374,1.0280606746673584,1.3977582454681396,-0.3747379183769226
1725631343723104000,8.88510400390625,1.3413115739822388,1.3087737560272217,-0.412102609872818
1725631343733138200,8.89513818359375,1.6162887811660767,1.2341532707214355,-0.35120704770088196
1725631343743172000,8.905172119140625,1.7455343008041382,1.3610997200012207,-0.20074394345283508
1725631343753207000,8.91520703125,1.794801950454712,1.2828139066696167,-0.09640181809663773
1725631343763241000,8.925240966796874,1.7573398351669312,1.0088779926300049,-0.13382592797279358
1725631343773275100,8.935275146484376,1.5599591732025146,0.6176344156265259,-0.24181097745895386
1725631343783309000,8.94530908203125,1.2427507638931274,0.35602936148643494,-0.3124843239784241
1725631343793344000,8.955343994140625,0.8481236100196838,0.16076214611530304,-0.3745937645435333
1725631343803378200,8.965378173828125,0.4453565180301666,-0.07431101053953171,-0.4250122606754303
1725631343813412000,8.975412109375,0.03964203596115112,-0.3498866558074951,-0.48707109689712524
1725631343823447000,8.985447021484376,-0.28838446736335754,-0.5886703729629517,-0.6064397096633911
1725631343833481000,8.99548095703125,-0.3663780689239502,-0.8471937775611877,-0.5567456483840942
1725631343843515100,9.00551513671875,-0.4583696126937866,-0.9165189266204834,-0.3717040419578552
1725631343853549000,9.015549072265625,-0.6536839604377747,-0.7622427940368652,-0.23405376076698303
1725631343863584000,9.025583984375,-0.7946935296058655,-0.5990988612174988,-0.17664401233196259
1725631343873618200,9.0356181640625,-0.8564567565917969,-0.4468403458595276,-0.09212726354598999
1725631343883652000,9.045652099609375,-0.880431592464447,-0.17543357610702515,0.021372610703110695
1725631343893686000,9.05568603515625,-0.8512329459190369,0.10909430682659149,0.14698034524917603
1725631343903721200,9.06572119140625,-0.8271604180335999,0.3298995792865753,0.28328338265419006
1725631343913755100,9.075755126953124,-0.8369025588035583,0.44500088691711426,0.4315902888774872
1725631343923789000,9.0857890625,-0.9186189770698547,0.411246120929718,0.5245205163955688
1725631343933824000,9.095823974609376,-1.058474063873291,0.17283248901367188,0.5475693941116333
1725631343943858200,9.105858154296875,-1.1997603178024292,0.06696569174528122,0.42967894673347473
1725631343953892000,9.11589208984375,-1.2999005317687988,0.1711176484823227,0.1918109953403473
1725631343963926000,9.125926025390624,-1.3267977237701416,0.4510137140750885,-0.10272368788719177
1725631343973961200,9.135961181640624,-1.2313209772109985,0.9180136919021606,-0.3140266239643097
1725631343983995100,9.1459951171875,-1.0236181020736694,1.3148889541625977,-0.33987051248550415
1725631343994029000,9.156029052734375,-0.7908610105514526,1.4150285720825195,-0.2341635376214981
1725631344004063200,9.166063232421875,-0.5664519667625427,1.218989372253418,-0.07941271364688873
1725631344014098200,9.17609814453125,-0.41539958119392395,1.1940507888793945,0.04511083662509918
1725631344024132000,9.186132080078124,-0.3747616410255432,1.3682347536087036,0.09592025727033615
1725631344034166000,9.196166015625,-0.42971888184547424,1.2193387746810913,0.1358402520418167
1725631344044201200,9.206201171875,-0.4712367057800293,0.7590860724449158,0.15718327462673187
1725631344054235000,9.21623486328125,-0.5157016515731812,0.3567119836807251,0.13430778682231903
1725631344064269000,9.22626904296875,-0.5915718078613281,0.0685090720653534,0.011110099032521248
1725631344074303200,9.23630322265625,-0.615054726600647,-0.20626069605350494,-0.14483264088630676
1725631344084338200,9.246338134765624,-0.5217722654342651,-0.4756962060928345,-0.23519578576087952
1725631344094372000,9.2563720703125,-0.35003697872161865,-0.8147552013397217,-0.2382269948720932
1725631344104406000,9.266406005859375,-0.18745292723178864,-1.2368122339248657,-0.1945286989212036
1725631344114441200,9.276441162109375,-0.07166799902915955,-1.5321022272109985,-0.13682465255260468
1725631344124475000,9.286474853515625,-0.06748787313699722,-1.6437381505966187,-0.1090892031788826
1725631344134509000,9.296509033203124,-0.22007474303245544,-1.7034832239151,-0.11249139159917831
1725631344144543200,9.306543212890626,-0.3238315284252167,-1.710925579071045,-0.2455437034368515
1725631344154578000,9.316577880859375,-0.4278889298439026,-1.4641597270965576,-0.32085469365119934
1725631344164612000,9.326612060546875,-0.586355447769165,-1.1100655794143677,-0.25990331172943115
1725631344174646000,9.33664599609375,-0.8074316382408142,-0.8373411893844604,-0.08565667271614075
1725631344184680000,9.346679931640624,-1.0128206014633179,-0.619483470916748,0.12504899501800537
1725631344194715100,9.356715087890626,-1.195426344871521,-0.38216733932495117,0.43273648619651794
1725631344204749000,9.3667490234375,-1.3267742395401,-0.25905972719192505,0.6808876395225525
1725631344214783200,9.376783203125,-1.4113082885742188,-0.19004017114639282,0.7323612570762634
1725631344224818000,9.38681787109375,-1.491624355316162,-0.08683361113071442,0.6135597229003906
1725631344234852000,9.39685205078125,-1.6056315898895264,0.23437930643558502,0.46007081866264343
1725631344244886300,9.40688623046875,-1.714592695236206,0.625201940536499,0.3911881446838379
1725631344254920000,9.416919921875,-1.7750035524368286,0.7161664366722107,0.4696251451969147
1725631344264955100,9.426955078125,-1.7426196336746216,0.6208487153053284,0.6923560500144958
1725631344274989000,9.436989013671875,-1.5934308767318726,0.5112332701683044,0.916124701499939
1725631344285023000,9.44702294921875,-1.28401517868042,0.2890940308570862,0.9739135503768921
1725631344295057200,9.45705712890625,-0.8634998202323914,0.21402433514595032,0.9071768522262573
1725631344305092000,9.467092041015626,-0.44712820649147034,0.2169652283191681,0.788385272026062
1725631344315126300,9.477126220703125,-0.18649129569530487,-0.08359673619270325,0.66390460729599
1725631344325160000,9.487159912109375,-0.06855140626430511,-0.42205312848091125,0.5729446411132812
1725631344335195100,9.497195068359375,-0.030940381810069084,-0.5010499358177185,0.5340834856033325
1725631344345229000,9.50722900390625,0.03907262906432152,-0.3479824960231781,0.5086925625801086
1725631344355263000,9.517262939453126,0.179866760969162,0.005468490067869425,0.5116217732429504
1725631344365297200,9.527297119140625,0.31794247031211853,0.4650455117225647,0.5483525395393372
1725631344375332000,9.53733203125,0.4582521915435791,0.6979133486747742,0.5868464112281799
1725631344385366300,9.5473662109375,0.4990401566028595,0.5035997033119202,0.4585210382938385
1725631344395400000,9.55739990234375,0.4928094148635864,0.14734435081481934,0.21416589617729187
1725631344405434000,9.56743408203125,0.44270044565200806,-0.3029125928878784,-0.06081024557352066
1725631344415469000,9.577468994140625,0.43642711639404297,-0.7119603157043457,-0.31989267468452454
1725631344425503000,9.5875029296875,0.4982478618621826,-0.9031746983528137,-0.4868584871292114
1725631344435537200,9.597537109375,0.5735434293746948,-0.8415682911872864,-0.6091753840446472
1725631344445572000,9.607572021484375,0.5996959209442139,-0.6552596688270569,-0.7206824421882629
1725631344455606000,9.61760595703125,0.6466543674468994,-0.4000913202762604,-0.7846015095710754
1725631344465640200,9.62764013671875,0.7105472683906555,-0.021809060126543045,-0.7904199361801147
1725631344475673900,9.637673828125,0.810114324092865,0.20648109912872314,-0.7926782965660095
1725631344485709000,9.647708984375,0.9016528725624084,-0.12544161081314087,-0.8411548733711243
1725631344495743000,9.657742919921875,0.8887834548950195,-0.8418196439743042,-0.9901190400123596
1725631344505777000,9.66777685546875,0.718346357345581,-1.4764931201934814,-1.2702387571334839
1725631344515811000,9.67781103515625,0.5751535296440125,-1.8615303039550781,-1.5823993682861328
1725631344525846000,9.687845947265625,0.5649544596672058,-1.813818097114563,-1.7521060705184937
1725631344535880000,9.6978798828125,0.7128919959068298,-1.1702580451965332,-1.6761947870254517
1725631344545913900,9.707913818359375,0.9224870800971985,-0.43648892641067505,-1.347327470779419
1725631344555949000,9.717948974609374,1.0009260177612305,0.11585624516010284,-0.8425034880638123
1725631344565983000,9.72798291015625,0.963094174861908,0.7585880756378174,-0.34484100341796875
1725631344576017000,9.738016845703125,0.852820098400116,1.3585649728775024,0.04556085914373398
1725631344586051000,9.748051025390625,0.6425793170928955,1.6800692081451416,0.24390242993831635
1725631344596086000,9.7580859375,0.4636220633983612,1.6583348512649536,0.19293539226055145
1725631344606120000,9.768119873046874,0.4381985068321228,1.4175372123718262,0.00047482107765972614
1725631344616153900,9.77815380859375,0.497212290763855,0.9934837222099304,-0.1573406457901001
1725631344626189000,9.78818896484375,0.5661375522613525,0.5523403882980347,-0.22832290828227997
1725631344636222700,9.79822265625,0.6683374047279358,0.002178722759708762,-0.25388261675834656
1725631344646257000,9.8082568359375,0.802093505859375,-0.7337549924850464,-0.22814786434173584
1725631344656291000,9.818291015625,0.8869194984436035,-1.2869237661361694,-0.16438806056976318
1725631344666326000,9.828325927734374,0.8843240737915039,-1.4874788522720337,-0.11856049299240112
1725631344676360000,9.83835986328125,0.8048761487007141,-1.565398097038269,-0.13720501959323883
1725631344686393900,9.848393798828125,0.6723651885986328,-1.564274787902832,-0.1821538209915161
1725631344696428000,9.858427978515625,0.5244870781898499,-1.3931282758712769,-0.18312667310237885
1725631344706463000,9.868462890625,0.37395891547203064,-0.9289754629135132,-0.17847292125225067
1725631344716497000,9.878496826171874,0.2428421527147293,-0.3691246807575226,-0.19902026653289795
1725631344726531000,9.888531005859376,0.1289626657962799,0.08242860436439514,-0.27867111563682556
1725631344736566000,9.89856591796875,0.0987781286239624,0.5886400938034058,-0.4228333532810211
1725631344746600000,9.908599853515625,0.2738214433193207,0.89610755443573,-0.6378722786903381
1725631344756634000,9.918634033203125,0.5757752060890198,0.7488571405410767,-0.8804599046707153
1725631344766667800,9.928667724609374,0.874195396900177,0.3612006902694702,-1.0906234979629517
1725631344776703000,9.938702880859376,1.266473412513733,0.12681588530540466,-1.1446888446807861
1725631344786737000,9.94873681640625,1.8088544607162476,0.10225461423397064,-1.0635284185409546
1725631344796771000,9.95877099609375,2.3252341747283936,0.3123231530189514,-0.9098646640777588
1725631344806805000,9.968804931640625,2.6818289756774902,0.7331045269966125,-0.6673548221588135
1725631344816840000,9.97883984375,2.818509578704834,1.079019546508789,-0.33141830563545227
1725631344826874000,9.9888740234375,2.677947998046875,1.0325847864151,0.05417664349079132
1725631344836907800,9.99890771484375,2.4354515075683594,0.8586233854293823,0.44500404596328735
1725631344846943000,10.00894287109375,2.1437125205993652,0.6742134690284729,0.6949162483215332
1725631344856977000,10.018976806640625,1.7953681945800781,0.3780161440372467,0.7464559078216553
1725631344867011000,10.029010986328124,1.3411294221878052,0.010916287079453468,0.6515860557556152
1725631344877045000,10.039044921875,0.7432257533073425,-0.3385133445262909,0.4259592890739441
1725631344887080000,10.049079833984376,0.0287404116243124,-0.6927846074104309,0.004567581228911877
1725631344897114000,10.059114013671875,-0.3861715495586395,-0.9781045317649841,-0.3121882677078247
1725631344907147800,10.069147705078125,-0.5737265348434448,-1.2166568040847778,-0.22380997240543365
1725631344917182000,10.079181884765624,-0.6048663258552551,-1.1586084365844727,-0.010244154371321201
1725631344927217000,10.089216796875,-0.5655024647712708,-0.8613337278366089,0.1714830994606018
1725631344937250800,10.099250732421876,-0.505774974822998,-0.5726337432861328,0.327700138092041
1725631344947285000,10.109284912109375,-0.519955039024353,-0.24248892068862915,0.36412373185157776
1725631344957320000,10.11931982421875,-0.6548467874526978,0.1894979029893875,0.26909735798835754
1725631344967354000,10.12935400390625,-0.8655896782875061,0.5106135606765747,0.14850729703903198
1725631344977388000,10.139387939453124,-1.0933001041412354,0.6291375756263733,0.03322465345263481
1725631344987422000,10.149421875,-1.3013882637023926,0.6152430176734924,-0.08056019991636276
1725631344997457200,10.15945703125,-1.4506129026412964,0.592417299747467,-0.17823216319084167
1725631345007490800,10.16949072265625,-1.5136662721633911,0.5221278667449951,-0.2524450123310089
1725631345017525000,10.17952490234375,-1.4570256471633911,0.1934642344713211,-0.26283639669418335
1725631345027559200,10.18955908203125,-1.2769372463226318,-0.1370871663093567,-0.20663292706012726
1725631345037593900,10.19959375,-1.0076301097869873,-0.4512946307659149,-0.08776699751615524
1725631345047628000,10.2096279296875,-0.7064579725265503,-0.7459724545478821,0.09504631161689758
1725631345057662000,10.219661865234375,-0.45994430780410767,-0.7933724522590637,0.2863962948322296
1725631345067697200,10.229697265625,-0.3368556499481201,-0.50867760181427,0.3783099353313446
1725631345077730800,10.239730712890625,-0.28699567914009094,-0.24279582500457764,0.38018107414245605
1725631345087765000,10.249764892578124,-0.3035343587398529,-0.14896005392074585,0.3619876205921173
1725631345097799200,10.259799072265626,-0.3821583092212677,-0.05953243747353554,0.38262444734573364
1725631345107833900,10.269833740234375,-0.5176048278808594,0.1457938253879547,0.4061968922615051
1725631345117868000,10.279867919921875,-0.6569877862930298,0.43484798073768616,0.36580926179885864
1725631345127902000,10.28990185546875,-0.7557367086410522,0.6192060708999634,0.2705751955509186
1725631345137936000,10.299935791015624,-0.8044760227203369,0.6506883502006531,0.15120726823806763
1725631345147970800,10.309970703125,-0.7877748608589172,0.6187229156494141,0.038438696414232254
1725631345158005000,10.3200048828125,-0.7607171535491943,0.593252420425415,-0.0384472981095314
1725631345168039000,10.330038818359375,-0.7341095805168152,0.5556225180625916,-0.09915538877248764
1725631345178073900,10.340073974609375,-0.7056846022605896,0.5130556225776672,-0.15292806923389435
1725631345188108000,10.35010791015625,-0.6383739113807678,0.41729608178138733,-0.19227950274944305
1725631345198142000,10.360141845703126,-0.5376651287078857,0.2222089022397995,-0.20458464324474335
1725631345208175900,10.37017578125,-0.43525052070617676,0.04045949876308441,-0.18154606223106384
1725631345218210800,10.3802109375,-0.36642271280288696,-0.05292158201336861,-0.16179446876049042
1725631345228245000,10.390244873046875,-0.30860838294029236,-0.11676821112632751,-0.14598193764686584
1725631345238279000,10.40027880859375,-0.30332013964653015,-0.1602696180343628,-0.0531177781522274
1725631345248312800,10.410312744140626,-0.42677000164985657,-0.0031487876549363136,0.20891311764717102
1725631345258348000,10.42034814453125,-0.594214677810669,0.14014632999897003,0.5130639672279358
1725631345268382000,10.4303818359375,-0.7893575429916382,0.19347898662090302,0.771708071231842
1725631345278416000,10.440415771484375,-1.0157883167266846,0.21432460844516754,1.0140458345413208
1725631345288451000,10.450451171875,-1.1661237478256226,0.3125736713409424,1.2077455520629883
1725631345298485000,10.460485107421874,-1.1880061626434326,0.3935982584953308,1.3242145776748657
1725631345308519000,10.470518798828126,-1.1424784660339355,0.35011452436447144,1.398870825767517
1725631345318553000,10.480552978515625,-1.0301871299743652,0.34736135601997375,1.417173147201538
1725631345328588000,10.490588134765625,-0.8758878111839294,0.45212796330451965,1.352512001991272
1725631345338622000,10.5006220703125,-0.735158383846283,0.6510128974914551,1.2177571058273315
1725631345348655900,10.51065576171875,-0.7191373109817505,0.7149908542633057,0.9239054322242737
1725631345358690000,10.52068994140625,-0.7141555547714233,0.653016984462738,0.6775041818618774
1725631345368725000,10.53072509765625,-0.7520376443862915,0.20911332964897156,0.4940551817417145
1725631345378759000,10.540759033203125,-0.6311721801757812,-0.07930008322000504,0.43880605697631836
1725631345388793000,10.55079296875,-0.45971429347991943,-0.30521246790885925,0.3966616690158844
1725631345398828000,10.560828125,-0.3950575590133667,-0.4733428955078125,0.3907076418399811
1725631345408862000,10.570862060546874,-0.3394835591316223,-0.3605860471725464,0.4364560544490814
1725631345418896000,10.580895751953125,-0.27135857939720154,-0.018460143357515335,0.45093193650245667
1725631345428930000,10.590929931640625,-0.19262461364269257,0.18125781416893005,0.4105764627456665
1725631345438964700,10.60096484375,-0.04178822785615921,0.12481530755758286,0.3380686938762665
1725631345448999000,10.6109990234375,0.19181571900844574,0.047673068940639496,0.26503556966781616
1725631345459033000,10.621033203125,0.39668312668800354,-0.09339644014835358,0.15167996287345886
1725631345469066500,10.63106640625,0.47445422410964966,-0.28723499178886414,0.03360990434885025
1725631345479101700,10.641101806640625,0.4776651859283447,-0.42896682024002075,-0.07138601690530777
1725631345489135600,10.651135498046875,0.4316842555999756,-0.48745980858802795,-0.2008003443479538
1725631345499169500,10.66116943359375,0.3740883469581604,-0.5526130199432373,-0.37080830335617065
1725631345509204700,10.671204833984374,0.35904660820961,-0.5797271132469177,-0.5138639807701111
1725631345519238700,10.68123876953125,0.381990522146225,-0.546754777431488,-0.6090230345726013
1725631345529272600,10.6912724609375,0.4173670709133148,-0.4772529900074005,-0.674296498298645
1725631345539306800,10.701306640625,0.4734146296977997,-0.6616098284721375,-0.7036525011062622
1725631345549341700,10.711341796875,0.5628575086593628,-1.2865580320358276,-0.6797414422035217
1725631345559375600,10.721375732421874,0.5897620916366577,-1.5128686428070068,-0.6293525695800781
1725631345569409500,10.731409423828126,0.5397136807441711,-1.1513166427612305,-0.702629029750824
1725631345579443700,10.741443603515625,0.4908026456832886,-1.1655791997909546,-0.9267441630363464
1725631345589478700,10.751478759765625,0.5122571587562561,-0.7469414472579956,-1.1484854221343994
1725631345599512600,10.7615126953125,0.6636972427368164,-0.17174924910068512,-1.23663330078125
1725631345609546800,10.771546630859374,0.8274654150009155,0.09404991567134857,-1.1374008655548096
1725631345619581700,10.781581787109374,0.899681806564331,0.17957228422164917,-0.8451279401779175
1725631345629615600,10.79161572265625,0.9096957445144653,0.18389689922332764,-0.44751471281051636
1725631345639649500,10.8016494140625,0.8996984958648682,0.174623504281044,-0.04390253499150276
1725631345649683700,10.81168359375,0.8838337659835815,-0.03349825739860535,0.2610413730144501
1725631345659718400,10.821718505859375,0.8319634199142456,-0.2448938637971878,0.4046851098537445
1725631345669752600,10.831752685546874,0.7339462637901306,-0.2325240522623062,0.3565591871738434
1725631345679786800,10.841786865234376,0.5496901869773865,-0.352072536945343,0.19135954976081848
1725631345689820400,10.8518203125,0.34312793612480164,-0.4714657664299011,-0.018353495746850967
1725631345699855600,10.861855712890625,0.2034214586019516,-0.28837183117866516,-0.16368991136550903
1725631345709889500,10.8718896484375,0.14757509529590607,0.04897116869688034,-0.1838720142841339
1725631345719923700,10.881923828125,0.19919328391551971,0.24323518574237823,-0.10667762160301208
1725631345729958700,10.891958740234376,0.28648698329925537,0.2809818685054779,0.0020823227241635323
1725631345739992600,10.90199267578125,0.3835538625717163,0.11714392155408859,0.09626501053571701
1725631345750026800,10.91202685546875,0.4663415253162384,-0.13587281107902527,0.16202904284000397
1725631345760060700,10.922060791015625,0.4668070375919342,-0.24118778109550476,0.2268594354391098
1725631345770095600,10.932095703125,0.39912867546081543,-0.16957643628120422,0.24714577198028564
1725631345780129800,10.9421298828125,0.3337603211402893,0.021709367632865906,0.19865892827510834
1725631345790163500,10.95216357421875,0.3096213638782501,0.31265008449554443,0.10707714408636093
1725631345800197600,10.96219775390625,0.2942748963832855,0.5503952503204346,0.019729457795619965
1725631345810232600,10.972232666015625,0.2846361994743347,0.6915447115898132,-0.04329778254032135
1725631345820266800,10.982266845703125,0.4501473903656006,0.598994791507721,-0.0924602672457695
1725631345830300700,10.99230078125,0.7008723616600037,0.38681551814079285,-0.11775076389312744
1725631345840335600,11.002335693359376,0.8041571974754333,0.46728983521461487,-0.13123300671577454
1725631345850369800,11.012369873046875,0.7896532416343689,0.5972461700439453,-0.13305878639221191
1725631345860403500,11.022403564453125,0.7746231555938721,0.6468512415885925,-0.13501034677028656
1725631345870437600,11.032437744140625,0.797264575958252,0.7179805636405945,-0.17366507649421692
1725631345880472600,11.04247265625,0.8743178248405457,0.7143040299415588,-0.25382116436958313
1725631345890506500,11.052506591796876,1.0273000001907349,0.6513946652412415,-0.362785279750824
1725631345900540700,11.062540771484375,1.15895676612854,0.6516202092170715,-0.41230568289756775
1725631345910574600,11.07257470703125,1.2388771772384644,0.7007114291191101,-0.40113478899002075
1725631345920609800,11.08260986328125,1.2769993543624878,0.6004670858383179,-0.3211638033390045
1725631345930643500,11.0926435546875,1.2376708984375,0.41198280453681946,-0.19093778729438782
1725631345940677600,11.102677734375,1.1359869241714478,0.346973717212677,-0.10979100316762924
1725631345950712600,11.112712646484376,1.0913951396942139,0.17677971720695496,-0.07598681002855301
1725631345960746500,11.12274658203125,1.045528769493103,-0.058516424149274826,-0.06852196902036667
1725631345970780700,11.13278076171875,0.9192104339599609,-0.16096331179141998,-0.11142721772193909
1725631345980814600,11.142814697265624,0.731741189956665,-0.2156369388103485,-0.12124815583229065
1725631345990849800,11.152849853515624,0.4780541658401489,-0.31131407618522644,-0.0977621078491211
1725631346000883500,11.162883544921876,0.2053094208240509,-0.5169466137886047,-0.028568653389811516
1725631346010917600,11.172917724609375,-0.09528717398643494,-0.6823350787162781,0.037358712404966354
1725631346020951600,11.18295166015625,-0.4207235872745514,-0.5752621293067932,0.03289951756596565
1725631346030986500,11.192986572265625,-0.6464716196060181,-0.5932188630104065,-0.012291006743907928
1725631346041020700,11.203020751953124,-0.7817495465278625,-0.6190438270568848,0.0366392508149147
1725631346051054600,11.2130546875,-0.9215611815452576,-0.2499578893184662,0.15772433578968048
1725631346061089500,11.223089599609375,-1.12504243850708,0.02998056448996067,0.3551066517829895
1725631346071123700,11.233123779296875,-1.2533669471740723,0.011431274935603142,0.5705834031105042
1725631346081157600,11.24315771484375,-1.3151417970657349,-0.08634695410728455,0.6601161956787109
1725631346091191600,11.253191650390624,-1.2990758419036865,-0.2060549557209015,0.5666972994804382
1725631346101226500,11.2632265625,-1.1987301111221313,-0.7940303087234497,0.36991843581199646
1725631346111260700,11.2732607421875,-1.1046942472457886,-1.109078049659729,0.11969444900751114
1725631346121294800,11.283294921875,-1.1052708625793457,-0.9584261178970337,-0.03867414593696594
1725631346131328500,11.29332861328125,-1.1112661361694336,-0.8401952981948853,-0.06920231878757477
1725631346141363700,11.30336376953125,-1.017157793045044,-0.6195417642593384,-0.07030247151851654
1725631346151397600,11.313397705078126,-0.7880321145057678,-0.14496877789497375,-0.11465959995985031
1725631346161431600,11.323431640625,-0.5270055532455444,0.14180120825767517,-0.11808149516582489
1725631346171465700,11.3334658203125,-0.35599181056022644,0.2978127896785736,0.05041654780507088
1725631346181500700,11.343500732421875,-0.3089146018028259,0.455471932888031,0.27924787998199463
1725631346191534600,11.35353466796875,-0.28297159075737,0.37171056866645813,0.47034579515457153
1725631346201568500,11.363568603515626,-0.19618581235408783,0.066876620054245,0.5449172258377075
1725631346211603700,11.373603759765626,-0.13977934420108795,-0.16710346937179565,0.48949265480041504
1725631346221637600,11.3836376953125,-0.1654391586780548,-0.3181843161582947,0.35150736570358276
1725631346231671600,11.393671630859375,-0.2305273562669754,-0.3903496265411377,0.20071497559547424
1725631346241705700,11.403705810546874,-0.30863842368125916,-0.1819346398115158,0.052519381046295166
1725631346251740700,11.41374072265625,-0.3553977310657501,0.18915815651416779,-0.0549287274479866
1725631346261774600,11.423774658203126,-0.36025506258010864,0.5177770853042603,-0.08445759117603302
1725631346271808500,11.43380859375,-0.3458106517791748,0.7896251082420349,-0.05465094745159149
1725631346281842700,11.4438427734375,-0.37721729278564453,0.8322047591209412,-0.00650126114487648
1725631346291877600,11.453877685546875,-0.3985666334629059,0.5267384648323059,0.0026041946839541197
1725631346301911600,11.46391162109375,-0.39743557572364807,0.23913703858852386,-0.053257741034030914
1725631346311945700,11.47394580078125,-0.3619430363178253,0.07857620716094971,-0.15590377151966095
1725631346321980700,11.483980712890625,-0.47762489318847656,0.08322075754404068,-0.1177864670753479
1725631346332014600,11.4940146484375,-0.6758172512054443,0.14737451076507568,0.016246626153588295
1725631346342048800,11.504048828125,-0.8667717576026917,0.30347758531570435,0.19317080080509186
1725631346352082700,11.514082763671874,-1.1066914796829224,0.5047452449798584,0.4452497959136963
1725631346362117600,11.52411767578125,-1.2456406354904175,0.6287588477134705,0.6478268504142761
1725631346372151600,11.534151611328125,-1.2367228269577026,0.6461867690086365,0.7445300221443176
1725631346382185700,11.544185791015625,-1.2472375631332397,0.4513491094112396,0.7645250558853149
1725631346392219600,11.5542197265625,-1.2429438829421997,0.2915598154067993,0.8011891841888428
1725631346402254600,11.564254638671875,-1.2193032503128052,0.1352415829896927,0.8080193996429443
1725631346412288800,11.574288818359374,-1.2067553997039795,-0.07162333279848099,0.7464699745178223
1725631346422322400,11.584322509765625,-1.1664538383483887,-0.10636666417121887,0.6302583813667297
1725631346432357600,11.594357666015625,-1.0779694318771362,0.08994662016630173,0.5195499658584595
1725631346442391600,11.6043916015625,-0.9878710508346558,0.2950046956539154,0.433430016040802
1725631346452425700,11.61442578125,-0.8548079133033752,0.44033384323120117,0.3978513777256012
1725631346462459600,11.624459716796874,-0.7109711170196533,0.502515971660614,0.4238070547580719
1725631346472494000,11.634494140625,-0.6182680726051331,0.41560664772987366,0.41548147797584534
1725631346482528300,11.6445283203125,-0.535698652267456,0.19336825609207153,0.34662359952926636
1725631346492562200,11.654562255859375,-0.40228399634361267,-0.08838102221488953,0.2759639620780945
1725631346502596000,11.66459619140625,-0.19729408621788025,-0.3013926148414612,0.22211511433124542
1725631346512631300,11.67463134765625,0.036416929215192795,-0.45317336916923523,0.17718838155269623
1725631346522665200,11.684665283203126,0.26115521788597107,-0.41605448722839355,0.13072021305561066
1725631346532699100,11.69469921875,0.33478084206581116,-0.1439237892627716,0.1034621000289917
1725631346542733300,11.7047333984375,0.3235854506492615,0.15449486672878265,0.09695040434598923
1725631346552768300,11.714768310546875,0.33787450194358826,0.20046621561050415,0.008751158602535725
1725631346562802400,11.724802490234374,0.41294553875923157,-0.04171258211135864,-0.12351872771978378
1725631346572836000,11.734836181640626,0.5166763663291931,-0.28503745794296265,-0.2362757921218872
1725631346582871300,11.744871337890626,0.5863361358642578,-0.46722057461738586,-0.35210147500038147
1725631346592905200,11.7549052734375,0.589548647403717,-0.6267653107643127,-0.49403512477874756
1725631346602939100,11.764939208984375,0.5521237850189209,-0.6976903080940247,-0.6664007902145386
1725631346612973300,11.774973388671874,0.5302556753158569,-0.6400955319404602,-0.8007169365882874
1725631346623008300,11.78500830078125,0.5519229173660278,-0.5952165126800537,-0.8808572888374329
1725631346633042200,11.795042236328126,0.611539363861084,-0.5442689061164856,-0.8812053799629211
1725631346643076000,11.805076171875,0.6279788017272949,-0.7187618613243103,-0.8621699213981628
1725631346653110300,11.8151103515625,0.6041339039802551,-0.9136057496070862,-0.9129016995429993
1725631346663145200,11.825145263671875,0.575537919998169,-0.8259573578834534,-1.0482559204101562
1725631346673179100,11.83517919921875,0.6171940565109253,-0.7530215978622437,-1.156695008277893
1725631346683213300,11.84521337890625,0.7457557916641235,-0.6448791027069092,-1.1526981592178345
1725631346693248300,11.855248291015625,0.9096810817718506,-0.341630220413208,-0.9991813898086548
1725631346703282200,11.8652822265625,0.9670575857162476,-0.043148454278707504,-0.6675658822059631
1725631346713316000,11.875316162109375,0.8961799144744873,0.11765294522047043,-0.27234694361686707
1725631346723350300,11.885350341796874,0.782916784286499,0.15929120779037476,0.040569696575403214
1725631346733385200,11.89538525390625,0.6570959091186523,0.019926048815250397,0.21508164703845978
1725631346743419100,11.905419189453125,0.5368387699127197,-0.2695070803165436,0.240245059132576
1725631346753453300,11.915453369140625,0.4154791831970215,-0.5893877744674683,0.14608009159564972
1725631346763487000,11.925487060546875,0.3193899393081665,-0.7804000973701477,0.017657410353422165
1725631346773522200,11.935522216796874,0.2697594165802002,-0.7629623413085938,-0.038611359894275665
1725631346783556000,11.94555615234375,0.22794058918952942,-0.5609479546546936,-0.02973131276667118
1725631346793590300,11.95559033203125,0.21073974668979645,-0.25611141324043274,0.035927120596170425
1725631346803624200,11.965624267578125,0.24761679768562317,0.03704027831554413,0.11388929933309555
1725631346813659100,11.9756591796875,0.3279966413974762,0.27081793546676636,0.18202410638332367
1725631346823693300,11.985693359375,0.4267953634262085,0.33589521050453186,0.24746382236480713
1725631346833727200,11.995727294921876,0.5503224730491638,0.16386495530605316,0.36838269233703613
1725631346843762200,12.00576220703125,0.6516807675361633,0.01720520295202732,0.48880285024642944
1725631346853796400,12.01579638671875,0.6743081212043762,0.0426403246819973,0.5364696383476257
1725631346863830000,12.025830078125,0.6351990699768066,0.1123616173863411,0.5239248275756836
1725631346873864200,12.0358642578125,0.5838755369186401,0.2048218697309494,0.4440520107746124
1725631346883899100,12.045899169921874,0.5060057640075684,0.36639586091041565,0.3132263422012329
1725631346893933300,12.055933349609376,0.4122830331325531,0.5226613879203796,0.17525777220726013
1725631346903967200,12.06596728515625,0.3230959177017212,0.6670012474060059,0.053043182939291
1725631346914001200,12.076001220703125,0.34224382042884827,0.7964815497398376,-0.10479045659303665
1725631346924036400,12.086036376953125,0.5557563900947571,0.6817424297332764,-0.24686530232429504
1725631346934070000,12.096070068359374,0.7664507627487183,0.487692266702652,-0.29995912313461304
1725631346944104200,12.106104248046876,0.8306624889373779,0.4538048803806305,-0.2483167201280594
1725631346954139100,12.11613916015625,0.8189005255699158,0.595116138458252,-0.16043870151042938
1725631346964173300,12.12617333984375,0.781885027885437,0.7644476294517517,-0.05531227961182594
1725631346974207200,12.136207275390625,0.8165706992149353,0.8692865967750549,0.03267734870314598
1725631346984241200,12.1462412109375,0.94309002161026,0.8223853707313538,0.08128590136766434
1725631346994276400,12.1562763671875,1.0317572355270386,0.7406712770462036,0.09273513406515121
1725631347004310000,12.16631005859375,1.007495641708374,0.5856433510780334,0.09628751873970032
1725631347014344200,12.17634423828125,0.9522839188575745,0.30560657382011414,0.10246716439723969
1725631347024378400,12.18637841796875,0.8198041915893555,0.08250239491462708,0.07907741516828537
1725631347034413000,12.1964130859375,0.6559958457946777,-0.13061679899692535,0.01389550045132637
1725631347044447200,12.206447265625,0.4776754081249237,-0.3937184810638428,-0.039382368326187134
1725631347054481200,12.216481201171876,0.26324859261512756,-0.5635900497436523,-0.06590825319290161
1725631347064515000,12.22651513671875,0.020235391333699226,-0.5972186326980591,-0.06625393033027649
1725631347074550300,12.23655029296875,-0.16759125888347626,-0.5184109210968018,-0.04166335240006447
1725631347084584200,12.246584228515625,-0.2953862249851227,-0.3792356848716736,-0.004080023616552353
1725631347094618400,12.256618408203124,-0.40279534459114075,-0.23763735592365265,0.08190952241420746
1725631347104653000,12.266653076171876,-0.4784453511238098,-0.17874501645565033,0.18485109508037567
1725631347114687200,12.276687255859375,-0.5456945896148682,-0.23677711188793182,0.31382209062576294
1725631347124721400,12.286721435546875,-0.5980861783027649,-0.2754928171634674,0.4479737877845764
1725631347134755000,12.296755126953125,-0.603070855140686,-0.2867066264152527,0.5123114585876465
1725631347144790300,12.306790283203124,-0.6007558107376099,-0.21126140654087067,0.47469356656074524
1725631347154824200,12.31682421875,-0.6279813647270203,-0.11583426594734192,0.37245988845825195
1725631347164858000,12.326858154296875,-0.7128571271896362,0.004748338367789984,0.2575082778930664
1725631347174893000,12.33689306640625,-0.8101502060890198,0.10036849975585938,0.18455083668231964
1725631347184927200,12.34692724609375,-0.8629851937294006,0.22295087575912476,0.16189318895339966
1725631347194961400,12.35696142578125,-0.8390463590621948,0.16501052677631378,0.17279787361621857
1725631347204996000,12.36699609375,-0.7123209238052368,-0.07150135934352875,0.19621878862380981
1725631347215030300,12.3770302734375,-0.5713556408882141,-0.2628322243690491,0.20829012989997864
1725631347225064200,12.387064208984375,-0.46188077330589294,-0.41936299204826355,0.16202570497989655
1725631347235098000,12.39709814453125,-0.3940468728542328,-0.5459004044532776,0.0559711717069149
1725631347245133000,12.407133056640625,-0.3791094720363617,-0.5415493249893188,-0.04406994208693504
1725631347255167200,12.417167236328124,-0.41884317994117737,-0.45398423075675964,-0.08030102401971817
1725631347265201200,12.427201171875,-0.4735304117202759,-0.2426711916923523,-0.09744831919670105
1725631347275235000,12.437235107421875,-0.5156567692756653,-0.03219084069132805,-0.11910974234342575
1725631347285270300,12.447270263671875,-0.5078182816505432,0.10183646529912949,-0.13635584712028503
1725631347295304200,12.45730419921875,-0.46305736899375916,0.2487245351076126,-0.1364118605852127
1725631347305338000,12.467338134765624,-0.4174262285232544,0.35747870802879333,-0.13442806899547577
1725631347315373000,12.477373046875,-0.38088321685791016,0.27514326572418213,-0.12454576045274734
1725631347325407200,12.4874072265625,-0.32801443338394165,0.20460782945156097,-0.09719962626695633
1725631347335441200,12.497441162109375,-0.305156409740448,0.21043573319911957,-0.08253051340579987
