time,seconds_elapsed,z,y,x
1725892469672692200,0.041692138671875,0,0,0
1725892469691540200,0.060540283203125,0.056446075439453125,0.028862476348876953,0.010717511177062988
1725892469710388500,0.079388427734375,0.25015830993652344,0.036309242248535156,-0.002325892448425293
1725892469729236500,0.098236572265625,0.04668140411376953,-0.07999277114868164,-0.030793190002441406
1725892469748084700,0.117084716796875,0.050749778747558594,-0.08583784103393555,-0.01794499158859253
1725892469766933000,0.13593310546875,0.13239097595214844,-0.2720155715942383,0.06799823045730591
1725892469785781200,0.15478125,0.41637134552001953,-1.1482000350952148,0.2430802881717682
1725892469804629200,0.173629150390625,0.5127124786376953,0.1120905876159668,-0.025500208139419556
1725892469823477500,0.1924775390625,1.3064851760864258,-0.08138418197631836,0.08271664381027222
1725892469842325800,0.21132568359375,0.4772787094116211,-0.5337343215942383,0.04295907914638519
1725892469861173800,0.230173828125,-0.056328773498535156,-0.10902881622314453,-0.1924220472574234
1725892469880022000,0.24902197265625,-1.4339113235473633,0.45552968978881836,-0.7033366560935974
1725892469898870000,0.2678701171875,-2.502769947052002,0.8321013450622559,-0.5727243423461914
1725892469917718300,0.28671826171875,-2.5800046920776367,0.409393310546875,-0.09948848187923431
1725892469936566500,0.30556640625,-1.7410507202148438,0.10633277893066406,0.05055248737335205
1725892469955414800,0.324414794921875,-0.15328311920166016,-0.014154911041259766,0.08140644431114197
1725892469974262800,0.3432626953125,0.8658733367919922,-0.19587993621826172,0.7561164498329163
1725892469993111000,0.362111083984375,0.6468400955200195,0.027846336364746094,0.14723151922225952
1725892470011959300,0.380959228515625,1.6881113052368164,0.9944262504577637,0.7501897215843201
1725892470030807300,0.399807373046875,0.5578927993774414,0.05240154266357422,-0.18561705946922302
1725892470049655600,0.418655517578125,-0.46163082122802734,-0.1621570587158203,-0.21810221672058105
1725892470068503600,0.437503662109375,-0.5801525115966797,0.8862271308898926,-0.13118350505828857
1725892470087351800,0.456351806640625,-0.38277626037597656,0.9848747253417969,0.18619531393051147
1725892470106200000,0.475199951171875,-0.5067481994628906,0.38881540298461914,0.45983612537384033
1725892470125048300,0.49404833984375,-0.9362201690673828,0.5101351737976074,1.1451935768127441
1725892470143896300,0.512896240234375,-0.4817981719970703,0.7910642623901367,0.9874760508537292
1725892470162744600,0.53174462890625,0.2511100769042969,1.0105781555175781,-0.019761770963668823
1725892470181592800,0.5505927734375,0.4887723922729492,0.926816463470459,-0.7006072998046875
1725892470200440800,0.56944091796875,0.5897016525268555,-0.7396049499511719,0.9922837018966675
1725892470219289000,0.5882890625,1.2189369201660156,0.034110069274902344,1.1861944198608398
1725892470238137000,0.60713720703125,1.8362627029418945,0.7397656440734863,0.2247987985610962
1725892470256985300,0.6259853515625,1.3176822662353516,1.111314296722412,-0.2823781967163086
1725892470275833600,0.64483349609375,0.6452560424804688,1.7886700630187988,-0.345605731010437
1725892470294681900,0.663681884765625,0.9178495407104492,4.022058963775635,-1.0055394172668457
1725892470313529900,0.68252978515625,0.07138729095458984,3.865584373474121,-1.528774619102478
1725892470332378000,0.701378173828125,2.23880672454834,3.6297659873962402,1.2440093755722046
1725892470351226400,0.720226318359375,2.039870262145996,1.4287447929382324,3.809844732284546
1725892470370074400,0.739074462890625,-3.2658395767211914,2.159158706665039,4.37535285949707
1725892470388922600,0.757922607421875,-1.3331332206726074,2.2549996376037598,-0.11202067136764526
1725892470407771000,0.77677099609375,-2.6284408569335938,2.650385856628418,-3.162813663482666
1725892470426619000,0.795618896484375,-0.1264486312866211,0.033405303955078125,-2.5353622436523438
1725892470445467100,0.814467041015625,0.15212249755859375,-0.4649181365966797,-4.066976070404053
1725892470464315100,0.833315185546875,-1.310509204864502,-2.500668525695801,-5.539928913116455
1725892470483163400,0.852163330078125,-4.062788963317871,-3.1147561073303223,-7.973774433135986
1725892470502011600,0.87101171875,-5.184748649597168,-4.59304141998291,-9.02988052368164
1725892470520860000,0.88985986328125,-4.025663375854492,-4.604422569274902,-8.620023727416992
1725892470539708000,0.9087080078125,-1.5304385423660278,-4.843769073486328,-6.744779109954834
1725892470558556200,0.92755615234375,-1.0389652252197266,-5.562018871307373,-4.9803314208984375
1725892470577404400,0.946404296875,1.2076236009597778,-4.165865898132324,-2.9807968139648438
1725892470596252400,0.96525244140625,3.2524731159210205,-4.383037567138672,-1.880690574645996
1725892470615100700,0.9841005859375,6.013787269592285,-3.7770073413848877,0.5199699401855469
1725892470633948700,1.00294873046875,5.911600112915039,-1.5296664237976074,2.621969223022461
1725892470652797000,1.021796875,5.837320804595947,-1.0488827228546143,4.410680770874023
1725892470671645200,1.040645263671875,4.287126541137695,-0.4734952449798584,4.133018493652344
1725892470690493200,1.0594931640625,3.7441933155059814,0.37483930587768555,3.458287239074707
1725892470709341400,1.078341552734375,5.11588191986084,0.5133330821990967,3.2716684341430664
1725892470728189700,1.097189697265625,2.5715692043304443,1.7994167804718018,5.531070709228516
1725892470747038000,1.116037841796875,0.9499806761741638,0.9487645626068115,3.6262693405151367
1725892470765886000,1.134885986328125,-1.4337894916534424,1.1140244007110596,3.3662986755371094
1725892470784734200,1.153734130859375,-1.0005919933319092,-0.29957079887390137,6.102726936340332
1725892470803582200,1.172582275390625,18.432241439819336,1.9059505462646484,2.6408214569091797
1725892470822430500,1.191430419921875,-4.619738578796387,-3.703251600265503,5.027202606201172
1725892470841278700,1.21027880859375,-0.7563667297363281,-0.14866876602172852,-2.1133766174316406
1725892470860126700,1.229126708984375,-1.2006351947784424,0.7628788948059082,-0.04097938537597656
1725892470878975000,1.24797509765625,0.09621453285217285,2.4533374309539795,-0.37256336212158203
1725892470897823200,1.2668232421875,-0.8825843334197998,2.35501766204834,-0.5176782608032227
1725892470916671500,1.28567138671875,0.30425333976745605,3.436554193496704,0.2526359558105469
1725892470935523000,1.304523193359375,-0.8323404788970947,-0.4298288822174072,-1.404139518737793
1725892470954367700,1.32336767578125,-0.09635305404663086,-0.29972124099731445,-0.4126148223876953
1725892470973215700,1.3422158203125,-0.2189617156982422,-0.12467622756958008,-0.32717323303222656
1725892470992064000,1.36106396484375,-0.8533433675765991,0.036415815353393555,-0.865199089050293
1725892471010912300,1.379912353515625,-0.6972649097442627,0.2461254596710205,-1.0199813842773438
1725892471029760300,1.39876025390625,-0.8238410949707031,0.5072369575500488,-2.4726648330688477
1725892471048608500,1.4176083984375,2.8892769813537598,3.2686209678649902,-1.3649072647094727
1725892471067456800,1.436456787109375,2.2452492713928223,3.038984537124634,0.5120849609375
1725892471086305000,1.455304931640625,-1.347530722618103,-0.05698585510253906,-1.313460350036621
1725892471105153000,1.474153076171875,-1.0945504903793335,1.198784589767456,-1.09930419921875
1725892471124001300,1.493001220703125,1.1328709125518799,3.0093636512756348,1.4055395126342773
1725892471142849300,1.511849365234375,-0.6379537582397461,2.082392454147339,-1.7559814453125
1725892471161697500,1.530697509765625,-2.7085816860198975,0.9438521862030029,0.24820995330810547
1725892471180593000,1.549593017578125,-2.1044323444366455,0.28333401679992676,0.3856191635131836
1725892471199394000,1.56839404296875,-1.8463926315307617,4.653017520904541,-2.5400733947753906
1725892471218242000,1.587241943359375,-1.8658418655395508,2.520909309387207,-0.8243293762207031
1725892471237090300,1.60609033203125,-1.9862964153289795,0.28659749031066895,-1.213268756866455
1725892471255938600,1.6249384765625,-2.0393998622894287,0.37491464614868164,-2.9530553817749023
1725892471274786800,1.643786865234375,-0.3995485305786133,1.0894196033477783,-1.068110466003418
1725892471293634800,1.662634765625,-0.11944103240966797,0.2536613941192627,-1.5030450820922852
1725892471312483000,1.681483154296875,0.21573162078857422,-1.0629186630249023,0.2977151870727539
1725892471331331300,1.700331298828125,-1.2639691829681396,-2.858466863632202,0.44063854217529297
1725892471350179300,1.719179443359375,-1.0577304363250732,-1.4161932468414307,-2.9946460723876953
1725892471369027600,1.738027587890625,-1.6514570713043213,-0.9380583763122559,-3.6287927627563477
1725892471387875800,1.756875732421875,-0.36641764640808105,-0.6679582595825195,-2.9824209213256836
1725892471406724000,1.77572412109375,2.2302215099334717,-0.9119718074798584,-1.834381103515625
1725892471425572000,1.794572021484375,-1.863844871520996,-7.244065284729004,1.5919666290283203
1725892471444420400,1.81342041015625,-2.536891460418701,-5.757473945617676,-0.7133393287658691
1725892471463268600,1.8322685546875,0.966285228729248,-2.2889108657836914,-3.1297407150268555
1725892471482116600,1.85111669921875,2.2415342330932617,-1.2912821769714355,-3.316433906555176
1725892471500964900,1.86996484375,5.56781005859375,0.3605501651763916,-1.3477153778076172
1725892471519813000,1.888813232421875,2.171299457550049,-0.42914533615112305,3.767550468444824
1725892471538661400,1.907661376953125,1.8898589611053467,-1.5095195770263672,4.609035491943359
1725892471557509400,1.92650927734375,2.154529571533203,-5.8519158363342285,3.0497913360595703
1725892471576357600,1.945357666015625,6.945119380950928,3.1533591747283936,0.04746055603027344
1725892471595206000,1.964205810546875,6.30598783493042,3.411968231201172,10.89391040802002
1725892471614054000,1.983053955078125,2.9534144401550293,-2.3810105323791504,5.1900482177734375
1725892471632902100,2.001902099609375,-4.86424446105957,1.8213257789611816,-2.1250600814819336
1725892471651750400,2.02075048828125,-1.4938971996307373,-1.2742009162902832,-4.837024211883545
1725892471670598700,2.0395986328125,-1.5392487049102783,2.3402042388916016,-0.5612144470214844
1725892471689446700,2.05844677734375,3.2150750160217285,-2.6796317100524902,3.495896339416504
1725892471708295000,2.077294921875,-1.2237327098846436,-0.3975715637207031,2.1348276138305664
1725892471727143200,2.09614306640625,3.0203359127044678,3.9272351264953613,3.7225160598754883
1725892471745991400,2.114991455078125,-0.5092684030532837,-0.6229147911071777,2.4423484802246094
1725892471764839400,2.13383935546875,-0.7601017951965332,2.13577938079834,-4.813854217529297
1725892471783687700,2.152687744140625,-2.750455856323242,-1.5126981735229492,-0.08168411254882812
1725892471802536000,2.171535888671875,0.5537611246109009,5.154025077819824,-0.011799812316894531
1725892471821384200,2.19038427734375,8.154986381530762,2.27423095703125,4.964679718017578
1725892471840232200,2.209232177734375,1.9942833185195923,0.8229506015777588,-1.0711441040039062
1725892471859080400,2.22808056640625,2.1166739463806152,5.004840850830078,-0.46970558166503906
1725892471877928700,2.2469287109375,-0.8927792310714722,-0.052211761474609375,3.0348663330078125
1725892471896777000,2.26577685546875,-1.949357032775879,1.110363483428955,-2.637115001678467
1725892471915625000,2.284625,-0.6776735186576843,8.075186729431152,2.296588897705078
1725892471934473200,2.30347314453125,-0.35278353095054626,-0.8335418701171875,-0.5931396484375
1725892471953321500,2.322321533203125,2.6311795711517334,2.490363121032715,-4.158885955810547
1725892471972169700,2.341169677734375,-2.0236408710479736,2.582538366317749,4.195833206176758
1725892471991017700,2.360017822265625,-1.5644148588180542,-1.0034160614013672,-1.917902946472168
1725892472009866000,2.378865966796875,-1.959913730621338,3.044651746749878,-4.243808746337891
1725892472028714200,2.39771435546875,-8.822508811950684,5.4505510330200195,1.1001996994018555
1725892472047562500,2.4165625,0.5671678781509399,4.913150310516357,-0.06281089782714844
1725892472066410800,2.43541064453125,-7.149377346038818,2.0487937927246094,-1.0901918411254883
1725892472085258800,2.4542587890625,0.030773401260375977,-2.0546016693115234,-4.940633773803711
1725892472104107000,2.47310693359375,-1.563612937927246,3.2796683311462402,3.8321027755737305
1725892472122955300,2.491955322265625,-0.05327257513999939,-0.3462514877319336,-1.287064552307129
1725892472141803500,2.510803466796875,-2.519325017929077,5.895028114318848,-1.004521369934082
1725892472160651800,2.52965185546875,-1.447927713394165,0.8261909484863281,3.0289487838745117
1725892472179500000,2.5485,2.6984453201293945,-1.8440377712249756,0.000347137451171875
1725892472198348000,2.56734814453125,-3.678647041320801,3.5694973468780518,-1.7148704528808594
1725892472217196300,2.5861962890625,2.0705714225769043,0.18291378021240234,-1.3496265411376953
1725892472236044500,2.60504443359375,-3.7207717895507812,-0.7205030918121338,5.497213363647461
1725892472254892800,2.623892822265625,-3.5258655548095703,1.7293667793273926,-5.888398170471191
1725892472273741000,2.642740966796875,1.060455322265625,-9.140357971191406,0.034056663513183594
1725892472292589000,2.661589111328125,-5.333240509033203,-0.7056000232696533,2.0508737564086914
1725892472311437300,2.680437255859375,7.998783111572266,-2.7654342651367188,0.73187255859375
1725892472330285600,2.69928564453125,7.3627095222473145,-1.165027141571045,-0.6798305511474609
1725892472349133800,2.7181337890625,9.738896369934082,-2.3605618476867676,3.2004432678222656
1725892472367982000,2.736982177734375,3.609877109527588,-0.7129819393157959,2.586404800415039
1725892472386830300,2.755830322265625,-0.03684967756271362,-1.3930482864379883,1.1487207412719727
1725892472405678300,2.77467822265625,-0.1758936494588852,-2.366192102432251,0.33841514587402344
1725892472424526600,2.793526611328125,-2.5387356281280518,-6.427562236785889,1.6795949935913086
1725892472443374800,2.812374755859375,1.9206267595291138,-3.905836582183838,-4.256880283355713
1725892472462223000,2.83122314453125,5.258607387542725,-6.258632183074951,3.113840103149414
1725892472481071400,2.8500712890625,2.3375155925750732,-3.9500391483306885,-2.285529136657715
1725892472499919600,2.868919677734375,10.231803894042969,-0.43364620208740234,3.692167282104492
1725892472518767600,2.887767578125,3.7531490325927734,-5.100688934326172,0.10833072662353516
1725892472537616000,2.906615966796875,1.5739623308181763,-1.2509318590164185,-3.0253868103027344
1725892472556464000,2.925464111328125,-5.759941101074219,-0.2530815601348877,-3.0483527183532715
1725892472575312400,2.9443125,-9.887442588806152,7.534252166748047,1.4406366348266602
1725892472594160600,2.96316064453125,-12.984339714050293,-0.6486126184463501,1.8754749298095703
1725892472613009000,2.9820087890625,-0.8771175742149353,-1.695305585861206,2.8343544006347656
1725892472631857000,3.00085693359375,15.674758911132812,3.2071382999420166,-0.5350265502929688
1725892472650705200,3.019705078125,-3.1559669971466064,-1.826855182647705,-2.296462059020996
1725892472669553400,3.038553466796875,-5.1536149978637695,2.4541852474212646,-2.3573293685913086
1725892472688402000,3.05740185546875,-1.298325538635254,6.211322784423828,6.963188171386719
1725892472707250000,3.07625,1.8644108772277832,-0.15286898612976074,3.3464174270629883
1725892472726098200,3.09509814453125,0.831937313079834,8.138134956359863,0.034186363220214844
1725892472744946400,3.113946533203125,-8.229272842407227,2.862410545349121,3.9794931411743164
1725892472763794700,3.132794677734375,-1.1706442832946777,-1.1261813640594482,-5.162088394165039
1725892472782643000,3.151642822265625,7.264429092407227,5.151947498321533,-0.1817779541015625
1725892472801491000,3.170490966796875,-1.6241044998168945,1.5838727951049805,-0.919825553894043
1725892472820339200,3.189339111328125,2.8958029747009277,4.386440277099609,-4.496554374694824
1725892472839187500,3.2081875,0.834251880645752,2.666534423828125,-1.1877222061157227
1725892472858035700,3.22703564453125,4.831384658813477,-1.6524670124053955,0.9346094131469727
1725892472876884000,3.245884033203125,2.2344729900360107,-0.5027706623077393,0.7407712936401367
1725892472895732200,3.264732177734375,-11.178913116455078,-0.04662346839904785,-2.300353527069092
1725892472914580500,3.28358056640625,2.979761838912964,-6.8512372970581055,3.202512741088867
1725892472933428700,3.3024287109375,8.531240463256836,-5.713139533996582,-3.4217896461486816
1725892472952276700,3.32127685546875,-8.274665832519531,1.1574714183807373,0.5116891860961914
1725892472971125000,3.340125,-4.240306854248047,-4.672422409057617,-2.292294979095459
1725892472989973200,3.35897314453125,10.034143447875977,0.2367696762084961,-0.2904195785522461
1725892473008821500,3.377821533203125,2.66001296043396,-4.203470706939697,0.47852516174316406
1725892473027669800,3.396669677734375,-4.143444061279297,-0.5212705135345459,-0.8259286880493164
1725892473046518000,3.41551806640625,-4.765024185180664,0.2843754291534424,0.046952247619628906
1725892473065366300,3.4343662109375,2.4806766510009766,-4.002717018127441,2.4259557723999023
1725892473084214500,3.453214599609375,3.5860302448272705,-0.962468147277832,-0.0798501968383789
1725892473103062800,3.472062744140625,-4.909618377685547,4.936313629150391,-1.0899572372436523
1725892473121911000,3.4909111328125,-3.0673165321350098,-0.39638781547546387,8.737980842590332
1725892473140759300,3.50975927734375,9.215126991271973,2.486292839050293,9.734382629394531
1725892473159607300,3.528607177734375,4.7815446853637695,-0.9040355682373047,3.7530927658081055
1725892473178455600,3.54745556640625,11.523947715759277,-4.397069454193115,5.788863182067871
1725892473197303800,3.5663037109375,8.429396629333496,-5.723836898803711,1.5217323303222656
1725892473216152000,3.585152099609375,5.4429473876953125,-6.44719123840332,1.5250658988952637
1725892473235000300,3.604000244140625,6.187400817871094,-3.6483991146087646,2.885087490081787
1725892473253848600,3.6228486328125,1.2840461730957031,-6.148221492767334,0.43253278732299805
1725892473272696800,3.64169677734375,-2.8383636474609375,-5.487971782684326,-3.0999484062194824
1725892473291545000,3.660545166015625,-4.83418083190918,-5.775972366333008,-3.218261957168579
1725892473310393300,3.679393310546875,-5.587175369262695,-5.620863914489746,-1.6832847595214844
1725892473329241600,3.69824169921875,-4.327509880065918,-6.636453151702881,0.09583044052124023
1725892473348089900,3.71708984375,-6.913592338562012,-6.398544788360596,0.37816309928894043
1725892473366938000,3.735938232421875,-7.429615020751953,-3.6883745193481445,-0.0340578556060791
1725892473385786400,3.754786376953125,-6.109238624572754,-1.309030532836914,-0.022190093994140625
1725892473404634600,3.773634521484375,-5.61435604095459,-1.9264068603515625,-0.19717931747436523
1725892473423483000,3.79248291015625,-4.994131088256836,-1.795536994934082,-0.9080417156219482
1725892473442331100,3.8113310546875,-4.401812553405762,-1.936875343322754,-0.7421283721923828
1725892473461179400,3.830179443359375,-4.714194297790527,-2.1450839042663574,-1.1567214727401733
1725892473480027600,3.849027587890625,-4.047084808349609,-1.1028928756713867,-0.31761837005615234
1725892473498875600,3.867875732421875,-4.003947734832764,-1.5643653869628906,1.059892177581787
1725892473517724200,3.88672412109375,-2.7452261447906494,-0.21499204635620117,1.3138861656188965
1725892473536572200,3.905572265625,-1.3543086051940918,-0.7007474899291992,1.7184834480285645
1725892473555420400,3.92442041015625,0.9259419441223145,0.3726835250854492,3.5184693336486816
1725892473574268700,3.9432685546875,3.219674587249756,1.0594143867492676,4.902161598205566
1725892473593117000,3.962116943359375,2.985414981842041,0.9629907608032227,3.7762465476989746
1725892473611965200,3.980965087890625,2.509964942932129,1.615755319595337,3.0199217796325684
1725892473630813400,3.9998134765625,4.094815731048584,2.121936798095703,1.3649072647094727
1725892473649661700,4.01866162109375,4.058382511138916,3.1824569702148438,1.769014835357666
1725892473668510000,4.037510009765625,3.237527370452881,2.095548152923584,1.4959869384765625
1725892473687358200,4.056358154296875,4.0474162101745605,2.6993372440338135,3.1510496139526367
1725892473706206500,4.07520654296875,2.877279281616211,-1.177502989768982,1.1246166229248047
1725892473725054700,4.0940546875,2.0116939544677734,-1.397914171218872,0.4814138412475586
1725892473743903000,4.112903076171875,2.5774474143981934,0.23628771305084229,0.45018482208251953
1725892473762751200,4.131751220703125,2.288024425506592,0.26167991757392883,0.28774452209472656
1725892473781599500,4.150599609375,2.5206196308135986,-0.5156688690185547,0.07368755340576172
1725892473800447700,4.16944775390625,1.8421971797943115,-0.8433458209037781,-0.7341423034667969
1725892473819296000,4.1882958984375,1.711585521697998,-0.7061575055122375,-0.7527170181274414
1725892473838144300,4.207144287109375,0.5774176120758057,-1.0734692811965942,-1.4797401428222656
1725892473856992500,4.225992431640625,0.8526461124420166,-2.543574094772339,-0.824397087097168
1725892473875840800,4.2448408203125,1.3193316459655762,-1.2807031869888306,-0.7244033813476562
1725892473894689000,4.26368896484375,0.7173242568969727,-1.0528666973114014,-0.8870153427124023
1725892473913537300,4.282537353515625,0.5132052898406982,-0.7945523262023926,-1.0123167037963867
1725892473932385500,4.301385498046875,0.7735595703125,-0.3427075743675232,-0.7421836853027344
1725892473951233800,4.32023388671875,0.6054496765136719,-0.029514014720916748,-0.8008966445922852
1725892473970082000,4.33908203125,0.16333270072937012,0.03544420003890991,-0.4589681625366211
1725892473988930300,4.357930419921875,0.16002142429351807,-0.08742868900299072,0.5538969039916992
1725892474007778600,4.376778564453125,0.35304760932922363,-0.12973296642303467,1.4809865951538086
1725892474026626800,4.395626708984375,0.6028211116790771,0.03586900234222412,1.1039419174194336
1725892474045475000,4.41447509765625,0.5473428964614868,0.4135093092918396,0.8592433929443359
1725892474064330200,4.433330322265625,0.32944929599761963,0.5002087950706482,0.8128395080566406
1725892474083179000,4.452178955078125,0.4572770595550537,0.590221643447876,0.8363428115844727
1725892474102019800,4.471019775390625,0.9473526477813721,0.869667649269104,1.0351390838623047
1725892474120868000,4.4898681640625,0.6764544248580933,0.9676648378372192,1.5037946701049805
1725892474139716400,4.50871630859375,0.1097419261932373,1.3932045698165894,2.563447952270508
1725892474158564600,4.527564697265625,-1.8582980632781982,2.8046107292175293,4.497174263000488
1725892474177412900,4.546412841796875,-2.447425127029419,2.962893486022949,1.940744400024414
1725892474196261000,4.56526123046875,-2.0601465702056885,2.479456663131714,1.1724615097045898
1725892474215109400,4.584109375,-0.9095280766487122,0.30932939052581787,-0.9908828735351562
1725892474233957600,4.60295751953125,0.8365745544433594,0.5146424770355225,0.18749046325683594
1725892474252806000,4.621805908203125,1.532631516456604,-0.9050464630126953,0.05518817901611328
1725892474271654100,4.640654052734375,2.504680633544922,-1.2470020055770874,-0.5199184417724609
1725892474290502400,4.65950244140625,2.097214698791504,-1.6511642932891846,-0.9457721710205078
1725892474309350700,4.6783505859375,1.126548171043396,-1.3915200233459473,-0.998661994934082
1725892474328199000,4.697198974609375,-0.782750129699707,-1.9870613813400269,0.6800107955932617
1725892474347047200,4.716047119140625,-0.15644562244415283,2.2656283378601074,-1.7871227264404297
1725892474365895400,4.7348955078125,-0.9346191883087158,-0.4303027391433716,-0.2890615463256836
1725892474384744000,4.753743896484375,0.321475625038147,-0.47921842336654663,-0.30377769470214844
1725892474403592000,4.772592041015625,0.18835151195526123,-2.4041833877563477,1.3422002792358398
1725892474422440400,4.7914404296875,0.6990936994552612,-0.10686218738555908,-1.5418729782104492
1725892474441288700,4.810288818359375,1.0456690788269043,-0.5018465518951416,-1.0201473236083984
1725892474460137000,4.829136962890625,0.9155473709106445,0.10870110988616943,-0.5698308944702148
1725892474478985200,4.847985107421875,0.6176462173461914,0.6530637741088867,-0.1568603515625
1725892474497833500,4.86683349609375,-0.04498791694641113,0.11570453643798828,0.07060527801513672
1725892474516681700,4.885681640625,-0.16015267372131348,-0.17359328269958496,0.032596588134765625
1725892474535530000,4.904530029296875,-1.7100722789764404,-0.8570997714996338,0.21413040161132812
1725892474554378200,4.923378173828125,-2.598036289215088,-1.6157137155532837,-0.6159534454345703
1725892474573226500,4.9422265625,-0.23325729370117188,-0.8372129201889038,0.4687671661376953
1725892474592074800,4.96107470703125,1.5958213806152344,-0.023245811462402344,1.501607894897461
1725892474610923000,4.979923095703125,3.102637529373169,0.36605238914489746,1.2358274459838867
1725892474629771300,4.998771240234375,2.874094247817993,0.6727535724639893,-0.6473598480224609
1725892474648619500,5.01761962890625,0.4087512493133545,0.4855220317840576,-1.4025464057922363
1725892474667467800,5.0364677734375,0.6649260520935059,0.49391865730285645,0.45009899139404297
1725892474686316000,5.05531591796875,0.9707484245300293,2.31939435005188,1.9592008590698242
1725892474705164300,5.074164306640625,1.1505370140075684,0.15171504020690918,1.0507292747497559
1725892474724012500,5.093012451171875,0.716498851776123,-1.6902222633361816,2.158278465270996
1725892474742860800,5.11186083984375,1.0332369804382324,-0.9952378273010254,0.24807167053222656
1725892474761709300,5.130709228515625,1.3666505813598633,-0.957463264465332,-0.8715810775756836
1725892474780557600,5.1495576171875,1.4129729270935059,-0.9332642555236816,1.2058792114257812
1725892474799405800,5.16840576171875,-0.4324312210083008,-2.227905750274658,-0.058089256286621094
1725892474818254000,5.187254150390625,-2.510310173034668,-2.156848907470703,-1.7668664455413818
1725892474837104600,5.206104736328125,-2.1115660667419434,-1.8456361293792725,-3.434864044189453
1725892474855950600,5.22495068359375,-1.3216338157653809,-2.6444199085235596,-3.0618555545806885
1725892474874798800,5.243798828125,-1.2436094284057617,-1.9338512420654297,-0.3906083106994629
1725892474893647000,5.262647216796875,-0.5534482002258301,-2.501889228820801,1.5009770393371582
1725892474912495400,5.281495361328125,1.4061908721923828,-2.2716588973999023,1.4137859344482422
1725892474931343600,5.300343505859375,0.7516932487487793,-1.0522587299346924,0.474700927734375
1725892474950191900,5.31919189453125,0.3511672019958496,-0.19233083724975586,-0.5873770713806152
1725892474969040100,5.3380400390625,1.15232515335083,0.18495893478393555,-0.005159854888916016
1725892474987888400,5.356888427734375,0.7851028442382812,0.22919011116027832,2.2205429077148438
1725892475006736600,5.375736572265625,-0.5668807029724121,1.2717506885528564,0.830106258392334
1725892475025585000,5.3945849609375,-0.9515438079833984,2.5265796184539795,-3.8972702026367188
1725892475044433400,5.413433349609375,0.23347139358520508,0.24611788988113403,-3.187136650085449
1725892475063281400,5.432281494140625,-3.4588027000427246,-1.376196026802063,-0.7146129608154297
1725892475082130000,5.4511298828125,-2.321674346923828,-1.1466261148452759,1.4022111892700195
1725892475100978200,5.469978271484375,-3.468411922454834,-0.017706096172332764,1.544114112854004
1725892475119826400,5.488826416015625,0.10603618621826172,-0.08210474252700806,0.870722770690918
1725892475138674700,5.5076748046875,-0.0345768928527832,-0.869348406791687,0.8736276626586914
1725892475157523000,5.52652294921875,-0.26474952697753906,-1.535698652267456,0.25101375579833984
1725892475176371200,5.54537109375,-1.5458564758300781,-2.560676336288452,-0.021602630615234375
1725892475195219500,5.564219482421875,1.4726109504699707,0.10445189476013184,0.8951635360717773
1725892475214067700,5.583067626953125,-0.679734468460083,-0.880446195602417,0.716832160949707
1725892475232916000,5.601916015625,1.5638409852981567,0.006954669952392578,-2.3056650161743164
1725892475251764200,5.62076416015625,-1.0410728454589844,-0.19835829734802246,-3.455087661743164
1725892475270612700,5.63961279296875,1.1003973484039307,1.608677625656128,-3.3594465255737305
1725892475289461000,5.6584609375,4.105869293212891,0.09515237808227539,-3.2097864151000977
1725892475308309200,5.677309326171875,2.523866891860962,-0.6858558654785156,-0.10370635986328125
1725892475327157500,5.696157470703125,1.3268336057662964,3.858869791030884,1.4621429443359375
1725892475346005800,5.715005859375,-1.1191112995147705,4.293267250061035,2.5404396057128906
1725892475364854000,5.73385400390625,-1.6347126960754395,3.557361125946045,3.3392248153686523
1725892475383702300,5.752702392578125,-2.0215914249420166,-0.29200267791748047,2.135467529296875
1725892475402550500,5.771550537109375,0.2269653081893921,0.05318880081176758,0.8072690963745117
1725892475421398800,5.790398681640625,1.1973400115966797,-0.9033184051513672,0.007443428039550781
1725892475440247000,5.8092470703125,1.9749610424041748,-0.9262967109680176,-0.11271190643310547
1725892475459095600,5.828095458984375,1.9881184101104736,-0.6694684028625488,-1.6638851165771484
1725892475477943800,5.84694384765625,1.086335301399231,-1.1095600128173828,-1.8595390319824219
1725892475496792000,5.8657919921875,1.0220015048980713,-0.9356865882873535,-2.081000328063965
1725892475515640300,5.884640380859375,1.0160633325576782,-1.6479406356811523,-2.187692642211914
1725892475534488600,5.903488525390625,0.09192204475402832,-0.614844799041748,-1.252645492553711
1725892475553336800,5.9223369140625,0.31094837188720703,1.248412847518921,-0.884526252746582
1725892475572185000,5.94118505859375,0.9341899156570435,0.5302143096923828,0.19484901428222656
1725892475591033300,5.960033447265625,0.442979097366333,-0.583775520324707,0.38961219787597656
1725892475609881900,5.9788818359375,0.9462494850158691,-1.5200529098510742,2.284174919128418
1725892475628729900,5.997729736328125,0.6501731872558594,-1.9206976890563965,3.4831132888793945
1725892475647578400,6.016578369140625,-0.8696613311767578,-5.8545074462890625,4.558748245239258
1725892475666426600,6.035426513671875,-0.12204885482788086,0.8384647369384766,-2.6821956634521484
1725892475685275000,6.05427490234375,2.9176864624023438,1.3202576637268066,-1.938279151916504
1725892475704123100,6.073123046875,1.260817289352417,-3.955834150314331,1.385519027709961
1725892475722971400,6.091971435546875,0.24768972396850586,-2.549710512161255,-0.34743595123291016
1725892475741819600,6.110819580078125,-0.157181978225708,-1.0073909759521484,0.04410839080810547
1725892475760668000,6.12966796875,-0.6802682876586914,-1.8090381622314453,1.337986946105957
1725892475779516400,6.148516357421875,-0.13687562942504883,-1.4341449737548828,1.4087715148925781
1725892475798364700,6.16736474609375,-0.5127253532409668,-1.5543832778930664,-0.011820793151855469
1725892475817213000,6.186212890625,-1.0684020519256592,-1.958569049835205,0.6077671051025391
1725892475836061200,6.205061279296875,0.20735621452331543,-1.8654556274414062,1.2882165908813477
1725892475854909400,6.223909423828125,1.2710938453674316,-0.9853711128234863,-0.40691089630126953
1725892475873757700,6.2427578125,0.1489424705505371,-0.1388692855834961,-1.4150333404541016
1725892475892606000,6.26160595703125,0.22973966598510742,0.16530990600585938,-0.974421501159668
1725892475911454500,6.280454345703125,0.34451770782470703,0.4847862720489502,-0.4431447982788086
1725892475930302700,6.299302734375,-0.7103023529052734,2.2074804306030273,-1.2626724243164062
1725892475949151000,6.31815087890625,1.0139508247375488,1.8242628574371338,-0.5023746490478516
1725892475967999200,6.336999267578125,0.7660837173461914,1.6729865074157715,-0.7900471687316895
1725892475986847500,6.355847412109375,-0.6123294830322266,2.2442331314086914,-1.2966461181640625
1725892476005695700,6.37469580078125,-0.2334299087524414,1.345362663269043,-0.3912534713745117
1725892476024544000,6.3935439453125,-0.2364356517791748,1.1349246501922607,-0.18771839141845703
1725892476043392300,6.412392333984375,-0.8893206119537354,0.47251367568969727,-0.08358001708984375
1725892476062240800,6.43124072265625,-0.6662321090698242,-0.015615701675415039,0.45931243896484375
1725892476081089000,6.450089111328125,-0.27771878242492676,-0.04031062126159668,0.2844514846801758
1725892476099937300,6.468937255859375,-0.6583216190338135,-0.2379617691040039,-0.4910392761230469
1725892476118785500,6.48778564453125,0.1526322364807129,-0.4057495594024658,0.11574363708496094
1725892476137633800,6.5066337890625,-0.013279199600219727,-0.060044050216674805,-0.39804553985595703
1725892476156482000,6.52548193359375,-0.3413078784942627,0.33961915969848633,-0.7849512100219727
1725892476175330300,6.544330322265625,-0.6045958995819092,0.7324745655059814,-0.4777851104736328
1725892476194178800,6.5631787109375,0.09627771377563477,0.11945796012878418,-0.40154075622558594
1725892476213027000,6.582027099609375,0.14891624450683594,-0.47298240661621094,0.27104759216308594
1725892476231875300,6.600875244140625,-0.1009066104888916,-0.3150348663330078,-0.03487396240234375
1725892476250723600,6.6197236328125,-0.7209374904632568,-0.630241870880127,0.09319496154785156
1725892476269571800,6.63857177734375,-0.7584545612335205,-1.0062649250030518,-0.6264867782592773
1725892476288420000,6.657420166015625,-0.13384199142456055,-0.7404003143310547,-1.0005855560302734
1725892476307268600,6.6762685546875,1.2348544597625732,-0.5163054466247559,-0.6058855056762695
1725892476326116900,6.695116943359375,0.823397159576416,1.137563705444336,-0.14373207092285156
1725892476344965000,6.713965087890625,0.13155841827392578,0.9328243732452393,1.9010505676269531
1725892476363813400,6.7328134765625,-1.0432507991790771,1.2534189224243164,0.5601558685302734
1725892476382661600,6.75166162109375,-0.6015579700469971,-0.019019603729248047,0.023771286010742188
1725892476401510000,6.770510009765625,0.4568216800689697,-0.4606893062591553,0.16939163208007812
1725892476420358400,6.7893583984375,0.3647751808166504,-0.7681267261505127,0.545445442199707
1725892476439206700,6.80820654296875,0.049474477767944336,-0.7938785552978516,0.8765182495117188
1725892476458055000,6.827054931640625,0.8575429916381836,-1.2065553665161133,-0.022194862365722656
1725892476476903200,6.845903076171875,1.2848179340362549,-1.4314370155334473,-0.9832487106323242
1725892476495751400,6.86475146484375,2.3240180015563965,-1.1876754760742188,-1.6390790939331055
1725892476514599700,6.883599609375,0.6844611167907715,-0.018897533416748047,-2.1505165100097656
1725892476533448200,6.9024482421875,0.5269708633422852,0.4152829647064209,-1.2009248733520508
1725892476552296400,6.92129638671875,1.1781861782073975,-0.2608988285064697,-0.7588682174682617
1725892476571144700,6.940144775390625,-0.03462529182434082,-0.3031463623046875,0.27756214141845703
1725892476589993000,6.958992919921875,1.1996378898620605,0.4251391887664795,-0.9963626861572266
1725892476608841200,6.97784130859375,1.0490357875823975,-1.0502102375030518,-1.0751829147338867
1725892476627689500,6.996689453125,1.823580026626587,-0.39253759384155273,0.5511808395385742
1725892476646538000,7.0155380859375,1.4733097553253174,0.10672569274902344,-0.16907691955566406
1725892476665386200,7.03438623046875,0.21893024444580078,-0.6288771629333496,-0.8813972473144531
1725892476684234500,7.053234375,-1.1250884532928467,-1.6594979763031006,-0.7009544372558594
1725892476703082800,7.072082763671875,-0.6904191970825195,-1.4545643329620361,-1.4440031051635742
1725892476721931000,7.090930908203125,-0.3519110679626465,-0.22175025939941406,-1.6773509979248047
1725892476740779500,7.109779541015625,0.2962164878845215,0.00823068618774414,-1.1133317947387695
1725892476759627800,7.128627685546875,0.2545311450958252,-1.1484336853027344,-0.5026016235351562
1725892476778476000,7.14747607421875,-0.17861294746398926,-1.7498576641082764,0.04106712341308594
1725892476797324300,7.16632421875,-0.15808320045471191,-1.8827359676361084,-0.07198333740234375
1725892476816172500,7.185172607421875,0.26622891426086426,-2.7952396869659424,0.2297830581665039
1725892476835020800,7.204020751953125,-0.5955479145050049,-2.402163505554199,1.0714826583862305
1725892476853869300,7.222869384765625,0.953944206237793,-1.850541114807129,0.4985771179199219
1725892476872717600,7.241717529296875,0.49580109119415283,-2.521035671234131,1.0619287490844727
1725892476891572200,7.260572265625,-0.8322067260742188,-0.6690101623535156,0.7044029235839844
1725892476910415600,7.27941552734375,-0.9107968807220459,-0.7598471641540527,0.3523378372192383
1725892476929262600,7.2982626953125,-0.9660913944244385,-0.7451183795928955,0.7569265365600586
1725892476948110800,7.31711083984375,-0.4730280637741089,1.4184634685516357,-0.1584911346435547
1725892476966959000,7.335958984375,0.6170976161956787,1.4346413612365723,-1.811880111694336
1725892476985807400,7.354807373046875,-0.46125292778015137,2.1027169227600098,-1.6715569496154785
1725892477004655600,7.373655517578125,-0.3514975309371948,1.9948861598968506,-1.7502961158752441
1725892477023504000,7.39250390625,0.2484750747680664,1.2139135599136353,-2.337231159210205
1725892477042352400,7.411352294921875,-0.27959227561950684,0.006001949310302734,-0.5495405197143555
1725892477061200600,7.43020068359375,0.25530266761779785,0.05536532402038574,0.5596446990966797
1725892477080049000,7.449048828125,-0.19316625595092773,-0.013571500778198242,0.3138694763183594
1725892477098897200,7.467897216796875,-1.4918270111083984,-0.3940446376800537,1.8585186004638672
1725892477117745400,7.486745361328125,-1.4197602272033691,-0.01311039924621582,0.9952363967895508
1725892477136594000,7.505593994140625,0.32443416118621826,-0.6728246212005615,-0.14344406127929688
1725892477155442200,7.524442138671875,0.14080214500427246,-0.43197059631347656,0.011078834533691406
1725892477174290400,7.54329052734375,-0.8315037488937378,0.5983242988586426,-0.03421306610107422
1725892477193138700,7.562138671875,0.2150130271911621,-0.08364176750183105,1.422637939453125
1725892477211987000,7.580987060546875,-0.8924821615219116,-0.47486138343811035,1.2337102890014648
1725892477230835500,7.59983544921875,-1.4141020774841309,0.21714043617248535,-1.165818214416504
1725892477249683700,7.61868359375,-0.5676426887512207,0.3570277690887451,-2.7125253677368164
1725892477268532000,7.637531982421875,0.5775202512741089,0.9449713230133057,-4.063899993896484
1725892477287380200,7.656380126953125,-0.2599978446960449,2.154451847076416,-3.299685001373291
1725892477306228700,7.675228759765625,-1.182563304901123,3.38521409034729,-4.761551856994629
1725892477325077000,7.694076904296875,1.0184231996536255,-5.027021408081055,1.2953472137451172
1725892477343925200,7.71292529296875,2.5760669708251953,-4.846198081970215,3.6549367904663086
1725892477362773500,7.7317734375,-0.5872998237609863,-1.7390468120574951,4.004741668701172
1725892477381621800,7.750621826171875,-1.5798790454864502,-3.198378086090088,3.7757253646850586
1725892477400470300,7.76947021484375,0.19618260860443115,-4.788476943969727,0.8954935073852539
1725892477419318500,7.788318603515625,4.677762985229492,-6.453775882720947,-1.2615880966186523
1725892477438166800,7.807166748046875,3.7247090339660645,-4.4019269943237305,0.41023826599121094
1725892477457015000,7.82601513671875,-1.071660041809082,-2.0992112159729004,0.23989295959472656
1725892477475863300,7.84486328125,-3.578711748123169,-0.24541759490966797,-2.600449562072754
1725892477494711800,7.8637119140625,-2.02878999710083,-0.02776813507080078,-4.022363662719727
1725892477513560000,7.88256005859375,1.3070037364959717,1.951681137084961,-0.5627937316894531
1725892477532408300,7.901408203125,3.604177951812744,3.0628414154052734,0.8397221565246582
1725892477551256600,7.920256591796875,4.298388481140137,7.23935079574585,-11.672825813293457
1725892477570105000,7.93910498046875,0.4692007303237915,-1.2313508987426758,-0.7509546279907227
1725892477588953300,7.957953369140625,2.103177070617676,0.8914117813110352,8.650853157043457
1725892477607803100,7.97680322265625,-1.4869358539581299,0.14194202423095703,4.617600440979004
1725892477626649900,7.99564990234375,-2.891968011856079,0.4441804885864258,4.430773735046387
1725892477645498400,8.014498291015625,0.4618337154388428,-0.3912372589111328,1.7983207702636719
1725892477664346600,8.0333466796875,-0.242842435836792,0.9355297088623047,1.260206699371338
1725892477683195000,8.05219482421875,0.4553694725036621,1.528456687927246,-0.15040969848632812
1725892477702043100,8.071043212890626,1.5525836944580078,-3.218435287475586,-1.220409870147705
1725892477720891600,8.0898916015625,-2.0222554206848145,-0.5956315994262695,0.9663958549499512
1725892477739740000,8.108739990234374,-1.6367707252502441,-1.1779088973999023,2.486907482147217
1725892477758588200,8.127588134765626,-0.11600923538208008,-0.45777368545532227,2.9413552284240723
1725892477777436400,8.1464365234375,0.989933967590332,0.5077743530273438,0.6111125946044922
1725892477796284700,8.16528466796875,0.41144561767578125,-0.5261373519897461,-1.3961882591247559
1725892477815133200,8.18413330078125,0.6976680755615234,-1.3668646812438965,-1.1844768524169922
1725892477833981400,8.2029814453125,0.6549983024597168,-1.339785099029541,-2.414893388748169
1725892477852829700,8.22182958984375,-0.5732550621032715,-0.32692432403564453,-1.4904565811157227
1725892477871678000,8.240677978515626,0.4492349624633789,-1.6700129508972168,-1.895066261291504
1725892477890526200,8.259526123046875,0.6412053108215332,-1.4081168174743652,-1.2327995300292969
1725892477909374700,8.278374755859375,-0.1284046173095703,-0.7770562171936035,-1.2733254432678223
1725892477928223000,8.297222900390626,0.9615206718444824,-1.9200453758239746,-3.4192161560058594
1725892477947071200,8.3160712890625,0.9785256385803223,-3.0690622329711914,-2.270679473876953
1725892477965919500,8.33491943359375,-0.41162919998168945,-1.889791488647461,-1.5010809898376465
1725892477984768000,8.35376806640625,-2.023998260498047,-1.2103486061096191,-1.0160541534423828
1725892478003616300,8.3726162109375,1.3311562538146973,0.49651336669921875,-1.6636786460876465
1725892478022464500,8.391464599609375,0.9338788986206055,2.1832027435302734,-1.1938495635986328
1725892478041312800,8.410312744140626,0.9266457557678223,5.1317338943481445,5.384416103363037
1725892478060161300,8.429161376953125,0.8377056121826172,7.796119689941406,9.064752578735352
1725892478079009500,8.448009521484375,-0.2411637306213379,3.8897290229797363,2.6847472190856934
1725892478097857800,8.46685791015625,-2.2549071311950684,2.4469187259674072,1.3651986122131348
1725892478116706000,8.4857060546875,-1.8079867362976074,6.097062110900879,2.2477827072143555
1725892478135554600,8.504554443359375,-1.006688117980957,-0.04594230651855469,4.87693977355957
1725892478154402800,8.52340283203125,3.5172181129455566,-4.140818119049072,1.6948037147521973
1725892478173251000,8.5422509765625,1.2348971366882324,-4.774128437042236,-1.0543913841247559
1725892478192099300,8.561099365234375,2.1405577659606934,-4.497413635253906,-1.8140153884887695
1725892478210947600,8.579947509765624,0.7154030799865723,-5.2882866859436035,-3.9484100341796875
1725892478229796000,8.598796142578125,-0.714472770690918,-1.8437442779541016,-1.6793789863586426
1725892478248644400,8.617644287109375,0.9874787330627441,-3.199643135070801,-0.827826976776123
1725892478267492600,8.63649267578125,-0.6369247436523438,-0.8877978324890137,0.1089010238647461
1725892478286341000,8.655341064453125,0.022716522216796875,-0.010769844055175781,-1.1087284088134766
1725892478305189400,8.674189453125,-0.6456546783447266,-1.3772001266479492,-1.686169147491455
1725892478324037600,8.69303759765625,-0.8119640350341797,-0.4738502502441406,-0.02212810516357422
1725892478342886000,8.711885986328125,3.6061525344848633,-2.75162410736084,0.7057285308837891
1725892478361734100,8.730734130859375,0.5746078491210938,-1.5049550533294678,-0.3074307441711426
1725892478380582700,8.749582763671874,-0.7778778076171875,-1.7342288494110107,-1.3848161697387695
1725892478399431000,8.768430908203126,2.903093099594116,7.927616596221924,-5.5838623046875
1725892478418279200,8.787279052734375,0.5299777984619141,0.18169164657592773,-1.1710872650146484
1725892478437127700,8.806127685546874,0.8743624687194824,-0.6224284172058105,0.3294978141784668
1725892478455976000,8.824975830078126,-0.24292230606079102,0.5674700736999512,0.37640380859375
1725892478474824200,8.84382421875,0.7242550849914551,1.0245096683502197,-1.751810073852539
1725892478493672400,8.86267236328125,-0.04876136779785156,1.9636378288269043,0.08272314071655273
1725892478512520700,8.881520751953126,0.16868019104003906,0.7471723556518555,-0.6712064743041992
1725892478531369200,8.900369140625,-0.017895221710205078,-0.16080641746520996,-2.0750246047973633
1725892478550217500,8.919217529296875,-0.42015790939331055,0.561234712600708,-1.1773324012756348
1725892478569065700,8.938065673828126,0.3155198097229004,1.1821565628051758,-0.1739821434020996
1725892478587914200,8.956914306640625,-0.27847909927368164,1.6823534965515137,-1.3644390106201172
1725892478606762500,8.975762451171875,3.706395387649536,1.9000511169433594,-2.524746894836426
1725892478625610800,8.99461083984375,-0.05031776428222656,1.474081039428711,-0.20588970184326172
1725892478644459000,9.013458984375,-2.931227207183838,1.2215256690979004,0.5064477920532227
1725892478663307300,9.032307373046875,-1.7797222137451172,2.3255603313446045,-0.08089351654052734
1725892478682155800,9.05115576171875,0.18937253952026367,1.033970594406128,-1.1802282333374023
1725892478701004000,9.070004150390625,-0.3941364288330078,-0.3722810745239258,-2.133847236633301
1725892478719852300,9.088852294921875,-1.8950791358947754,1.6191534996032715,-0.6371936798095703
1725892478738700800,9.10770068359375,0.6803407669067383,1.2822251319885254,-0.013643264770507812
1725892478757549000,9.126549072265625,-0.4048881530761719,2.211099624633789,4.305111408233643
1725892478776397300,9.145397216796875,-0.649317741394043,2.590054512023926,4.125678062438965
1725892478795245600,9.16424560546875,0.5621886253356934,0.7010564804077148,0.2237706184387207
1725892478814093800,9.18309375,-0.8101358413696289,-1.0490632057189941,1.5308518409729004
1725892478832942300,9.2019423828125,0.2080078125,-2.09041166305542,2.1403326988220215
1725892478851790600,9.22079052734375,-0.7752175331115723,-3.4002485275268555,0.5151386260986328
1725892478870638800,9.239638916015625,-1.0618538856506348,-3.7553138732910156,-0.5431015491485596
1725892478889487400,9.2584873046875,0.9373087882995605,-2.5335006713867188,-0.9684107303619385
1725892478908335600,9.277335693359374,-1.279179573059082,-4.399815559387207,-2.5686676502227783
1725892478927184000,9.296183837890625,0.23659610748291016,-0.8855729103088379,-2.128675699234009
1725892478946032000,9.3150322265625,0.2534065246582031,-1.7475857734680176,-2.5022449493408203
1725892478964880400,9.33388037109375,-0.46404170989990234,-4.676275730133057,-1.6531944274902344
1725892478983729000,9.35272900390625,0.309234619140625,-2.199857234954834,0.6657805442810059
1725892479002577200,9.3715771484375,1.4531822204589844,2.1775407791137695,-2.807969093322754
1725892479021425400,9.39042529296875,-1.7125053405761719,-1.1120352745056152,2.487644672393799
1725892479040274000,9.40927392578125,1.4026377201080322,0.9509649276733398,-0.4275937080383301
1725892479059122200,9.4281220703125,0.08316469192504883,-1.030290126800537,-1.5639710426330566
1725892479077970400,9.446970458984374,0.6491668224334717,-2.1171932220458984,0.17383289337158203
1725892479096819000,9.46581884765625,1.634852409362793,1.618370532989502,-1.5782241821289062
1725892479115667200,9.484667236328125,0.7531256675720215,-1.1109991073608398,-0.5682759284973145
1725892479134515500,9.503515380859374,0.43285036087036133,-0.7953214645385742,-0.39843177795410156
1725892479153363700,9.52236376953125,-0.9689409732818604,0.38715648651123047,-0.5557751655578613
1725892479172212000,9.5412119140625,-0.4637620449066162,-0.5966277122497559,-1.3279142379760742
1725892479191060500,9.560060546875,1.1349024772644043,0.40401744842529297,-1.286569595336914
1725892479209908700,9.57890869140625,1.9258296489715576,3.0998082160949707,0.2828712463378906
1725892479228757000,9.597757080078125,1.7613370418548584,-0.2780022621154785,-0.6164150238037109
1725892479247605500,9.61660546875,-3.062884569168091,1.9285025596618652,1.1319103240966797
1725892479266453800,9.635453857421876,-1.202195644378662,3.5640933513641357,-0.33771610260009766
1725892479285302000,9.654302001953125,2.667720317840576,2.415072441101074,-0.257415771484375
1725892479304150300,9.673150390625,-0.0013599395751953125,0.16742563247680664,1.5246009826660156
1725892479322998800,9.691998779296876,-0.028903484344482422,0.4664487838745117,0.1613316535949707
1725892479341847000,9.710846923828125,-1.670947551727295,-3.4789862632751465,1.564770221710205
1725892479360695300,9.7296953125,-1.0556297302246094,-2.3145084381103516,-0.24551677703857422
1725892479379543600,9.74854345703125,-2.3400449752807617,-2.0569748878479004,0.22208070755004883
1725892479398392000,9.76739208984375,0.23582983016967773,-0.5157222747802734,1.0194625854492188
1725892479417240300,9.786240234375,-0.14777898788452148,-1.1549367904663086,1.4955382347106934
1725892479436088600,9.805088623046874,-1.2614173889160156,-1.1734724044799805,0.8404488563537598
1725892479454936800,9.823936767578125,-0.2585873603820801,-1.4663219451904297,-0.3418903350830078
1725892479473785300,9.842785400390625,-0.20413684844970703,-1.5147314071655273,1.7777490615844727
1725892479492633600,9.861633544921874,-0.24667835235595703,1.1703267097473145,0.5971765518188477
1725892479511481900,9.88048193359375,1.230036735534668,-0.20412874221801758,-0.5935192108154297
1725892479530330400,9.899330322265625,-0.15137290954589844,0.20413589477539062,0.9417910575866699
1725892479549178600,9.9181787109375,-0.14757585525512695,0.11330795288085938,-0.4845428466796875
1725892479568027000,9.93702685546875,0.5909328460693359,-1.3177385330200195,-0.6401948928833008
1725892479586875100,9.955875244140625,-0.5829854011535645,-1.1846418380737305,-0.2272043228149414
1725892479605723400,9.974723388671874,-1.407336711883545,-1.7807807922363281,-0.3515787124633789
1725892479624572000,9.993572021484376,-0.4273524284362793,-1.839982032775879,1.8587498664855957
1725892479643420200,10.012420166015625,-0.41158103942871094,-0.5120086669921875,-0.8370327949523926
1725892479662268400,10.031268310546874,0.9065876007080078,-0.9573488235473633,-1.671159267425537
1725892479681117000,10.050116943359376,0.14350080490112305,-0.6773214340209961,0.22137022018432617
1725892479699965200,10.068965087890625,-0.23384714126586914,-1.4779658317565918,-1.0407991409301758
1725892479718813400,10.0878134765625,-0.2129225730895996,-0.9801826477050781,-0.1343522071838379
1725892479737662000,10.106661865234376,1.707613468170166,0.28696632385253906,-0.6342124938964844
1725892479756510200,10.12551025390625,1.8206844329833984,2.0948219299316406,-1.3167438507080078
1725892479775358500,10.1443583984375,-0.33432579040527344,2.2834420204162598,-0.12262344360351562
1725892479794206700,10.163206787109376,0.5170769691467285,2.390122175216675,0.7946004867553711
1725892479813055200,10.18205517578125,-0.36188364028930664,2.073146104812622,0.1593341827392578
1725892479831903500,10.200903564453125,0.4262833595275879,-0.44127535820007324,1.0050740242004395
1725892479850751700,10.219751708984376,2.026838779449463,-0.23516225814819336,-1.3690733909606934
1725892479869600000,10.23860009765625,0.5362176895141602,1.0856003761291504,-1.4093947410583496
1725892479888448500,10.257448486328125,0.14875221252441406,1.3481335639953613,0.34615659713745117
1725892479907296800,10.276296875,0.8341755867004395,0.8973388671875,0.3533954620361328
1725892479926145000,10.29514501953125,-0.03376007080078125,1.1274912357330322,0.7141079902648926
1725892479944993500,10.31399365234375,-0.14387178421020508,-0.5239317417144775,-1.09075927734375
1725892479963841800,10.332841796875,0.38741588592529297,-0.4887199401855469,-1.6036391258239746
1725892479982690000,10.35168994140625,-0.4403858184814453,-1.4079809188842773,0.02271890640258789
1725892480001538300,10.370538330078125,2.489344835281372,-0.4809553623199463,0.5912666320800781
1725892480020386800,10.38938671875,2.019749641418457,1.1431024074554443,-2.8270082473754883
1725892480039235000,10.408235107421875,-1.9386200904846191,-0.8298518657684326,-0.6303324699401855
1725892480058083300,10.427083251953125,2.4053144454956055,1.501863956451416,0.7910780906677246
1725892480076931600,10.445931640625,1.8020234107971191,3.0935940742492676,-4.268346309661865
1725892480095780000,10.464780029296875,-2.229257583618164,1.2254595756530762,-0.9615778923034668
1725892480114628400,10.48362841796875,0.9070420265197754,1.2417359352111816,0.4606971740722656
1725892480133476600,10.5024765625,0.9022922515869141,2.0698556900024414,-1.6579442024230957
1725892480152324900,10.521324951171875,-1.7082576751708984,1.0696663856506348,-2.366544246673584
1725892480171173400,10.54017333984375,-0.5365800857543945,-1.35658597946167,0.5830321311950684
1725892480190021600,10.559021728515624,0.4373493194580078,-1.4158062934875488,0.7447924613952637
1725892480208870000,10.577869873046875,0.42659950256347656,-0.7834997177124023,-0.5632686614990234
1725892480227718100,10.59671826171875,0.3774724006652832,0.21870756149291992,-1.060560703277588
1725892480246566700,10.615566650390624,0.1106729507446289,0.17739057540893555,-0.15871286392211914
1725892480265415000,10.634414794921875,0.29268360137939453,0.45630407333374023,-1.1570348739624023
1725892480284263200,10.65326318359375,0.4476919174194336,-0.6099514961242676,-1.4242472648620605
1725892480303111400,10.672111328125,-2.114065647125244,-2.5106329917907715,-0.1201481819152832
1725892480321960000,10.6909599609375,0.9594058990478516,-3.2443389892578125,1.8645358085632324
1725892480340808200,10.70980810546875,0.00003337860107421875,-3.912581443786621,1.749783992767334
1725892480359656400,10.728656494140624,-0.9955687522888184,-2.7356839179992676,2.540926456451416
1725892480378505000,10.7475048828125,1.454068899154663,-2.9763126373291016,1.7583231925964355
1725892480397353200,10.766353271484375,-0.5657978057861328,-3.721721649169922,1.287358283996582
1725892480416201500,10.785201416015624,0.3311915397644043,-1.3564281463623047,0.4891090393066406
1725892480435049700,10.8040498046875,-0.9410037994384766,0.05547046661376953,-2.0101304054260254
1725892480453898000,10.82289794921875,-2.335151195526123,-1.6386852264404297,-1.471848964691162
1725892480472746500,10.84174658203125,0.5539464950561523,-3.215622901916504,0.27461719512939453
1725892480491594800,10.8605947265625,-0.03501415252685547,5.567600250244141,1.3658909797668457
1725892480510443000,10.879443115234375,0.11270952224731445,6.892054080963135,1.3697552680969238
1725892480529291500,10.89829150390625,0.4079408645629883,8.444249153137207,1.9102654457092285
1725892480548139800,10.917139892578126,0.9788355827331543,4.378080368041992,1.8823432922363281
1725892480566988000,10.935988037109375,1.8759522438049316,4.501287460327148,0.43939685821533203
1725892480585836500,10.95483642578125,-0.04239988327026367,4.515003204345703,1.7342944145202637
1725892480604684800,10.973684814453126,0.2512955665588379,12.2798490524292,0.07543420791625977
1725892480623533000,10.992532958984375,0.16297006607055664,6.48128604888916,0.6375446319580078
1725892480642381300,11.01138134765625,-0.46569252014160156,5.9843926429748535,0.9405126571655273
1725892480661229600,11.0302294921875,1.6550564765930176,1.869328498840332,1.006533145904541
1725892480680078000,11.049078125,3.876601219177246,-2.5057244300842285,4.983372211456299
1725892480698926300,11.06792626953125,-0.1676006317138672,-5.153738021850586,-0.35668325424194336
1725892480717774600,11.086774658203124,-1.2057723999023438,-3.3626465797424316,-1.3521370887756348
1725892480736623000,11.105623046875,4.7817511558532715,-3.57464599609375,-2.1209654808044434
1725892480755471400,11.124471435546875,1.9662175178527832,-3.4667582511901855,0.5690679550170898
1725892480774319600,11.143319580078124,1.0068340301513672,3.447575569152832,-1.284022331237793
1725892480793168000,11.16216796875,0.523836612701416,0.4480595588684082,0.6276576519012451
1725892480812016400,11.181016357421875,1.6720986366271973,-0.35030698776245117,-0.6769769191741943
1725892480830864600,11.19986474609375,-0.19965362548828125,-8.4376802444458,-0.11148881912231445
1725892480849713000,11.218712890625,-1.440673828125,-8.596466064453125,-1.08310866355896
1725892480868561400,11.2375615234375,-4.010147571563721,-6.959173202514648,-0.9376919269561768
1725892480887409700,11.25640966796875,-2.8089170455932617,-9.104703903198242,-1.7398648262023926
1725892480906258000,11.2752578125,-0.5557260513305664,-6.027681827545166,-1.3213214874267578
1725892480925106200,11.294106201171875,0.48821449279785156,-3.7888646125793457,0.02408766746520996
1725892480943954400,11.312954345703124,1.3748464584350586,-0.24068880081176758,1.6933648586273193
1725892480962803000,11.331802978515626,0.5287694931030273,-2.484358310699463,-1.1681292057037354
1725892480981651200,11.350651123046875,4.112102508544922,4.7820234298706055,-1.212763786315918
1725892481000499500,11.36949951171875,2.970400333404541,9.562911987304688,1.2877168655395508
1725892481019348000,11.388347900390626,0.9297995567321777,6.346102237701416,2.7213528156280518
1725892481038196200,11.4071962890625,-1.6595110893249512,0.04312944412231445,2.1446452140808105
1725892481057044500,11.42604443359375,-1.0511093139648438,-2.1798243522644043,2.0310347080230713
1725892481075893000,11.44489306640625,-0.6452093124389648,-1.170241355895996,0.08272147178649902
1725892481094741200,11.4637412109375,0.20605134963989258,0.4732232093811035,-0.3291318416595459
1725892481113589500,11.482589599609375,0.657928466796875,0.5545845031738281,0.07636833190917969
1725892481132438000,11.50143798828125,0.6066322326660156,0.5078349113464355,0.3937034606933594
1725892481151286000,11.5202861328125,-0.1801767349243164,-0.46132850646972656,2.0879509449005127
1725892481170134500,11.539134521484375,-0.3823075294494629,-0.8153400421142578,0.8168578147888184
1725892481188982800,11.557982666015626,0.7224817276000977,-0.7752261161804199,-0.6026785373687744
1725892481207831000,11.5768310546875,-0.2996225357055664,-1.7766714096069336,3.0089685916900635
1725892481226679600,11.595679443359375,1.7507843971252441,-1.979435920715332,1.837231159210205
1725892481245527800,11.61452783203125,1.5081491470336914,0.870267391204834,0.4557211399078369
1725892481264376000,11.6333759765625,0.7403674125671387,0.97835373878479,-0.16226792335510254
1725892481283224600,11.652224609375,1.7895455360412598,0.03574085235595703,-2.462761163711548
1725892481302072800,11.67107275390625,-0.04360198974609375,-0.5364656448364258,-0.8392431735992432
1725892481320921000,11.689921142578125,1.2838382720947266,-1.6862115859985352,-0.7203390598297119
1725892481339769300,11.708769287109375,1.6344099044799805,-0.6197171211242676,-2.1975865364074707
1725892481358617600,11.72761767578125,0.06180572509765625,-0.7337408065795898,-1.1979854106903076
1725892481377466000,11.746466064453125,3.045370101928711,-0.9031836986541748,-0.4895505905151367
1725892481396314400,11.765314453125,0.02051067352294922,1.1187105178833008,-1.7673667669296265
1725892481415162600,11.78416259765625,1.8846287727355957,0.17513251304626465,1.3182625770568848
1725892481434011100,11.80301123046875,3.9765968322753906,-0.555974006652832,-3.405838966369629
1725892481452859400,11.821859375,-1.4744253158569336,-0.2082505226135254,-0.24060630798339844
1725892481471707600,11.840707763671874,1.515486717224121,1.7921462059020996,-2.0834436416625977
1725892481490556000,11.859555908203125,-1.127985954284668,1.8110251426696777,-0.5376808643341064
1725892481509404400,11.878404296875,3.9270849227905273,-1.524721384048462,0.7312579154968262
1725892481528252700,11.897252685546874,-2.313213348388672,0.24248814582824707,-4.692600250244141
1725892481547101000,11.916100830078125,-0.7228937149047852,0.8238799571990967,2.5054030418395996
1725892481565949200,11.93494921875,3.4252376556396484,-0.1167294979095459,-0.18097448348999023
1725892481584797700,11.953797607421874,0.8022904396057129,0.5960988998413086,-2.660059690475464
1725892481603646000,11.97264599609375,2.254439353942871,1.5696368217468262,-1.1522340774536133
1725892481622494200,11.991494140625,0.7598662376403809,1.983159065246582,-4.177828311920166
1725892481641342500,12.010342529296874,-0.6511373519897461,4.000308036804199,-2.216952323913574
1725892481660191000,12.02919091796875,1.955988883972168,2.0943732261657715,-1.2212867736816406
1725892481679039200,12.048039306640625,0.11747264862060547,0.9522604942321777,-2.511507987976074
1725892481697887500,12.066887451171874,-0.26059961318969727,0.8421540260314941,-0.9997801780700684
1725892481716735700,12.08573583984375,0.22301149368286133,0.37260961532592773,-0.11123323440551758
1725892481735584300,12.104584228515625,-1.7635984420776367,-0.21900129318237305,-1.131540298461914
1725892481754432500,12.1234326171875,-1.0576591491699219,-0.17644834518432617,0.12338066101074219
1725892481773280800,12.14228076171875,0.47341203689575195,-1.1511759757995605,1.1583209037780762
1725892481792129000,12.16112890625,-1.716444969177246,0.7920184135437012,-1.204700231552124
1725892481810977500,12.1799775390625,-0.9156498908996582,3.1465516090393066,-0.39891910552978516
1725892481829825800,12.19882568359375,0.23517847061157227,2.706088066101074,-0.041838645935058594
1725892481848674000,12.217674072265625,-0.8430547714233398,-0.929107666015625,2.2476961612701416
1725892481867522300,12.236522216796875,1.5500364303588867,-4.195714473724365,2.5548102855682373
1725892481886370800,12.255370849609376,-0.8104629516601562,-1.6623764038085938,1.9787304401397705
1725892481905219000,12.274218994140625,-1.099966049194336,-0.3752021789550781,1.1236841678619385
1725892481924067300,12.2930673828125,-0.7856950759887695,-1.3254246711730957,0.0974729061126709
1725892481942915600,12.31191552734375,-1.3384575843811035,-3.430384635925293,0.7326064109802246
1725892481961764000,12.33076416015625,1.4615497589111328,-2.9596729278564453,-0.39641284942626953
1725892481980612400,12.3496123046875,-1.9908015727996826,-0.19908523559570312,-1.417272925376892
1725892481999460600,12.368460693359374,-0.8598825931549072,0.1555013656616211,-0.9973561763763428
1725892482018308900,12.387308837890625,-0.47089672088623047,-0.797027587890625,0.36769914627075195
1725892482037157400,12.406157470703125,-0.4560079574584961,-1.972783088684082,1.7032787799835205
1725892482056005600,12.425005615234374,-1.1785931587219238,-0.5299739837646484,-0.5191299915313721
1725892482074854000,12.44385400390625,-0.73406982421875,0.06964683532714844,-0.6006317138671875
1725892482093702100,12.4627021484375,0.24617362022399902,-0.5526237487792969,0.7719905376434326
1725892482112550700,12.481550537109374,-0.4356062412261963,-2.294501304626465,1.5237362384796143
1725892482131399000,12.50039892578125,-1.0390541553497314,-2.258251190185547,-1.1269007921218872
1725892482150247200,12.5192470703125,-0.6119883060455322,-0.24463176727294922,-1.44789719581604
1725892482169095400,12.538095458984374,-0.05098414421081543,0.3294563293457031,-0.5891990661621094
1725892482187944000,12.55694384765625,-0.7537388801574707,-1.3932342529296875,-0.1542825698852539
1725892482206792200,12.575792236328125,-0.5982894897460938,-3.481926918029785,0.35614752769470215
1725892482225640400,12.594640380859374,-1.1824450492858887,-2.4074878692626953,-2.214930534362793
1725892482244488700,12.61348876953125,-0.4235219955444336,0.13852310180664062,0.02027583122253418
1725892482263337200,12.632337158203125,0.48535633087158203,-0.1976156234741211,0.9927091598510742
1725892482282185500,12.651185546875,0.9153060913085938,-1.4051380157470703,0.5818839073181152
1725892482301033700,12.67003369140625,1.0670616626739502,-0.3827934265136719,0.0044956207275390625
1725892482319882000,12.688882080078125,1.0280041694641113,0.6717476844787598,-1.4140985012054443
1725892482338730500,12.70773046875,0.24508428573608398,1.4493117332458496,-0.3882308006286621
1725892482357578800,12.726578857421876,0.10856866836547852,-0.4196810722351074,1.0469441413879395
1725892482376427000,12.745427001953125,0.5041923522949219,-0.15317726135253906,1.823087453842163
1725892482395275300,12.764275146484374,0.22886276245117188,-0.001674652099609375,0.7555787563323975
1725892482414123800,12.783123779296876,-0.5797524452209473,0.8305907249450684,-1.1181200742721558
1725892482432972000,12.801971923828125,0.013178825378417969,1.733701229095459,0.9533252716064453
1725892482451820300,12.8208203125,-1.4296436309814453,1.4935026168823242,0.4926791191101074
1725892482470668500,12.83966845703125,-1.9725384712219238,0.5444517135620117,4.3680925369262695
1725892482489517000,12.85851708984375,-1.6821560859680176,-0.6057929992675781,3.745565176010132
1725892482508365300,12.877365234375,0.550560474395752,0.4057464599609375,3.0546743869781494
1725892482527213600,12.896213623046876,1.2891607284545898,1.5894670486450195,1.457920789718628
1725892482546062000,12.91506201171875,0.7885136604309082,1.591592788696289,-0.003055572509765625
1725892482564910000,12.93391015625,0.2461390495300293,-0.2773885726928711,0.900299072265625
1725892482583758600,12.952758544921876,0.8468480110168457,-2.6038036346435547,-0.28289103507995605
1725892482602606800,12.97160693359375,2.2589945793151855,0.44727230072021484,-0.8856920003890991
1725892482621455000,12.990455078125,0.4118061065673828,0.6284656524658203,-1.5266667604446411
1725892482640303600,13.0093037109375,-0.8508105278015137,-0.3797922134399414,0.08248472213745117
1725892482659152000,13.02815185546875,0.4522848129272461,-3.973632335662842,0.9251840114593506
1725892482678000000,13.047000244140625,-0.3626270294189453,-3.201328754425049,1.9545214176177979
1725892482696848400,13.065848388671874,-1.2893743515014648,-2.5670166015625,0.09286355972290039
1725892482715696600,13.084696533203125,0.4488067626953125,-1.5210351943969727,0.26372599601745605
1725892482734545200,13.103545166015625,2.032956123352051,-0.8349261283874512,-0.5694200992584229
1725892482753393400,13.122393310546874,0.022397994995117188,0.9352974891662598,-0.4481947422027588
1725892482772241700,13.14124169921875,0.007860183715820312,0.15454435348510742,-0.25928807258605957
1725892482791090200,13.160090087890625,1.1232943534851074,-0.7893741130828857,0.8167088031768799
1725892482809938400,13.1789384765625,4.30424165725708,-0.6189842224121094,0.6554553508758545
1725892482828786700,13.19778662109375,4.445329666137695,1.9023555517196655,-2.797985792160034
1725892482847635000,13.216635009765625,1.9195594787597656,3.7273976802825928,-3.252481460571289
1725892482866483200,13.235483154296874,2.7957558631896973,1.3419699668884277,-2.1171751022338867
1725892482885331700,13.254331787109376,-0.21361446380615234,-0.19199037551879883,-0.42881083488464355
1725892482904180000,13.273179931640625,4.227601051330566,1.422070026397705,0.024835586547851562
1725892482923028200,13.2920283203125,1.019033432006836,2.061596155166626,-3.233302116394043
1725892482941876500,13.31087646484375,-1.386397361755371,1.989227294921875,-2.640625476837158
1725892482960725000,13.32972509765625,0.6592588424682617,0.9171979427337646,0.527306318283081
1725892482979573200,13.3485732421875,2.7072668075561523,1.3969306945800781,0.655968427658081
1725892482998421500,13.36742138671875,0.3332786560058594,2.012770652770996,-1.2708663940429688
1725892483017269800,13.386269775390625,-1.1642379760742188,3.1442036628723145,-1.2719829082489014
1725892483036118300,13.4051181640625,-0.2675895690917969,2.2208383083343506,0.9591107368469238
1725892483054966500,13.423966552734376,2.186722755432129,-0.4649348258972168,1.2856736183166504
1725892483073814800,13.442814697265625,-0.025130271911621094,-1.4907560348510742,-0.1762385368347168
1725892483092663000,13.4616630859375,-0.48136377334594727,-1.1370949745178223,-1.4652748107910156
1725892483111511600,13.480511474609376,-1.1964335441589355,0.01760244369506836,-1.7041664123535156
1725892483130359800,13.49935986328125,1.4995455741882324,-0.9384326934814453,0.28415584564208984
1725892483149208000,13.5182080078125,-1.7176666259765625,-0.014579296112060547,-1.437380075454712
1725892483168056300,13.537056396484376,-0.41841697692871094,0.502591609954834,-1.9812228679656982
1725892483186904800,13.55590478515625,-0.48001718521118164,0.23930883407592773,-0.8305425643920898
1725892483205753000,13.574753173828125,1.362715721130371,-3.243253231048584,2.306717872619629
1725892483224601300,13.593601318359376,0.3812532424926758,-3.054734706878662,1.1328761577606201
1725892483243449600,13.61244970703125,-3.113746166229248,-0.8897533416748047,-1.5422762632369995
1725892483262298000,13.631298095703125,0.19443559646606445,0.3080430030822754,1.3395326137542725
1725892483281146400,13.650146484375,1.7711923122406006,-2.3853759765625,3.2782299518585205
1725892483299994600,13.66899462890625,0.5477786064147949,-2.5850000381469727,0.5208601951599121
1725892483318843000,13.6878427734375,-0.5480971336364746,-0.8649940490722656,-0.4211888313293457
1725892483337691100,13.706691162109376,-0.6096863746643066,0.4072761535644531,-1.7725927829742432
1725892483356539600,13.72553955078125,-0.5899538993835449,-1.728367805480957,1.194153070449829
1725892483375388000,13.744387939453125,-1.842329978942871,-2.8129806518554688,1.517096757888794
1725892483394236200,13.763236083984374,-2.911472797393799,-4.0696611404418945,0.6404194831848145
1725892483413084700,13.782084716796875,-2.8260064125061035,-5.245274543762207,2.172663927078247
1725892483431933000,13.800932861328125,-2.4804067611694336,-4.221591949462891,1.6954576969146729
1725892483450781200,13.81978125,-2.680675983428955,-1.955423355102539,-0.33784985542297363
1725892483469629400,13.83862939453125,-1.410973072052002,-1.2632369995117188,1.8017382621765137
1725892483488477700,13.857477783203125,-0.27782440185546875,-2.7401275634765625,1.72768235206604
1725892483507326200,13.876326171875,-0.2451763153076172,-2.2847018241882324,-0.5603547096252441
1725892483526174500,13.895174560546875,1.1678552627563477,-1.0910720825195312,-1.7707587480545044
1725892483545022700,13.914022705078125,2.297834873199463,0.36511850357055664,-2.0176539421081543
1725892483563871200,13.932871337890624,1.9298200607299805,1.8242425918579102,-1.7885282039642334
1725892483582719500,13.951719482421876,2.7053706645965576,1.228956699371338,-1.4496415853500366
1725892483601567700,13.970567626953125,3.3126044273376465,0.5849676132202148,-0.1779470443725586
1725892483620416000,13.989416015625,2.8867030143737793,0.5713958740234375,0.3897063732147217
1725892483639264300,14.00826416015625,0.5479049682617188,1.5419888496398926,0.7618393898010254
1725892483658112800,14.02711279296875,-1.3424105644226074,0.5813531875610352,0.5489811897277832
1725892483676961000,14.0459609375,-1.2236037254333496,0.01969146728515625,0.6908645629882812
1725892483695809300,14.064809326171876,-0.6768884658813477,-0.45172739028930664,0.9637229442596436
1725892483714657500,14.083657470703125,-1.357346534729004,0.21637725830078125,1.1782293319702148
1725892483733505800,14.102505859375,-0.28592824935913086,0.2654142379760742,1.9602105617523193
1725892483752354300,14.121354248046876,0.20609331130981445,1.023271083831787,1.886899709701538
1725892483771202600,14.14020263671875,0.7215576171875,0.5379891395568848,1.8520045280456543
1725892483790050800,14.15905078125,0.8702578544616699,0.43909502029418945,0.05541419982910156
1725892483808899300,14.1778994140625,1.4179444313049316,-0.15866661071777344,-0.9944820404052734
1725892483827747600,14.19674755859375,0.7541637420654297,-0.7370514869689941,-0.6419267654418945
1725892483846595800,14.215595947265625,0.0795583724975586,-0.44844913482666016,0.3714940547943115
1725892483865444000,14.234444091796876,0.7533059120178223,-1.770115852355957,-0.11161470413208008
1725892483884292400,14.253292236328125,1.156876564025879,-0.2442936897277832,-0.8191318511962891
1725892483903140900,14.272140869140625,1.2449431419372559,0.020322322845458984,-0.911860466003418
1725892483921989000,14.290989013671876,-0.40763235092163086,1.0797429084777832,0.00894474983215332
1725892483940837400,14.30983740234375,-0.561342716217041,-0.7111048698425293,0.9830727577209473
1725892483959685600,14.328685546875,0.9440832138061523,-2.391977310180664,0.8624191284179688
1725892483978534100,14.3475341796875,0.9783143997192383,-1.5773029327392578,-0.6931235790252686
1725892483997382400,14.36638232421875,0.878657341003418,0.3508181571960449,0.007841348648071289
1725892484016230700,14.385230712890625,0.9921693801879883,-0.08406257629394531,-0.9080841541290283
1725892484035079000,14.404078857421876,0.711850643157959,0.43762826919555664,-0.9908273220062256
1725892484053927400,14.422927490234375,-1.164647102355957,-0.4706001281738281,-0.362821102142334
1725892484072775700,14.441775634765625,3.0752334594726562,-2.1382603645324707,0.576777458190918
1725892484091624000,14.4606240234375,2.5372562408447266,-0.07183361053466797,-1.4386590719223022
1725892484110472200,14.47947216796875,3.3434677124023438,0.3152780532836914,-1.5708740949630737
1725892484129320700,14.49832080078125,0.02416515350341797,2.5068199634552,-3.578711748123169
1725892484148169000,14.5171689453125,1.4803338050842285,0.505840539932251,2.170353651046753
1725892484167017200,14.536017333984375,2.5268945693969727,2.428492546081543,-2.299668312072754
1725892484185865500,14.554865478515625,0.43850040435791016,1.6519675254821777,-1.407310128211975
1725892484204713700,14.573713623046874,0.7577071189880371,2.864417552947998,-1.809498906135559
1725892484223562200,14.592562255859375,0.7074832916259766,0.010190248489379883,-0.36435866355895996
1725892484242410500,14.611410400390625,0.9212856292724609,0.06356239318847656,-0.6510031223297119
1725892484261258800,14.6302587890625,0.8300991058349609,-0.5812134742736816,-1.0850245952606201
1725892484280107300,14.649107177734376,-0.05993461608886719,2.502629518508911,-1.6759839057922363
1725892484298955300,14.667955322265625,0.8501725196838379,3.0483767986297607,-1.000051736831665
1725892484317803800,14.6868037109375,1.7805242538452148,2.0377557277679443,-1.9053971767425537
1725892484336652000,14.705652099609376,0.5972018241882324,2.372061252593994,-2.0575003623962402
1725892484355500300,14.724500244140625,0.8813300132751465,2.700140953063965,-1.7985925674438477
1725892484374348800,14.743348876953124,-0.8245372772216797,2.129422187805176,-2.705500364303589
1725892484393197000,14.762197021484376,-0.008532524108886719,0.6090669631958008,-1.2562274932861328
1725892484412045300,14.78104541015625,-1.0112133026123047,-1.7177605628967285,0.9208002090454102
1725892484430893600,14.7998935546875,-1.406026840209961,-1.6520328521728516,1.043750286102295
1725892484449741800,14.818741943359376,-1.0042204856872559,-2.1663122177124023,0.9020323753356934
1725892484468590300,14.83759033203125,0.47954750061035156,-1.7438435554504395,1.3744945526123047
1725892484487438600,14.8564384765625,-0.5731239318847656,-2.139657497406006,1.611893653869629
1725892484506286800,14.875286865234376,1.2475547790527344,-1.00874662399292,0.16902565956115723
1725892484525135000,14.894135009765625,-2.320261001586914,0.6321277618408203,-0.9654033184051514
1725892484543983600,14.912983642578125,0.7220263481140137,-0.07705879211425781,-0.34336185455322266
1725892484562832000,14.931831787109376,-0.45937252044677734,-1.1058435440063477,0.3265726566314697
1725892484581680000,14.95068017578125,-0.7939004898071289,-2.602743148803711,-0.07285284996032715
1725892484600528600,14.969528564453125,-0.2734951972961426,-1.8334770202636719,0.8477108478546143
1725892484619377000,14.988376953125,-0.36244678497314453,-0.7996377944946289,0.15312910079956055
1725892484638225200,15.00722509765625,-1.556549072265625,-0.7655296325683594,-0.35640716552734375
1725892484657073400,15.026073486328125,-1.0859756469726562,-1.891439437866211,0.38739633560180664
1725892484675921700,15.044921630859376,-1.4934701919555664,-2.6037445068359375,-0.26662111282348633
1725892484694770200,15.063770263671875,-0.6812620162963867,-4.152660369873047,2.9346630573272705
1725892484713618400,15.082618408203125,-1.8048968315124512,-4.884238243103027,0.7025644779205322
1725892484732466700,15.101466796875,-1.3513188362121582,-1.7124347686767578,-0.6694828271865845
1725892484751315000,15.12031494140625,-0.28513097763061523,1.7762823104858398,-1.2676236629486084
1725892484770163200,15.1391630859375,1.2915635108947754,1.0405240058898926,-0.4802737236022949
1725892484789011700,15.15801171875,-0.09544801712036133,-1.6757574081420898,-0.802491307258606
1725892484807860000,15.17685986328125,-0.4778885841369629,-2.7654190063476562,-0.8174103498458862
1725892484826708200,15.195708251953125,-0.6785917282104492,-1.101283073425293,-1.0762434005737305
1725892484845556500,15.214556396484374,0.7172207832336426,-0.43922901153564453,-0.4923076629638672
1725892484864405000,15.233405029296875,0.7668828964233398,-0.10644292831420898,-1.555624008178711
1725892484883253200,15.252253173828125,2.1808013916015625,0.33502197265625,0.10605931282043457
1725892484902101500,15.2711015625,1.6026599407196045,0.8277878761291504,0.4286308288574219
1725892484920949800,15.28994970703125,0.16127395629882812,1.5558981895446777,-0.4779088497161865
1725892484939798000,15.308798095703125,-0.900177001953125,1.2937369346618652,1.2367043495178223
1725892484958646500,15.327646484375,-1.2866034507751465,-0.29656124114990234,1.5817413330078125
1725892484977494800,15.346494873046876,-2.8400278091430664,-1.4066157341003418,2.0482676029205322
1725892484996343000,15.365343017578125,-3.342573642730713,-3.3311729431152344,3.617064952850342
1725892485015191600,15.384191650390624,-2.214643955230713,-1.7459192276000977,2.303607940673828
1725892485034039600,15.40303955078125,0.3498353958129883,-0.541959285736084,1.5604686737060547
1725892485052888000,15.42188818359375,1.121159553527832,-0.05791282653808594,-0.19412493705749512
1725892485071736300,15.440736328125,0.6630663871765137,-0.301541805267334,-0.6201465129852295
1725892485090584600,15.45958447265625,-0.6185979843139648,-1.622133731842041,1.0489752292633057
1725892485109433000,15.47843310546875,0.005486488342285156,-2.68833589553833,1.7108581066131592
1725892485128281300,15.49728125,1.0268898010253906,-1.4498305320739746,0.43052220344543457
1725892485147129600,15.516129638671876,2.0544071197509766,0.6683034896850586,-0.6991643905639648
1725892485165977900,15.534977783203125,2.7644906044006348,1.5015740394592285,-1.3161793947219849
1725892485184826000,15.553826171875,1.458503246307373,0.352419376373291,-2.018455982208252
1725892485203674600,15.572674560546876,-1.0508852005004883,-1.420443058013916,-0.7964494228363037
1725892485222523000,15.59152294921875,0.7287759780883789,-3.060215473175049,0.6038007736206055
1725892485241371100,15.61037109375,4.622835159301758,-2.6819310188293457,0.5955562591552734
1725892485260219400,15.629219482421876,4.393745422363281,1.1056005954742432,-3.176927328109741
1725892485279068000,15.64806787109375,0.6174745559692383,4.8347625732421875,-1.5461887121200562
1725892485297916200,15.666916259765625,2.387277603149414,3.1264965534210205,0.01685929298400879
1725892485316764400,15.685764404296876,3.177049160003662,0.0632328987121582,-2.5565474033355713
1725892485335612700,15.70461279296875,-3.6015195846557617,0.014947891235351562,-2.288884162902832
1725892485354461000,15.7234609375,-1.0742082595825195,-2.1943395137786865,2.2820398807525635
1725892485373309400,15.742309326171876,1.0295429229736328,0.10694193840026855,1.04673433303833
1725892485392157700,15.76115771484375,-1.8090505599975586,-0.8654384613037109,-0.19726085662841797
1725892485411006000,15.780005859375,-0.21893882751464844,-0.847973108291626,-0.7848865985870361
1725892485429854200,15.798854248046876,0.9377975463867188,-2.268092632293701,0.8227887153625488
1725892485448702500,15.817702392578125,1.9491291046142578,0.47033190727233887,-0.98789381980896
1725892485467550700,15.83655078125,2.9910454750061035,1.654707431793213,-1.5105092525482178
1725892485486399200,15.855399169921874,-0.1519632339477539,3.142970323562622,-3.773890733718872
1725892485505247500,15.87424755859375,1.556358814239502,1.5225589275360107,1.3390722274780273
1725892485524095700,15.893095703125,5.033900260925293,0.2922391891479492,-0.7026185989379883
1725892485542944000,15.911944091796874,3.7117581367492676,0.8019561767578125,-0.8800203800201416
1725892485561792300,15.930792236328125,3.5814590454101562,1.7224154472351074,-2.8957085609436035
1725892485580640800,15.949640869140625,-0.5577702522277832,3.667509078979492,-5.203315734863281
1725892485599489000,15.968489013671874,4.377645015716553,2.4896774291992188,0.0713496208190918
1725892485618337300,15.987337158203125,3.8208060264587402,1.451463222503662,-3.049654483795166
1725892485637185500,16.006185546875,-0.5812559127807617,2.2411625385284424,-4.124988079071045
1725892485656034000,16.025033935546876,-1.7493863105773926,1.8833503723144531,-1.0205674171447754
1725892485674882300,16.04388232421875,-0.08510017395019531,0.0017490386962890625,1.7938270568847656
1725892485693730600,16.06273046875,-1.0175809860229492,-2.088860034942627,3.118692398071289
1725892485712578800,16.081578857421874,-0.6252975463867188,-2.811065673828125,2.863795757293701
1725892485731427000,16.100427001953125,-1.8444256782531738,-0.2340998649597168,0.8048510551452637
1725892485750275600,16.119275634765625,-0.3847498893737793,0.2101459503173828,0.9169509410858154
1725892485769123800,16.138123779296876,1.3963994979858398,-1.6790428161621094,0.6702365875244141
1725892485787972000,16.15697216796875,-0.6398563385009766,-1.2369108200073242,0.40174198150634766
1725892485806820400,16.1758203125,0.08329439163208008,0.08056068420410156,-1.0183618068695068
1725892485825668600,16.194668701171874,-1.2608938217163086,-0.009153366088867188,-0.05406999588012695
1725892485844517000,16.21351708984375,1.0746307373046875,-3.37357234954834,1.8813083171844482
1725892485863365400,16.232365478515625,0.5815930366516113,-3.116720676422119,2.6881606578826904
1725892485882213600,16.251213623046876,-1.5011210441589355,-1.2422599792480469,-0.734199047088623
1725892485901062000,16.270061767578124,-2.1853013038635254,-0.6949005126953125,-0.6778707504272461
1725892485919910400,16.288910400390623,-0.8485932350158691,-3.389653205871582,1.9016809463500977
1725892485938758400,16.30775830078125,-1.614173412322998,-4.260679244995117,1.3312962055206299
1725892485957607000,16.32660693359375,-1.8392386436462402,-1.9072265625,-0.023046016693115234
1725892485976455200,16.345455078125,-1.6456670761108398,-1.1220130920410156,0.29880404472351074
1725892485995303400,16.364303466796876,-1.3849444389343262,-2.9752941131591797,0.7821292877197266
1725892486014151700,16.383151611328124,-0.8478684425354004,-1.809077262878418,0.6340994834899902
1725892486033000200,16.402000244140623,0.23439884185791016,0.4083390235900879,-0.46496009826660156
1725892486051848400,16.420848388671875,0.22298622131347656,1.4962120056152344,-0.8469524383544922
1725892486070696700,16.43969677734375,0.5102577209472656,-0.29813385009765625,-0.5453078746795654
1725892486089545000,16.458544921875,0.24745464324951172,-0.1432046890258789,-1.7762646675109863
1725892486108393200,16.477393310546876,0.9529738426208496,0.3949260711669922,-1.9002509117126465
1725892486127241700,16.49624169921875,0.34810686111450195,0.9436631202697754,-2.575881004333496
1725892486146090000,16.515090087890623,0.9914860725402832,-1.404982566833496,0.6900808811187744
1725892486164938200,16.533938232421875,-0.24543094635009766,-1.5336275100708008,0.7970447540283203
1725892486183786500,16.552786376953126,-2.0668153762817383,-1.534367561340332,1.1832516193389893
1725892486202634800,16.571634765625,-1.5309901237487793,-1.3369812965393066,3.5370781421661377
1725892486221483300,16.590483154296876,-0.2907567024230957,-2.2450971603393555,2.269904375076294
1725892486240331500,16.60933154296875,-0.5500760078430176,-1.40217924118042,0.9745147228240967
1725892486259179800,16.6281796875,-0.3918881416320801,-1.1192083358764648,0.5042195320129395
1725892486278028000,16.647028076171875,0.4575624465942383,0.4706387519836426,-0.45403337478637695
1725892486296876300,16.665876220703126,0.5333218574523926,0.46602296829223633,0.6309411525726318
1725892486315724500,16.684724609375,-0.11460113525390625,-0.20359182357788086,0.7437195777893066
1725892486334573000,16.703572998046877,-0.6094374656677246,-0.6119675636291504,0.5152513980865479
1725892486353421300,16.72242138671875,0.6316814422607422,-0.5110368728637695,-0.1432323455810547
1725892486372269600,16.74126953125,0.8454909324645996,1.473726749420166,-0.35748934745788574
1725892486391117800,16.760117919921875,1.4447541236877441,1.6677618026733398,0.31295132637023926
1725892486409966300,16.77896630859375,0.653876781463623,1.2177329063415527,-0.7109010219573975
1725892486428814600,16.797814697265625,0.8761734962463379,0.7151379585266113,-1.1433115005493164
1725892486447662800,16.816662841796877,-1.3882341384887695,-0.591306209564209,-0.37989377975463867
1725892486466511000,16.835510986328124,-0.12399721145629883,-1.9017715454101562,-0.016268491744995117
1725892486485359400,16.854359375,0.9458451271057129,-1.6261067390441895,-0.3043944835662842
1725892486504207600,16.87320751953125,1.4602270126342773,-1.1225090026855469,-1.4721598625183105
1725892486523056000,16.89205615234375,-0.38455820083618164,-0.44266319274902344,-0.7043235301971436
1725892486541904400,16.910904296875,-0.2373828887939453,-2.6276230812072754,0.3143031597137451
1725892486560752600,16.929752685546877,-1.3129520416259766,-2.5890860557556152,-0.01589798927307129
1725892486579601000,16.948600830078124,-0.8478870391845703,-3.155146598815918,0.7880611419677734
1725892486598449200,16.96744921875,0.5051174163818359,-2.4550766944885254,0.3411746025085449
1725892486617297700,16.986297607421875,-0.7124767303466797,-2.4411683082580566,-0.3073689937591553
1725892486636146000,17.00514599609375,1.9603958129882812,-0.1864151954650879,-0.48365235328674316
1725892486654994200,17.023994140625,3.180802345275879,3.7387478351593018,-1.2951700687408447
1725892486673842400,17.042842529296873,5.388422966003418,1.7443472146987915,-3.5514931678771973
1725892486692690700,17.061690673828124,0.015610694885253906,4.302933216094971,-3.6568188667297363
1725892486711539000,17.0805390625,5.635297775268555,2.1588094234466553,-0.2011256217956543
1725892486730387500,17.099387451171875,1.1320199966430664,1.6689574718475342,-3.746546506881714
1725892486749235700,17.118235595703126,0.25304698944091797,1.351746678352356,0.029744863510131836
1725892486768084000,17.137083984375,3.1658782958984375,2.0444753170013428,-0.8228495121002197
1725892486786932200,17.15593212890625,0.27349853515625,-0.022935867309570312,-0.8971080780029297
1725892486805780500,17.174780517578125,0.9706225395202637,0.33117055892944336,-0.6985268592834473
1725892486824628700,17.193628662109376,1.7030458450317383,2.0319206714630127,0.15406203269958496
1725892486843477200,17.212477294921875,-0.18635177612304688,3.051323890686035,-2.5163540840148926
1725892486862325500,17.231325439453126,-2.3602113723754883,4.350640296936035,-0.6308846473693848
1725892486881173800,17.250173828125,2.1856894493103027,1.692305326461792,1.4895565509796143
1725892486900022000,17.26902197265625,0.9971528053283691,0.6123647689819336,0.8099570274353027
1725892486918870300,17.287870361328125,-0.18564319610595703,-0.8358883857727051,0.6658768653869629
1725892486937718500,17.306718505859376,-1.3963007926940918,-1.5107841491699219,-1.6446232795715332
1725892486956567000,17.325567138671875,-0.28232526779174805,-2.4290342330932617,2.3262548446655273
1725892486975415300,17.344415283203126,3.0961222648620605,-3.698452949523926,0.02022552490234375
1725892486994263600,17.363263671875,-1.5305757522583008,-0.4008045196533203,-3.5783050060272217
1725892487013111800,17.38211181640625,1.526712417602539,1.8689498901367188,-0.3496825695037842
1725892487031960000,17.4009599609375,3.4584436416625977,2.0512051582336426,-1.6945669651031494
1725892487050808600,17.41980859375,-0.16346359252929688,3.0758590698242188,-3.5819787979125977
1725892487069656800,17.43865673828125,1.1434650421142578,1.9076108932495117,-1.3304247856140137
1725892487088505000,17.457505126953127,1.0589900016784668,0.11154699325561523,-0.33451128005981445
1725892487107353300,17.476353271484374,-0.34706878662109375,-1.655238151550293,-0.4048013687133789
1725892487126201600,17.49520166015625,0.41745710372924805,-0.9171862602233887,1.4389653205871582
1725892487145049900,17.5140498046875,-1.3458094596862793,1.165799617767334,1.8018388748168945
1725892487163898400,17.5328984375,-1.2920007705688477,1.3777294158935547,0.6430165767669678
1725892487182746600,17.55174658203125,-0.7402439117431641,-0.7841997146606445,2.438955307006836
1725892487201595000,17.570594970703127,-0.8062515258789062,-2.8635644912719727,2.5502541065216064
1725892487220443100,17.589443115234374,-0.8533434867858887,-1.8259305953979492,2.827819347381592
1725892487239291400,17.60829150390625,-1.7943496704101562,-0.7035560607910156,0.28965330123901367
1725892487258139600,17.6271396484375,-2.1859211921691895,-1.9666242599487305,1.1509875059127808
1725892487276988200,17.64598828125,-1.2296605110168457,-5.458192825317383,1.4139071702957153
1725892487295836400,17.66483642578125,-1.390902042388916,-3.3882102966308594,-0.14873337745666504
1725892487314684700,17.6836845703125,-0.9663982391357422,-2.9860315322875977,0.2916436195373535
1725892487333533000,17.702532958984374,-0.6204624176025391,-3.0399084091186523,0.17811346054077148
1725892487352381200,17.721381103515625,-0.4103989601135254,-1.475677490234375,-0.30143165588378906
1725892487371229400,17.7402294921875,0.39016008377075195,1.005722999572754,-0.07226181030273438
1725892487390078000,17.759077880859376,1.4480643272399902,1.7700786590576172,-1.762200117111206
1725892487408926200,17.77792626953125,1.5464847087860107,1.5121345520019531,-0.9367866516113281
1725892487427774500,17.7967744140625,1.780796766281128,0.7604084014892578,0.29793429374694824
1725892487446622700,17.815622802734374,0.21358871459960938,0.5498619079589844,-1.8595328330993652
1725892487465471000,17.834470947265626,0.10728979110717773,-0.04763221740722656,-0.6073125600814819
1725892487484319200,17.8533193359375,-0.3920001983642578,-0.41929054260253906,-0.1373436450958252
1725892487503167700,17.872167724609376,-1.5657167434692383,-2.215620517730713,2.516247510910034
1725892487522016000,17.89101611328125,-3.9856791496276855,-2.2882208824157715,2.2336063385009766
1725892487540864300,17.9098642578125,-3.084001064300537,-1.8451037406921387,3.289522647857666
1725892487559712500,17.92871240234375,0.051694393157958984,-0.32913684844970703,2.8118746280670166
1725892487578560800,17.947560791015626,1.0165467262268066,0.9744672775268555,0.948728084564209
1725892487597409000,17.966408935546873,0.723973274230957,1.8511781692504883,-1.0820512771606445
1725892487616257500,17.985257568359376,-0.7648897171020508,0.9569940567016602,1.1029860973358154
1725892487635105800,18.004105712890624,-1.092167854309082,-1.0060663223266602,1.0909745693206787
1725892487653954000,18.0229541015625,-2.1901259422302246,-2.277472972869873,1.8023090362548828
1725892487672802300,18.04180224609375,-0.8836808204650879,-1.514115333557129,2.036818504333496
1725892487691650600,18.060650634765626,1.298445701599121,0.680269718170166,0.5233206748962402
1725892487710498800,18.079498779296873,1.9365105628967285,0.4384474754333496,-1.0695809125900269
1725892487729347300,18.098347412109376,0.3462190628051758,-0.541222095489502,-0.7724432945251465
1725892487748195600,18.117195556640624,1.2864694595336914,-1.2252707481384277,0.9800283908843994
1725892487767043800,18.1360439453125,1.9804902076721191,-1.0236482620239258,-0.05648684501647949
1725892487785892000,18.15489208984375,1.0097036361694336,1.157790184020996,-1.7710630893707275
1725892487804740400,18.173740234375,-0.02971029281616211,0.8668699264526367,-0.7873883247375488
1725892487823588600,18.192588623046873,1.5117974281311035,-1.0841317176818848,0.2014756202697754
1725892487842437000,18.21143701171875,1.3193292617797852,-1.1318998336791992,-0.5043849945068359
1725892487861285400,18.230285400390624,-0.06476116180419922,-0.7647051811218262,0.9983575344085693
1725892487880133600,18.249133544921875,2.0528807640075684,-1.1876816749572754,-0.054437875747680664
1725892487898982000,18.26798193359375,1.0865564346313477,0.04772806167602539,-0.5681254863739014
1725892487917830100,18.286830078125,1.3468809127807617,0.98492431640625,-0.8161110877990723
1725892487936678400,18.305678466796873,-0.7408218383789062,1.3218448162078857,-1.0859565734863281
1725892487955527000,18.32452685546875,0.009770393371582031,-1.311997413635254,0.38201475143432617
1725892487974375200,18.343375244140624,3.35282039642334,-1.9847640991210938,1.3822133541107178
1725892487993223400,18.362223388671875,4.129240989685059,3.069319248199463,-1.650484323501587
1725892488012071700,18.38107177734375,-1.0860776901245117,4.037177085876465,-2.7306201457977295
1725892488030920000,18.399919921875,-0.03814411163330078,-1.2997195720672607,1.1086325645446777
1725892488049768200,18.418768310546874,3.6548519134521484,0.08074426651000977,-0.004415750503540039
1725892488068616400,18.437616455078125,1.6981678009033203,3.009735345840454,-2.042846918106079
1725892488087465000,18.45646484375,0.10341835021972656,3.534430742263794,-2.0660324096679688
1725892488106313200,18.475313232421875,2.1658058166503906,1.0537488460540771,-0.4181063175201416
1725892488125161500,18.494161376953127,1.4359807968139648,0.931333065032959,-1.3387982845306396
1725892488144009700,18.513009765625,1.6700382232666016,1.3884427547454834,-1.1981854438781738
1725892488162858000,18.53185791015625,0.6928548812866211,2.523545265197754,-2.011458396911621
1725892488181706200,18.550706298828125,1.1064553260803223,1.6905694007873535,-0.6561779975891113
1725892488200554800,18.5695546875,1.4000015258789062,1.3932042121887207,-1.3795826435089111
1725892488219403000,18.588403076171875,1.8991823196411133,1.2892866134643555,-0.8591337203979492
1725892488238251300,18.607251220703127,-0.25450611114501953,2.594456195831299,-1.6281487941741943
1725892488257099500,18.626099609375,-0.9406375885009766,2.3561296463012695,-0.6512176990509033
1725892488275947800,18.64494775390625,1.7713994979858398,0.37935829162597656,1.116255760192871
1725892488294796000,18.663796142578125,0.48271751403808594,-1.8735499382019043,0.6250820159912109
1725892488313644500,18.68264453125,-1.4284815788269043,-2.1748805046081543,0.7417604923248291
1725892488332492800,18.701492919921876,-1.5607399940490723,-2.8271007537841797,1.088130235671997
1725892488351341000,18.720341064453127,-0.5970883369445801,-2.8294544219970703,1.2144086360931396
1725892488370189300,18.739189208984374,-0.13660335540771484,-2.854018211364746,2.5581741333007812
1725892488389037600,18.75803759765625,0.4820537567138672,-2.0959339141845703,-0.14606332778930664
1725892488407885800,18.7768857421875,-0.7121105194091797,0.7058424949645996,-0.9692802429199219
1725892488426734000,18.795734130859376,-0.559166431427002,0.7901244163513184,-1.6186959743499756
1725892488445582600,18.81458251953125,-0.5660996437072754,-1.1045036315917969,-0.12091803550720215
1725892488464430800,18.833430908203123,-0.6464848518371582,-3.0621814727783203,1.1279616355895996
1725892488483279000,18.852279052734374,-1.0193991661071777,-2.463608741760254,0.7294449806213379
1725892488502127400,18.87112744140625,-0.5554800033569336,-2.3928565979003906,1.5220837593078613
1725892488520975600,18.8899755859375,-0.4372081756591797,-1.91033935546875,0.4218165874481201
1725892488539823900,18.908823974609376,-0.7146844863891602,-0.9335212707519531,0.054163217544555664
1725892488558672400,18.92767236328125,-0.13961124420166016,1.7541751861572266,0.9529500007629395
1725892488577520600,18.946520751953123,-0.16156721115112305,1.5476970672607422,1.609527587890625
1725892488596369000,18.965368896484375,-1.494873046875,-0.12227725982666016,-0.4475433826446533
1725892488615217200,18.984217041015626,-1.4556941986083984,-1.9844560623168945,0.2303450107574463
1725892488634065400,19.0030654296875,-1.1784229278564453,-1.5073375701904297,0.5033254623413086
1725892488652913700,19.02191357421875,-2.5777955055236816,-2.0838708877563477,0.5203516483306885
1725892488671762000,19.040761962890624,-2.4769206047058105,-1.9384450912475586,0.4714233875274658
1725892488690610200,19.059610107421875,-0.29443883895874023,-0.8961219787597656,0.19113659858703613
1725892488709458700,19.078458740234375,0.07436990737915039,1.2862563133239746,0.026962995529174805
1725892488728307000,19.097306884765626,0.16710805892944336,0.5035762786865234,0.9369058609008789
1725892488747155200,19.1161552734375,0.43503856658935547,-1.07310152053833,1.3377220630645752
1725892488766003500,19.13500341796875,1.0235018730163574,-1.4786067008972168,0.2685558795928955
1725892488784851700,19.153851806640624,-0.7659344673156738,0.6990222930908203,0.03034043312072754
1725892488803700000,19.172699951171875,-0.2151646614074707,0.5854825973510742,0.5779063701629639
1725892488822548500,19.191548583984375,-0.853980541229248,-0.5311155319213867,0.8447425365447998
1725892488841396700,19.210396728515626,-1.8213005065917969,-3.2476186752319336,2.3415379524230957
1725892488860246000,19.22924609375,-1.5994935035705566,-1.169407844543457,2.1677846908569336
1725892488879096600,19.2480966796875,0.8035058975219727,1.4312505722045898,1.2177238464355469
1725892488897941500,19.26694140625,1.1020421981811523,1.1442503929138184,1.169276237487793
1725892488916789800,19.285789794921875,-1.6702399253845215,-1.7026119232177734,0.7724273204803467
1725892488935638000,19.304637939453126,0.011857032775878906,-2.8808393478393555,2.4017181396484375
1725892488954486500,19.323486572265626,3.2497246265411377,-2.4125285148620605,1.3367652893066406
1725892488973334800,19.342334716796874,3.050164222717285,1.2878141403198242,0.9039199352264404
1725892488992183000,19.36118310546875,2.3183250427246094,1.6820664405822754,-0.13204026222229004
1725892489011031300,19.38003125,2.5633883476257324,2.134910821914673,-0.6479363441467285
1725892489029879600,19.398879638671875,1.1308555603027344,1.4045534133911133,-1.5209931135177612
1725892489048727800,19.417727783203127,-0.8648099899291992,0.45502138137817383,0.28563404083251953
1725892489067576000,19.436576171875,1.3062105178833008,-3.8258886337280273,-0.1345442533493042
1725892489086424600,19.455424560546874,1.2209959030151367,-3.2135939598083496,-0.023247480392456055
1725892489105272800,19.47427294921875,0.2614593505859375,1.0063142776489258,-1.1184496879577637
1725892489124121000,19.49312109375,-0.5199127197265625,2.39070987701416,-1.051424503326416
1725892489142969300,19.51196923828125,1.5133047103881836,-1.6742687225341797,-1.7559062242507935
1725892489161817600,19.530817626953127,0.2920351028442383,-1.5046954154968262,0.6219208240509033
1725892489180665900,19.549665771484374,0.23682689666748047,1.3142406940460205,-0.5875723361968994
1725892489199514000,19.56851416015625,0.7760229110717773,2.197401523590088,-1.3367340564727783
1725892489218362400,19.5873623046875,-0.25089263916015625,-0.937838077545166,-0.5789920091629028
1725892489237211000,19.6062109375,2.653104782104492,-0.9631681442260742,1.1112592220306396
1725892489256059100,19.62505908203125,4.703526973724365,2.4718291759490967,-1.4994792938232422
1725892489274907400,19.643907470703127,2.619439125061035,3.8259427547454834,-2.816898822784424
1725892489293755600,19.662755615234374,0.50531005859375,2.967191219329834,-2.605651617050171
1725892489312604000,19.68160400390625,2.07694149017334,0.5888087749481201,0.14711785316467285
1725892489331452200,19.7004521484375,4.274813175201416,3.3480582237243652,-1.423694372177124
1725892489350300400,19.719300537109376,0.9193716049194336,3.4218153953552246,-2.5217995643615723
1725892489369149000,19.73814892578125,-0.7104701995849609,2.4762802124023438,-2.6922049522399902
1725892489387997000,19.756996826171875,1.8225526809692383,0.6387486457824707,0.36400318145751953
1725892489406845400,19.775845458984374,3.267183780670166,0.8471646308898926,-0.40209364891052246
1725892489425693700,19.794693603515626,-2.5356645584106445,2.237016439437866,-1.1470940113067627
1725892489444542000,19.8135419921875,-0.5907096862792969,-0.4323148727416992,1.7116198539733887
1725892489463390200,19.83239013671875,1.5629515647888184,-1.4463729858398438,0.2302379608154297
1725892489482238500,19.851238525390624,-0.20962238311767578,-1.6313152313232422,1.1259384155273438
1725892489501086700,19.870086669921875,-0.5880036354064941,-2.7625374794006348,1.6614370346069336
1725892489519935000,19.88893505859375,-0.7599196434020996,-2.5608630180358887,0.26801013946533203
1725892489538783500,19.907783447265626,1.0116534233093262,-2.316359043121338,0.027124404907226562
1725892489557631700,19.9266318359375,1.2742185592651367,-2.138975143432617,-0.8209507465362549
1725892489576480000,19.94547998046875,-0.875429630279541,-0.8018894195556641,-1.1632716655731201
1725892489595328300,19.964328369140624,-1.0672411918640137,-0.8925495147705078,0.8091521263122559
1725892489614176500,19.983176513671875,0.05707597732543945,-1.9180355072021484,0.3719773292541504
1725892489633024800,20.002024658203126,-0.6029891967773438,-0.6071348190307617,0.7799892425537109
1725892489651873000,20.020873046875,-2.2158203125,0.32256460189819336,0.2378826141357422
1725892489670721500,20.039721435546873,-1.7732009887695312,-1.0048599243164062,1.3365871906280518
1725892489689569800,20.05856982421875,-1.4581632614135742,-3.232891082763672,1.467008113861084
1725892489708418000,20.07741796875,-2.517099380493164,-3.2231578826904297,1.175673246383667
1725892489727266300,20.096266357421875,-2.059937000274658,-1.4601335525512695,0.9724380970001221
1725892489746114600,20.115114501953126,-1.3732481002807617,-2.1496496200561523,1.9062528610229492
1725892489764962800,20.133962890625,-1.7786865234375,-1.3389968872070312,-1.0855326652526855
1725892489783811000,20.15281103515625,-0.7869443893432617,-0.35784149169921875,0.6868655681610107
1725892489802659300,20.171659423828125,-0.2053699493408203,-0.5856008529663086,-0.6555378437042236
1725892489821507800,20.1905078125,-0.5178375244140625,-1.2940826416015625,-1.303990125656128
1725892489840356000,20.209356201171875,-0.5321331024169922,-1.7320146560668945,0.07130098342895508
1725892489859204400,20.228204345703126,-0.43425607681274414,-1.4945878982543945,0.6880357265472412
1725892489878052600,20.247052490234374,-0.29297733306884766,-0.6291332244873047,-1.0488214492797852
1725892489896900900,20.26590087890625,0.045412540435791016,0.03909587860107422,0.37870168685913086
1725892489915749000,20.2847490234375,0.9693398475646973,-0.2891697883605957,-0.3108212947845459
1725892489934597400,20.303597412109376,1.313664436340332,0.28877687454223633,-0.8321802616119385
1725892489953445600,20.322445556640623,1.099952220916748,0.7952337265014648,-0.5007390975952148
1725892489972294100,20.341294189453127,-0.7533068656921387,-0.11032724380493164,-0.6054034233093262
1725892489991142400,20.360142333984374,-1.7477335929870605,-1.1205525398254395,1.1273748874664307
1725892490009990700,20.37899072265625,-0.19719886779785156,-1.2991743087768555,1.285658597946167
1725892490028839000,20.3978388671875,0.8645915985107422,0.28453969955444336,-1.0961816310882568
1725892490047687200,20.416687255859376,1.4270296096801758,2.029000759124756,-0.13661766052246094
1725892490066535400,20.435535400390624,1.5608372688293457,1.4114899635314941,-0.741783618927002
1725892490085383700,20.4543837890625,-0.08219337463378906,3.1820321083068848,0.35732030868530273
1725892490104232000,20.47323193359375,-1.433544635772705,0.028818607330322266,2.141849994659424
1725892490123080400,20.49208056640625,-1.8349418640136719,-2.7956252098083496,1.6264352798461914
1725892490141928700,20.5109287109375,-0.6817536354064941,-3.05741024017334,2.0653069019317627
1725892490160777000,20.52977685546875,0.05472898483276367,-2.593045711517334,2.648540735244751
1725892490179625200,20.548625244140624,1.2583260536193848,-1.9277420043945312,0.2593550682067871
1725892490198473500,20.567473388671875,-1.2956886291503906,-0.5160083770751953,0.30988097190856934
1725892490217321700,20.58632177734375,0.25263261795043945,-2.474760055541992,0.03754901885986328
1725892490236170000,20.605169921875,0.7166905403137207,-2.6496496200561523,-0.18582677841186523
1725892490255018200,20.624018310546877,2.1990299224853516,-1.6332120895385742,-0.18408679962158203
1725892490273866800,20.64286669921875,3.4802255630493164,-0.07856416702270508,-1.173287272453308
1725892490292715000,20.661715087890624,2.764131546020508,3.4023289680480957,-2.919890880584717
1725892490311563300,20.680563232421875,4.299734115600586,3.0554676055908203,-1.077676773071289
1725892490330411500,20.69941162109375,6.189339637756348,0.41015625,-2.42294979095459
1725892490349259800,20.718259765625,2.189591407775879,2.795732021331787,-2.840477705001831
1725892490368108000,20.73710791015625,2.3653736114501953,0.9834885597229004,-1.4403095245361328
1725892490386956300,20.755956298828124,3.396306037902832,3.5774519443511963,-3.3299245834350586
1725892490405804500,20.774804443359375,0.7268762588500977,2.502002477645874,-1.2606580257415771
1725892490424653000,20.793653076171875,0.7452058792114258,1.439934492111206,-0.8165340423583984
1725892490443501300,20.812501220703126,-0.34613513946533203,1.7249525785446167,0.15612435340881348
1725892490462349600,20.831349609375,-0.3994121551513672,2.9143199920654297,-0.17359042167663574
1725892490481197800,20.85019775390625,-2.724686622619629,3.633887529373169,0.1416492462158203
1725892490500046000,20.869046142578124,-2.4430465698242188,0.9268183708190918,2.212175130844116
1725892490518894300,20.887894287109376,-0.1972970962524414,-3.6990599632263184,1.0550942420959473
1725892490537742600,20.90674267578125,0.5891499519348145,-1.0791206359863281,0.9460222721099854
1725892490556590800,20.9255908203125,0.5897622108459473,0.42081308364868164,-0.43581151962280273
1725892490575439400,20.944439453125,1.346346378326416,1.707036018371582,-1.2527799606323242
1725892490594287600,20.96328759765625,1.7046523094177246,2.5306811332702637,-2.0397493839263916
1725892490613136000,20.982135986328124,1.2993593215942383,2.9900293350219727,-2.0021581649780273
1725892490631984000,21.000984130859376,1.508096694946289,1.5927157402038574,-2.256244421005249
1725892490650832400,21.019832275390623,3.110884189605713,-0.4831976890563965,0.42758917808532715
1725892490669680600,21.0386806640625,3.3186187744140625,-1.5956988334655762,-1.3273277282714844
1725892490688529000,21.05752880859375,2.634925603866577,-0.3180575370788574,0.9091329574584961
1725892490707377200,21.076377197265625,0.17713165283203125,-0.6156878471374512,-1.8171424865722656
1725892490726225700,21.0952255859375,-0.5835180282592773,0.5166091918945312,0.9910087585449219
1725892490745074000,21.114073974609376,-1.0329923629760742,-2.29617977142334,1.608494520187378
1725892490763922200,21.132922119140623,-1.6146750450134277,-2.3907623291015625,3.199983596801758
1725892490782770400,21.1517705078125,-2.083700656890869,-1.1686639785766602,1.197239875793457
1725892490801618700,21.17061865234375,-2.2671332359313965,-1.1099843978881836,-0.513077974319458
1725892490820467000,21.189467041015625,-1.7516140937805176,-2.366593360900879,-0.25880980491638184
1725892490839315200,21.208315185546876,-1.3827195167541504,-3.425583839416504,1.7603707313537598
1725892490858163700,21.227163818359376,-1.363461971282959,-1.3709144592285156,0.18841171264648438
1725892490877012000,21.246011962890623,-0.5433745384216309,-0.46851539611816406,-0.8312622308731079
1725892490895860200,21.264860107421875,-1.2114019393920898,-1.006779670715332,1.2248647212982178
1725892490914708500,21.28370849609375,-0.7283060550689697,-4.054821014404297,1.8563055992126465
1725892490933556700,21.302556640625,-1.7740919589996338,-4.176858901977539,0.2881479263305664
1725892490952405000,21.321405029296876,-0.7873599529266357,-0.6952056884765625,-0.2847781181335449
1725892490971253200,21.340253173828124,-0.34615635871887207,2.194547653198242,0.01932239532470703
1725892490990101800,21.359101806640624,-0.23882126808166504,2.671067237854004,0.5016183853149414
1725892491008957400,21.37795751953125,0.04429292678833008,-0.2387542724609375,0.4951760768890381
1725892491027798300,21.39679833984375,0.6512763500213623,-0.25533580780029297,-2.5207953453063965
1725892491046646500,21.415646484375,0.34391069412231445,1.2632737159729004,-1.3187644481658936
1725892491065494800,21.434494873046877,-0.13883304595947266,2.083104133605957,-0.6358747482299805
1725892491084343000,21.453343017578124,-0.318387508392334,0.9438905715942383,0.8275911808013916
1725892491103191300,21.47219140625,-0.6868505477905273,0.1894989013671875,-0.5261034965515137
1725892491122039600,21.49103955078125,-0.27434825897216797,1.283555507659912,-0.04734063148498535
1725892491140888000,21.50988818359375,-0.04621553421020508,0.7131137847900391,1.2956523895263672
1725892491159736300,21.528736328125,-2.8173513412475586,-2.6427407264709473,0.49822092056274414
1725892491178584600,21.54758447265625,-5.821281433105469,-4.356750965118408,1.0541181564331055
1725892491197432800,21.566432861328124,-4.124714374542236,-7.083252906799316,3.9846930503845215
1725892491216281000,21.585281005859375,-2.064727306365967,-8.4446382522583,0.9399375915527344
1725892491235129300,21.60412939453125,0.29883718490600586,-4.057276248931885,0.148482084274292
1725892491253977900,21.622977783203126,0.6249027252197266,-0.8572196960449219,1.2051339149475098
1725892491272826000,21.641826171875,-0.31681108474731445,0.993523120880127,0.4540886878967285
1725892491291674400,21.66067431640625,-0.23202228546142578,2.37020206451416,1.5242929458618164
1725892491310522600,21.679522705078124,2.1280031204223633,1.1006765365600586,2.2056808471679688
1725892491329371000,21.698370849609375,4.541284084320068,-0.29314231872558594,1.3733038902282715
1725892491348219100,21.71721923828125,4.577271938323975,-0.8129668235778809,-0.34905171394348145
1725892491367067400,21.7360673828125,2.496593475341797,0.7043046951293945,-3.9069888591766357
1725892491385916000,21.754916015625,1.9198360443115234,2.747321844100952,-1.4052660465240479
1725892491404764200,21.77376416015625,2.179387092590332,3.063659191131592,-2.293198347091675
1725892491423612400,21.7926123046875,-1.4548101425170898,2.9174513816833496,-4.577775955200195
1725892491442460700,21.811460693359376,-4.696063041687012,-1.4991121292114258,-0.1539292335510254
1725892491461309000,21.830308837890627,1.732574462890625,-7.150425910949707,2.5507006645202637
1725892491480157200,21.8491572265625,0.8078956604003906,-1.5778167247772217,0.675786018371582
1725892491499005700,21.868005615234374,-0.5721588134765625,2.610297679901123,-1.333309531211853
1725892491517854000,21.88685400390625,1.7167143821716309,2.754420757293701,-1.441634178161621
1725892491536702200,21.9057021484375,2.70871639251709,1.6302458047866821,-0.6455349922180176
1725892491555550500,21.924550537109376,4.6066741943359375,0.7362501621246338,-1.4803026914596558
1725892491574398700,21.943398681640623,3.329456329345703,3.0416760444641113,-2.0497162342071533
1725892491593247000,21.9622470703125,2.645260810852051,4.617386341094971,-1.6376440525054932
1725892491612095500,21.981095458984374,1.4526519775390625,5.579395294189453,-3.2594830989837646
1725892491630943700,21.99994384765625,0.5301809310913086,2.9607362747192383,1.25150465965271
1725892491649792000,22.0187919921875,3.405872344970703,-5.058256149291992,-0.03594660758972168
1725892491668640300,22.03764013671875,4.204450607299805,-1.5124316215515137,-2.8489620685577393
1725892491687488500,22.056488525390623,0.5706996917724609,4.627200126647949,-2.329139232635498
1725892491706337000,22.0753369140625,-1.7634577751159668,5.537240982055664,-2.5640945434570312
1725892491725185300,22.094185302734374,-1.7523818016052246,1.722830057144165,-1.295931100845337
1725892491744033500,22.113033447265625,1.6319513320922852,-3.316068649291992,2.5284838676452637
1725892491762881800,22.1318818359375,3.422440528869629,-4.684559345245361,-0.1381394863128662
1725892491781730000,22.15072998046875,1.4019122123718262,0.34074831008911133,-1.2830696105957031
1725892491800578300,22.169578369140623,-0.5006418228149414,1.3846545219421387,0.18413853645324707
1725892491819426800,22.1884267578125,0.32990217208862305,-0.561309814453125,-0.16466164588928223
1725892491838275000,22.207275146484374,-0.7501339912414551,-2.328512668609619,2.154409885406494
1725892491857123300,22.226123291015625,-0.8811855316162109,-4.877285957336426,2.519111156463623
1725892491875971600,22.2449716796875,-0.5626997947692871,-2.235384464263916,1.0881569385528564
1725892491894820000,22.263820068359376,-1.1707711219787598,1.709653377532959,-1.4257259368896484
1725892491913668400,22.28266845703125,-2.586453914642334,3.228732109069824,-0.7746891975402832
1725892491932516600,22.3015166015625,-3.0150585174560547,-1.524083137512207,2.1520113945007324
1725892491951364900,22.32036474609375,-3.2326393127441406,-7.726195335388184,2.9997715950012207
1725892491970213000,22.339213134765625,-2.187511444091797,-5.9050397872924805,0.5961239337921143
1725892491989061600,22.3580615234375,-1.0015263557434082,-4.6080780029296875,1.1809792518615723
1725892492007910000,22.376909912109376,-1.2705016136169434,-2.969454765319824,0.4075338840484619
1725892492026758100,22.395758056640624,-1.5665082931518555,-0.07556533813476562,2.670717239379883
1725892492045606400,22.4146064453125,-1.1166176795959473,0.2440967559814453,1.3355727195739746
1725892492064454700,22.43345458984375,-1.205380916595459,0.43852949142456055,-0.22989726066589355
1725892492083303200,22.45230322265625,-0.3904705047607422,-1.1224660873413086,0.6636977195739746
1725892492102151400,22.4711513671875,0.1587848663330078,-1.5593109130859375,-0.6370890140533447
1725892492120999700,22.489999755859376,0.8190450668334961,0.21598148345947266,-3.6000850200653076
1725892492139848000,22.508847900390624,1.876138687133789,0.16094398498535156,-1.457474708557129
1725892492158696400,22.527696533203127,1.5676941871643066,0.3652963638305664,-1.1142382621765137
1725892492177544700,22.546544677734374,0.7915749549865723,1.8160600662231445,-0.2696413993835449
1725892492196393000,22.56539306640625,0.20054101943969727,2.838399887084961,0.9454004764556885
1725892492215241200,22.5842412109375,-1.1894612312316895,2.4306869506835938,-0.9601080417633057
1725892492234089500,22.60308935546875,-1.7963919639587402,0.2400679588317871,2.310368061065674
1725892492252938000,22.62193798828125,-4.158681392669678,-4.915768623352051,2.34488582611084
1725892492271786200,22.6407861328125,-3.448011875152588,-6.45612907409668,4.481141090393066
1725892492290634500,22.659634521484374,1.5925731658935547,-2.977715492248535,0.3092775344848633
1725892492309483000,22.67848291015625,3.7056522369384766,1.0682315826416016,-2.964478015899658
1725892492328331300,22.697331298828125,-1.1466660499572754,2.2259745597839355,-1.6002156734466553
1725892492347179500,22.716179443359376,-2.556593418121338,-2.337707042694092,2.1786391735076904
1725892492366027800,22.73502783203125,-1.2569141387939453,-2.573444366455078,1.0427136421203613
1725892492384876000,22.7538759765625,-2.653438091278076,-0.893805980682373,2.393972873687744
1725892492403724500,22.772724609375,-0.19468927383422852,-4.257784843444824,2.166830062866211
1725892492422572800,22.79157275390625,2.166830062866211,-4.846973896026611,0.504845142364502
1725892492441421000,22.810421142578125,2.850668430328369,-3.487154483795166,0.23995614051818848
1725892492460269600,22.82926953125,4.886407852172852,-1.252016544342041,-1.1375937461853027
1725892492479117800,22.848117919921876,3.29327392578125,3.1917529106140137,-3.0982065200805664
1725892492497966000,22.866966064453123,0.03458881378173828,5.9257121086120605,-1.776328206062317
1725892492516814300,22.885814453125,2.3225231170654297,1.5569994449615479,-1.689651370048523
1725892492535662600,22.90466259765625,4.283815383911133,-2.489074230194092,-1.049530029296875
1725892492554511000,22.923510986328125,2.1600165367126465,-0.5641894340515137,-1.4134527444839478
1725892492573359400,22.942359375,1.9614677429199219,2.413839817047119,-0.9646289348602295
1725892492592207600,22.96120751953125,3.597085952758789,1.6426374912261963,-2.839944362640381
1725892492611056000,22.98005615234375,2.3934326171875,2.3002820014953613,-1.563204288482666
1725892492629904400,22.998904296875,1.6933879852294922,3.937778949737549,-0.9616456031799316
1725892492648752600,23.017752685546874,2.0346198081970215,2.8734278678894043,-1.3888468742370605
1725892492667601000,23.036600830078125,0.4400787353515625,2.2340588569641113,-1.9193613529205322
1725892492686449400,23.055449462890625,-1.3666744232177734,-0.2595827579498291,1.9805529117584229
1725892492705297700,23.074297607421876,0.9207239151000977,-0.5210916996002197,1.6215040683746338
1725892492724146000,23.09314599609375,2.10836124420166,1.0882983207702637,-0.7980899810791016
1725892492742994400,23.111994384765627,1.2219910621643066,1.902841567993164,-1.229366660118103
1725892492761842700,23.1308427734375,0.42642831802368164,3.005265712738037,-0.9411399364471436
1725892492780691000,23.14969091796875,1.6226897239685059,1.6743006706237793,-0.09846234321594238
1725892492799539200,23.168539306640625,1.900536060333252,0.47708940505981445,-3.2112109661102295
1725892492818387500,23.187387451171876,0.284700870513916,2.4778928756713867,-1.3946889638900757
1725892492837236000,23.206236083984376,1.1748600006103516,0.6455864906311035,-0.6845712661743164
1725892492856084200,23.225084228515627,2.726919174194336,-1.0106730461120605,-0.8443517684936523
1725892492874932500,23.243932373046874,2.4475698471069336,-0.27312612533569336,-1.1894643306732178
1725892492893781000,23.262781005859374,2.6208858489990234,-1.2214670181274414,-1.4077460765838623
1725892492912629200,23.281629150390625,2.6636524200439453,0.2807497978210449,-2.0087454319000244
1725892492931477500,23.3004775390625,-0.018653392791748047,1.8188838958740234,-0.10551667213439941
1725892492950326000,23.319325927734376,-2.5625715255737305,-0.48822498321533203,1.9313445091247559
1725892492969174300,23.33817431640625,-2.5387344360351562,-5.680718898773193,4.325488090515137
1725892492988022800,23.357022705078126,-2.1563239097595215,-8.88500690460205,3.3002073764801025
1725892493006871000,23.37587109375,-2.563892364501953,-5.273841857910156,0.7247941493988037
1725892493025719300,23.39471923828125,-0.6180634498596191,-0.7812871932983398,-1.7296026945114136
1725892493044567600,23.413567626953125,-1.3633003234863281,0.3613872528076172,-2.434145450592041
1725892493063416000,23.432416015625,-2.9409217834472656,0.825984001159668,-0.04149937629699707
1725892493082264300,23.451264404296875,-2.6736230850219727,-1.7555065155029297,4.005163192749023
1725892493101112800,23.47011279296875,-2.7899343967437744,-2.114546775817871,1.726614236831665
1725892493119961000,23.488961181640626,-1.1375072002410889,-0.7879886627197266,1.1497201919555664
1725892493138809300,23.507809326171873,-0.36045145988464355,0.3936643600463867,0.20006155967712402
1725892493157657600,23.52665771484375,0.5445873737335205,-0.6813135147094727,1.8086445331573486
1725892493176506000,23.545506103515624,-0.41481542587280273,-1.625971794128418,1.1274819374084473
1725892493195354400,23.564354248046875,-1.1575641632080078,-0.8598814010620117,-0.18859481811523438
1725892493214202600,23.58320263671875,-1.0395116806030273,-1.7004575729370117,1.6329264640808105
1725892493233051000,23.60205078125,-1.259936809539795,-1.6039981842041016,0.36513447761535645
1725892493282514000,23.651513916015624,1.0359563827514648,1.349928379058838,-0.9210710525512695
