time,seconds_elapsed,z,y,x
1725892469682116000,0.0511162109375,0.08429934084415436,-0.24236060678958893,0.06299543380737305
1725892469700964400,0.06996435546875,0.043982263654470444,-0.3006981909275055,0.07368556410074234
1725892469719812600,0.0888125,0.01954767294228077,-0.3889681398868561,0.2135736048221588
1725892469738660900,0.107660888671875,-0.013744457624852657,-0.3929387629032135,0.36506807804107666
1725892469757508900,0.1265087890625,-0.08949168771505356,-0.4021017551422119,0.46402814984321594
1725892469776357000,0.145357177734375,-0.22479823231697083,-0.5444332361221313,0.5275580883026123
1725892469795205000,0.164205078125,-0.29901832342147827,-0.6320923566818237,0.6976839303970337
1725892469814053400,0.183053466796875,-0.10690133273601532,-0.6519454121589661,1.1124610900878906
1725892469832901600,0.201901611328125,0.043982263654470444,-0.8727730512619019,1.6936990022659302
1725892469851749600,0.22074951171875,-0.022907428443431854,-1.0062470436096191,1.914221167564392
1725892469870598000,0.239597900390625,-0.2260199636220932,-1.00288724899292,1.485088586807251
1725892469889446100,0.258446044921875,-0.44379326701164246,-0.37491825222969055,0.561766505241394
1725892469908294400,0.27729443359375,-0.593149721622467,0.38560840487480164,-0.43913543224334717
1725892469927142400,0.296142333984375,-0.6530144214630127,0.5746710300445557,-1.1480439901351929
1725892469945990700,0.31499072265625,-0.6432406306266785,0.2942841053009033,-1.3502402305603027
1725892469964838700,0.333838623046875,-0.7589994668960571,-0.22617268562316895,-1.1990512609481812
1725892469983687000,0.35268701171875,-0.9669989347457886,-0.8022181987762451,-0.9311869740486145
1725892470002535200,0.37153515625,-0.8610138893127441,-1.753029227256775,-0.8936188220977783
1725892470021383200,0.390383056640625,-0.7348703145980835,-3.4045021533966064,-0.8071814775466919
1725892470040231400,0.4092314453125,-1.0937533378601074,-3.2557566165924072,-0.7995456457138062
1725892470059079700,0.42807958984375,-0.9773836731910706,-2.1500914096832275,-0.7329613566398621
1725892470077927700,0.446927734375,-0.5913171172142029,-0.597273051738739,-0.4855611324310303
1725892470096776000,0.46577587890625,-0.38209593296051025,0.708450436592102,-0.4064541459083557
1725892470115624200,0.484624267578125,-0.37751442193984985,1.6323834657669067,-0.5371792316436768
1725892470134472200,0.50347216796875,-0.43921178579330444,2.2368340492248535,-0.7274636030197144
1725892470153320400,0.522320556640625,-0.4975493550300598,2.1024439334869385,-0.7824414372444153
1725892470172168700,0.541168701171875,-0.4474584460258484,1.0887137651443481,-0.678288996219635
1725892470191016700,0.5600166015625,-0.09682206809520721,0.6110175251960754,-0.48159050941467285
1725892470209865000,0.578864990234375,0.3500255048274994,1.4445425271987915,-0.1914297491312027
1725892470228713200,0.597713134765625,0.33017241954803467,2.143677234649658,0.42218393087387085
1725892470247561200,0.616561279296875,0.1233946830034256,2.112217664718628,1.10635244846344
1725892470266409500,0.635409423828125,0.23457208275794983,1.7151556015014648,1.4905864000320435
1725892470285257700,0.6542578125,0.8023709058761597,1.760359525680542,1.858327031135559
1725892470304106000,0.67310595703125,1.7259984016418457,0.9897536635398865,1.8604650497436523
1725892470322954000,0.6919541015625,2.4346015453338623,-0.10949750989675522,2.043724536895752
1725892470341802200,0.71080224609375,1.9214751720428467,-1.3443607091903687,2.62251877784729
1725892470360650200,0.729650146484375,0.46486809849739075,-0.8471167087554932,3.4432156085968018
1725892470379498500,0.74849853515625,-0.05803215503692627,-1.0874919891357422,2.8415138721466064
1725892470398346800,0.7673466796875,0.7269290685653687,-3.118006467819214,2.1466550827026367
1725892470417194800,0.78619482421875,1.9129230976104736,-3.7374234199523926,2.1567344665527344
1725892470436043000,0.80504296875,2.3481643199920654,-4.149451732635498,2.884885311126709
1725892470454891300,0.823891357421875,2.878089427947998,-3.659843683242798,3.734598159790039
1725892470473739500,0.842739501953125,3.758345603942871,-2.567922830581665,3.9093055725097656
1725892470492587500,0.86158740234375,4.588510990142822,-3.0187411308288574,3.0293548107147217
1725892470511435800,0.880435791015625,4.9131855964660645,-3.4942991733551025,2.128023862838745
1725892470530283800,0.89928369140625,5.023446559906006,-3.4891068935394287,1.7111085653305054
1725892470549132000,0.918132080078125,4.960527420043945,-2.941771984100342,1.429194450378418
1725892470567980300,0.936980224609375,4.967247009277344,-2.2673773765563965,1.0064760446548462
1725892470586828300,0.955828369140625,4.861567497253418,-1.65987229347229,0.5562687516212463
1725892470605676500,0.974676513671875,4.413803577423096,-1.6717841625213623,0.2502254843711853
1725892470624524800,0.99352490234375,4.008494853973389,-1.6604832410812378,0.46341729164123535
1725892470643372800,1.012372802734375,3.6703810691833496,-1.1015418767929077,0.7975603342056274
1725892470662221000,1.031220947265625,2.8539602756500244,-0.698676586151123,0.572151243686676
1725892470681069300,1.0500693359375,1.8894047737121582,-0.43172869086265564,-0.003283398225903511
1725892470699917300,1.068917236328125,1.2452478408813477,-0.4088212549686432,-0.16302454471588135
1725892470718765600,1.087765625,0.8118392825126648,-2.5126395225524902,0.31009024381637573
1725892470737613600,1.106613525390625,0.7617483735084534,-2.8544185161590576,1.3271801471710205
1725892470756461800,1.1254619140625,-0.1380554437637329,-3.1009023189544678,1.0037271976470947
1725892470775310000,1.14431005859375,-0.5323686599731445,-3.665341377258301,0.41729700565338135
1725892470794158300,1.163158447265625,-0.6356047987937927,-3.317148447036743,1.1698824167251587
1725892470813006300,1.18200634765625,-0.9312633275985718,-0.7625119686126709,2.080070972442627
1725892470831854600,1.2008544921875,-0.546113133430481,-0.21120649576187134,0.1066722646355629
1725892470850702800,1.219702880859375,0.3026835024356842,0.6693550944328308,-0.12728895246982574
1725892470869550800,1.23855078125,0.328645259141922,0.5187768936157227,0.7890082001686096
1725892470888399000,1.257399169921875,0.19792018830776215,0.12263110280036926,1.3561961650848389
1725892470907247000,1.2762470703125,0.13164135813713074,0.5380191802978516,-0.07108938694000244
1725892470926095400,1.295095458984375,-0.1737910360097885,0.70753413438797,0.3210858106613159
1725892470944943600,1.313943603515625,-0.3384190797805786,0.7078395485877991,0.22579088807106018
1725892470963792000,1.3327919921875,-0.2672533392906189,0.670576810836792,0.16165009140968323
1725892470982639900,1.351639892578125,-0.3295615613460541,0.6134609580039978,0.1417969912290573
1725892471001488100,1.370488037109375,-0.5192350745201111,0.35017824172973633,0.09781472384929657
1725892471020336400,1.38933642578125,-0.3246746361255646,0.3761399984359741,0.1738673895597458
1725892471039184400,1.408184326171875,-0.053145237267017365,-0.4387536346912384,-0.05459604039788246
1725892471058032600,1.42703271484375,-0.01282816007733345,-0.6449204683303833,0.17417281866073608
1725892471076881000,1.445880859375,-0.1389717310667038,0.2280052751302719,0.27985242009162903
1725892471095729000,1.46472900390625,-0.24709481000900269,0.5181660652160645,-0.520380437374115
1725892471114577200,1.4835771484375,-0.18723005056381226,-0.8239038586616516,0.07338013499975204
1725892471133425400,1.50242529296875,-0.001221729558892548,-1.2738057374954224,1.2437970638275146
1725892471152273700,1.521273681640625,0.029016077518463135,-0.652556300163269,0.6610320210456848
1725892471171121700,1.54012158203125,-0.2571740746498108,0.31444263458251953,0.581314206123352
1725892471189970000,1.558969970703125,-0.34055712819099426,0.42623090744018555,0.663780927658081
1725892471208818000,1.57781787109375,-0.36835145950317383,-0.15806126594543457,1.086804747581482
1725892471227666200,1.596666259765625,-0.5045742988586426,-0.2603811025619507,1.2975531816482544
1725892471246514400,1.615514404296875,-0.3744601011276245,0.596662163734436,1.06206476688385
1725892471265362700,1.63436279296875,-0.39889469742774963,0.697760283946991,0.7874810695648193
1725892471284210700,1.653210693359375,-0.3909534513950348,0.11407899856567383,1.154305338859558
1725892471303059000,1.672058837890625,-0.4068359434604645,0.16294817626476288,1.1680498123168945
1725892471321907200,1.6909072265625,-0.2409861534833908,0.009315688163042068,0.9383646845817566
1725892471340755500,1.70975537109375,-0.3430005609989166,0.5707004070281982,0.6213258504867554
1725892471359603500,1.728603515625,-0.5778780579566956,1.3758201599121094,0.4154644012451172
1725892471378451700,1.74745166015625,-0.6530144214630127,1.522733211517334,0.043142326176166534
1725892471397300000,1.766300048828125,-0.29901832342147827,-0.4225656986236572,0.22579088807106018
1725892471416148000,1.78514794921875,0.35063639283180237,-1.9045236110687256,0.7819832563400269
1725892471434996200,1.803996337890625,0.3952295184135437,-1.0147991180419922,0.33544111251831055
1725892471453844500,1.822844482421875,-0.28985533118247986,0.28817546367645264,-0.23449571430683136
1725892471472692700,1.841692626953125,-0.6221657991409302,0.32330018281936646,-0.30657777190208435
1725892471491540700,1.860540771484375,0.008857538923621178,-1.9326233863830566,-0.0066431546583771706
1725892471510389000,1.879388916015625,0.30085089802742004,-2.50317120552063,0.3180314898490906
1725892471529237200,1.8982373046875,-0.013744457624852657,-1.494633436203003,-0.6388881802558899
1725892471548085200,1.917085205078125,-0.4462367296218872,-0.6653844714164734,-1.2974004745483398
1725892471566933500,1.93593359375,-0.17562362551689148,-0.22678354382514954,-1.2622756958007812
1725892471585781800,1.95478173828125,0.9004147052764893,-0.921336829662323,-1.6370412111282349
1725892471604630000,1.973630126953125,0.03237583488225937,0.4689914286136627,-1.8520656824111938
1725892471623478000,1.99247802734375,-0.6924152374267578,1.197447657585144,-2.072282314300537
1725892471642326300,2.011326171875,0.38789913058280945,0.5746710300445557,-1.6327651739120483
1725892471661174500,2.030174560546875,0.8848376274108887,0.29794928431510925,-1.770209789276123
1725892471680022500,2.0490224609375,0.9034690260887146,0.31719154119491577,-1.8129702806472778
1725892471698870800,2.067870849609375,0.5503891706466675,0.45127636194229126,-1.9980623722076416
1725892471717719000,2.086718994140625,0.8652899861335754,0.18524473905563354,-1.1904990673065186
1725892471736567300,2.1055673828125,0.25534147024154663,0.7765618562698364,-1.8004475831985474
1725892471755415600,2.12441552734375,0.11606431007385254,1.6412409543991089,-1.9418628215789795
1725892471774263600,2.143263671875,0.31551164388656616,0.11804962158203125,-1.3447424173355103
1725892471793111800,2.16211181640625,0.9498947262763977,-0.6253728270530701,-0.5887972712516785
1725892471811960000,2.1809599609375,0.45998117327690125,0.3361283540725708,-1.4699697494506836
1725892471830808300,2.199808349609375,0.24220788478851318,0.6131555438041687,-1.3053417205810547
1725892471849656300,2.21865625,0.2837466895580292,1.2359321117401123,-1.3368011713027954
1725892471868504600,2.237504638671875,0.8313869833946228,0.2585485279560089,-1.447367787361145
1725892471887352800,2.256352783203125,-0.012217295356094837,1.3526073694229126,-1.9748494625091553
1725892471906201000,2.275201171875,0.4474584460258484,0.12476912885904312,-0.8059597015380859
1725892471925049000,2.294049072265625,0.7040216326713562,-0.6317868828773499,-0.11720968037843704
1725892471943897300,2.3128974609375,-0.7550288438796997,2.2756240367889404,-1.2760201692581177
1725892471962745600,2.33174560546875,0.8261946439743042,-0.3559814393520355,-0.6929497122764587
1725892471981593900,2.35059375,-0.25809037685394287,0.12415826320648193,-0.22930335998535156
1725892472000441900,2.36944189453125,-0.3992001414299011,1.4628684520721436,-1.1260528564453125
1725892472019290000,2.3882900390625,0.6878337264060974,-1.2142465114593506,0.7456368207931519
1725892472038138400,2.407138427734375,-0.2971857190132141,-0.7304415702819824,-0.31268641352653503
1725892472056986600,2.425986572265625,0.035124726593494415,-0.7939714789390564,0.2807687222957611
1725892472075835000,2.4448349609375,-0.9761618971824646,1.149800181388855,0.35040730237960815
1725892472094683000,2.463682861328125,0.09040798991918564,-2.157116174697876,1.0559561252593994
1725892472113531100,2.48253125,0.3072649836540222,-0.23716825246810913,0.7010436654090881
1725892472132379400,2.50137939453125,-0.06383536756038666,0.14889828860759735,0.9460004568099976
1725892472151227600,2.5202275390625,0.34666576981544495,-0.6556106209754944,0.8803325295448303
1725892472170076000,2.539075927734375,0.006719512399286032,-0.7670934200286865,0.9007964730262756
1725892472188924000,2.557923828125,0.08552107214927673,0.28695371747016907,1.6136757135391235
1725892472207772200,2.576772216796875,0.8399390578269958,-1.0557270050048828,2.6481752395629883
1725892472226620400,2.595620361328125,0.14782927930355072,0.7512109875679016,1.5858813524246216
1725892472245468700,2.61446875,0.5537489056587219,1.2756383419036865,0.9026290774345398
1725892472264317000,2.63331689453125,0.4147771894931793,2.062126874923706,0.48449212312698364
1725892472283165000,2.6521650390625,0.4526508152484894,0.33948808908462524,-1.258915901184082
1725892472302013200,2.67101318359375,1.3002257347106934,-0.42012226581573486,1.7816635370254517
1725892472320861400,2.689861328125,0.526565432548523,-1.4662281274795532,2.6576435565948486
1725892472339709700,2.708709716796875,0.9291253089904785,0.5710058808326721,2.1747548580169678
1725892472358558000,2.727557861328125,0.7385355234146118,-0.042913250625133514,0.2199876755475998
1725892472377406200,2.74640625,0.09834922850131989,2.0807580947875977,-0.8059597015380859
1725892472396254200,2.765254150390625,-0.3897317349910736,2.246608018875122,-1.3939170837402344
1725892472415102500,2.7841025390625,-0.38179048895835876,1.3700169324874878,-0.5542834401130676
1725892472433950700,2.80295068359375,-0.2663370370864868,1.0233511924743652,-0.5249619483947754
1725892472452799000,2.821799072265625,0.5571087002754211,0.33826637268066406,0.23770275712013245
1725892472471647200,2.840647216796875,0.44501498341560364,0.3917170464992523,-0.20761767029762268
1725892472490495500,2.85949560546875,0.42791077494621277,0.8526145219802856,-0.24579671025276184
1725892472509343700,2.87834375,-0.6472112536430359,1.1846195459365845,-0.06986765563488007
1725892472528191700,2.897191650390625,-0.9749401807785034,2.078314781188965,-0.7751110196113586
1725892472547040000,2.9160400390625,-0.022907428443431854,2.1381795406341553,-0.30627232789993286
1725892472565888300,2.93488818359375,1.0293071269989014,-0.2124282270669937,0.682412326335907
1725892472584736500,2.953736572265625,0.9960150122642517,0.3315468728542328,0.3904189467430115
1725892472603584800,2.972584716796875,-0.9489784240722656,0.7872520089149475,-3.8468446731567383
1725892472622433000,2.99143310546875,-0.7623592615127563,0.17088942229747772,-1.9904265403747559
1725892472641281000,3.010281005859375,-0.5717694163322449,1.5306744575500488,0.646065890789032
1725892472660129300,3.02912939453125,-0.04917461425065994,1.9225441217422485,-1.602221965789795
1725892472678977500,3.0479775390625,1.0512982606887817,0.3526217043399811,0.12041672319173813
1725892472697825800,3.06682568359375,-0.0818558782339096,-1.0719150304794312,0.4206567704677582
1725892472716674000,3.085674072265625,-0.45967575907707214,1.2307398319244385,-0.4580722153186798
1725892472735522300,3.104522216796875,0.2620609998703003,0.9527963399887085,1.3769655227661133
1725892472754370600,3.12337060546875,-0.8426879644393921,-0.07651081681251526,-1.1336886882781982
1725892472773218800,3.14221875,-0.05222893878817558,-0.5710058808326721,0.5947532057762146
1725892472792066800,3.16106689453125,0.6847794055938721,-2.0129520893096924,2.519282817840576
1725892472810915000,3.1799150390625,-0.09162971377372742,0.6006327867507935,0.5287798047065735
1725892472829763300,3.198763427734375,-0.08582650125026703,0.53221595287323,1.0498474836349487
1725892472848611600,3.217611572265625,-1.0409135818481445,-1.0447314977645874,0.42279478907585144
1725892472867459800,3.2364599609375,-1.0833686590194702,0.6192641854286194,0.9463059306144714
1725892472886308000,3.25530810546875,0.03145953640341759,1.5105159282684326,1.4386628866195679
1725892472905156400,3.27415625,-0.2675587832927704,-0.8645263910293579,-0.24640758335590363
1725892472924004600,3.293004638671875,-0.8298597931861877,-1.0682498216629028,0.00038179047987796366
1725892472942852600,3.3118525390625,1.1603376865386963,0.9723440408706665,2.5815908908843994
1725892472961700900,3.330700927734375,0.832608699798584,-0.18463388085365295,-0.017944153398275375
1725892472980549000,3.349549072265625,0.034208428114652634,-1.2231040000915527,-0.22380557656288147
1725892472999397400,3.3683974609375,0.364991694688797,0.023976443335413933,1.1188751459121704
1725892473018245600,3.38724560546875,0.1545487940311432,1.7114903926849365,-0.5325977206230164
1725892473037094000,3.406093994140625,0.7504473924636841,1.1962260007858276,-0.02802342176437378
1725892473055942100,3.424942138671875,0.3381136655807495,-0.49800750613212585,-0.7934370040893555
1725892473074790400,3.443790283203125,0.31581708788871765,0.05299251899123192,-0.6010146141052246
1725892473093638700,3.462638671875,1.1013891696929932,1.8388557434082031,0.9936479330062866
1725892473112487000,3.48148681640625,0.729983389377594,0.5300779342651367,1.068784236907959
1725892473131335200,3.500335205078125,-1.5326597690582275,-0.6928733587265015,-0.9950223565101624
1725892473150183400,3.519183349609375,-3.2204790115356445,1.9381211996078491,0.28779366612434387
1725892473169031400,3.538031494140625,-4.565908908843994,3.1818418502807617,-0.2980256676673889
1725892473187879700,3.556879638671875,-4.4556474685668945,2.5780019760131836,-0.11568251997232437
1725892473206728000,3.57572802734375,-4.178009510040283,2.6103780269622803,0.9475276470184326
1725892473225576200,3.594576171875,-4.012159824371338,-0.4072940945625305,2.4753005504608154
1725892473244424400,3.613424560546875,-4.133111000061035,-0.8559742569923401,4.527500629425049
1725892473263272700,3.632272705078125,-4.2012224197387695,-0.3214675784111023,4.667083263397217
1725892473282121000,3.651120849609375,-3.490481376647949,1.0514509677886963,3.42153000831604
1725892473300969200,3.66996923828125,-2.6367979049682617,3.0211844444274902,1.9817217588424683
1725892473319817500,3.6888173828125,-2.3380849361419678,4.8913469314575195,0.8302416205406189
1725892473338665700,3.707665771484375,-2.008523464202881,5.3213958740234375,-0.6795107126235962
1725892473357514000,3.726513916015625,-1.9843941926956177,5.713571071624756,-2.6938374042510986
1725892473376362200,3.7453623046875,-1.3817760944366455,3.9274024963378906,-3.7136759757995605
1725892473395210500,3.76421044921875,-0.7040216326713562,1.5877902507781982,-3.5872271060943604
1725892473414058800,3.783058837890625,-0.19425499439239502,-0.42042768001556396,-3.102505922317505
1725892473432907000,3.801906982421875,0.2984074354171753,-1.689193844795227,-2.4891977310180664
1725892473451755300,3.82075537109375,0.9181297421455383,-2.338237762451172,-2.230496406555176
1725892473470603500,3.839603515625,1.672242283821106,-0.9497420191764832,-2.4760639667510986
1725892473489451500,3.858451416015625,2.327700138092041,-0.6766854524612427,-2.037768602371216
1725892473508299800,3.8772998046875,2.6783366203308105,-0.9775363802909851,-1.9510257244110107
1725892473527148000,3.89614794921875,3.034165382385254,-1.596953272819519,-2.1293983459472656
1725892473545996300,3.914996337890625,3.289201498031616,-2.5517349243164062,-1.9717952013015747
1725892473564844500,3.933844482421875,2.9016077518463135,-3.537365198135376,-1.3016765117645264
1725892473583692800,3.95269287109375,2.0360124111175537,-3.796677350997925,-0.8594104051589966
1725892473602541000,3.971541015625,1.7385212182998657,-3.092961072921753,-1.3413827419281006
1725892473621389300,3.990389404296875,1.9022328853607178,-2.140317440032959,-2.22286057472229
1725892473640237600,4.009237548828125,2.145357131958008,-3.0413429737091064,-2.8392231464385986
1725892473659085800,4.0280859375,2.4859142303466797,-3.7569711208343506,-2.9088616371154785
1725892473677934000,4.04693408203125,2.260199785232544,-2.5743370056152344,-2.0976333618164062
1725892473696782300,4.0657822265625,2.5851798057556152,-1.985463261604309,-0.9815833568572998
1725892473715630600,4.084630615234375,1.5604541301727295,-1.0450369119644165,-0.33223408460617065
1725892473734478800,4.103478759765625,1.0341941118240356,-0.9137009978294373,0.019013166427612305
1725892473753327000,4.1223271484375,0.9199623465538025,-1.4665336608886719,0.33941173553466797
1725892473772175400,4.14117529296875,0.6157516837120056,-1.718515396118164,0.5052615404129028
1725892473791023600,4.160023681640625,0.34208428859710693,-1.9799654483795166,0.42248934507369995
1725892473809872000,4.178871826171875,0.5369501113891602,-1.8104504346847534,0.20502148568630219
1725892473828720000,4.19772021484375,1.1310161352157593,-1.9201006889343262,0.05322159454226494
1725892473847568400,4.216568359375,1.155145287513733,-1.3434443473815918,-0.10010546445846558
1725892473866416600,4.235416748046875,0.6420188546180725,-0.8684970140457153,-0.2329685539007187
1725892473885265000,4.254264892578125,0.6374374032020569,-0.21456626057624817,-0.11201732605695724
1725892473904113200,4.273113037109375,0.7247910499572754,0.3529271185398102,0.13935352861881256
1725892473922961400,4.29196142578125,0.6783653497695923,0.19165882468223572,0.29390230774879456
1725892473941809700,4.3108095703125,0.5039634704589844,-0.6311760544776917,0.29390230774879456
1725892473960658000,4.329657958984375,0.5946768522262573,-1.1946988105773926,0.24197880923748016
1725892473979506200,4.348506103515625,0.7654135823249817,-1.2322670221328735,0.1787542998790741
1725892473998354400,4.3673544921875,0.6334667801856995,-1.1155917644500732,0.16226094961166382
1725892474017202700,4.38620263671875,0.4147771894931793,-0.7026472091674805,0.20318889617919922
1725892474036051000,4.405051025390625,0.3787361681461334,-0.4228711426258087,0.27985242009162903
1725892474054899200,4.423899169921875,0.35063639283180237,-0.4445568323135376,0.31039565801620483
1725892474073754400,4.44275439453125,0.258395791053772,-0.5563451051712036,0.270689457654953
1725892474092603100,4.46160302734375,0.13133592903614044,-0.8544471263885498,0.2774089574813843
1725892474111444000,4.48044384765625,-0.08429934084415436,-1.1687370538711548,0.3644571900367737
1725892474130292200,4.499292236328125,-0.347582072019577,-1.4155263900756836,0.4808269441127777
1725892474149140500,4.518140380859375,-1.0992511510849,-2.3229660987854004,0.10422880202531815
1725892474167988700,4.53698876953125,-1.6658282279968262,-2.125962257385254,-0.37865981459617615
1725892474186837000,4.5558369140625,-1.2412772178649902,-1.3278672695159912,-0.5405389666557312
1725892474205685200,4.574685302734375,-0.685084879398346,-0.7579304575920105,-0.4171442985534668
1725892474224533500,4.593533447265625,-0.37720900774002075,-0.28328853845596313,-0.13187043368816376
1725892474243381800,4.6123818359375,-0.6707295179367065,-0.41218101978302,0.18516838550567627
1725892474262230000,4.63122998046875,-1.0870338678359985,-0.6724094152450562,0.44295331835746765
1725892474281078300,4.650078369140625,-1.1707223653793335,-0.8623883724212646,0.673249363899231
1725892474299926500,4.668926513671875,-1.0665699243545532,-0.9549343585968018,0.8671988844871521
1725892474318774800,4.68777490234375,-1.2159262895584106,0.10430516302585602,0.756632387638092
1725892474337623000,4.706623046875,-0.9950987100601196,-1.068555235862732,0.28412848711013794
1725892474356471600,4.725471435546875,-0.8891136646270752,-0.6867647171020508,-0.13767364621162415
1725892474375319600,4.744319580078125,-0.7284562587738037,-0.615293562412262,-0.6104829907417297
1725892474394168000,4.76316796875,-0.4068359434604645,-0.7038689255714417,-0.8105412125587463
1725892474413016300,4.782016357421875,-0.5271763205528259,-0.4494437575340271,-0.7543416619300842
1725892474431864600,4.800864501953125,-0.6215549111366272,-0.8345940113067627,-0.3545306324958801
1725892474450712800,4.819712890625,-0.8109229803085327,-1.2765547037124634,-0.09094249457120895
1725892474469561000,4.83856103515625,-0.9718858599662781,-1.4540108442306519,0.049861837178468704
1725892474488409300,4.857409423828125,-0.9266818761825562,-2.4607160091400146,0.7373901605606079
1725892474507257600,4.876257568359375,-0.526565432548523,-1.5435025691986084,0.8678097724914551
1725892474526105900,4.89510595703125,-0.5659661889076233,-0.2503018379211426,0.8406262993812561
1725892474544954000,4.9139541015625,-0.5057960152626038,0.6317868828773499,0.589560866355896
1725892474563802400,4.93280224609375,-0.5662716627120972,1.2881611585617065,0.21510076522827148
1725892474582650600,4.951650634765625,-0.8008437156677246,1.1977530717849731,0.09353867173194885
1725892474601499000,4.970498779296875,-1.005788803100586,0.15470150113105774,0.1986074149608612
1725892474620347100,4.98934716796875,-0.9245438575744629,-1.4793617725372314,0.6310997009277344
1725892474639195400,5.0081953125,-0.7641918659210205,-2.565479278564453,1.227914571762085
1725892474658043600,5.027043701171875,-1.1722495555877686,-2.7389650344848633,1.6604068279266357
1725892474676892000,5.045891845703125,-1.8533637523651123,-3.9640543460845947,1.69064462184906
1725892474695740200,5.064740234375,-2.523176908493042,-3.866926670074463,1.4099522829055786
1725892474714588400,5.08358837890625,-3.419926404953003,-3.6143341064453125,1.0205259323120117
1725892474733436700,5.102436767578125,-4.0558366775512695,-3.1778712272644043,0.6906589865684509
1725892474752285200,5.12128515625,-4.070497512817383,-2.0963351726531982,0.7416661977767944
1725892474771133200,5.14013330078125,-3.735743522644043,-0.9665408134460449,0.9203441739082336
1725892474789981700,5.158981689453125,-2.5995349884033203,0.7017309069633484,0.7150935530662537
1725892474808830000,5.177829833984375,-1.0027345418930054,2.419177293777466,0.3690386712551117
1725892474827680500,5.196680419921875,0.6230821013450623,3.417635679244995,0.22273656725883484
1725892474846526500,5.2155263671875,1.9569053649902344,3.3128724098205566,0.2868773639202118
1725892474865374700,5.234374755859375,2.254396438598633,2.2899794578552246,0.28382304310798645
1725892474884223000,5.253222900390625,1.5515965223312378,1.5459460020065308,0.09048434346914291
1725892474903071200,5.2720712890625,1.2596031427383423,0.26221370697021484,-0.44982555508613586
1725892474921919500,5.29091943359375,1.5030328035354614,-0.7457131743431091,-0.6004037261009216
1725892474940767700,5.309767822265625,1.8353432416915894,-0.6412553191184998,-0.2213621288537979
1725892474959616000,5.328615966796875,2.251953125,0.18035782873630524,0.367511510848999
1725892474978464300,5.34746435546875,2.1108431816101074,0.4402807950973511,1.0031163692474365
1725892474997312500,5.3663125,1.6829324960708618,0.3410152494907379,1.6417754888534546
1725892475016160800,5.385160888671875,1.7540981769561768,0.8107702732086182,2.0791547298431396
1725892475035009000,5.404009033203125,2.2812745571136475,1.0199915170669556,2.2459206581115723
1725892475053857500,5.422857421875,2.2956297397613525,0.21212279796600342,1.8115959167480469
1725892475072705800,5.441705810546875,2.0332634449005127,0.5435169339179993,0.7053197622299194
1725892475091554000,5.460553955078125,1.9037600755691528,0.8736893534660339,1.053207278251648
1725892475110402300,5.47940234375,1.7134757041931152,1.9530874490737915,1.485088586807251
1725892475129250600,5.49825048828125,1.7498221397399902,1.578627347946167,1.5712205171585083
1725892475148098800,5.517098876953125,1.813352108001709,1.2011128664016724,1.6381102800369263
1725892475166947000,5.535947021484375,2.201862096786499,1.9222387075424194,1.487532138824463
1725892475185795300,5.55479541015625,2.3600761890411377,1.154076337814331,0.7777072191238403
1725892475204643600,5.5736435546875,2.1001532077789307,2.6720752716064453,0.28351762890815735
1725892475223491800,5.592491943359375,1.9022328853607178,2.201403856277466,-0.3762163519859314
1725892475242340000,5.611340087890625,1.6545273065567017,1.6265802383422852,-0.15783219039440155
1725892475261188600,5.630188720703125,1.361006736755371,1.3070979118347168,0.22548545897006989
1725892475280036900,5.649036865234375,1.8295400142669678,1.6042835712432861,1.6998076438903809
1725892475298885000,5.667885009765625,1.9682062864303589,2.0911428928375244,3.552560567855835
1725892475317733400,5.6867333984375,1.232419729232788,1.1406372785568237,2.395888090133667
1725892475336581600,5.70558154296875,0.20616686344146729,-1.0062470436096191,-0.3762163519859314
1725892475355430000,5.724429931640625,-0.4868592321872711,-0.5331322550773621,-0.344451367855072
1725892475374278100,5.743278076171875,0.11667517572641373,-0.7325795888900757,0.2135736048221588
1725892475393126400,5.76212646484375,0.2623664140701294,-0.5352702736854553,0.4151589870452881
1725892475411974700,5.780974609375,0.6685914993286133,-0.4552469849586487,0.3937787115573883
1725892475430823000,5.799822998046875,0.7544180154800415,-0.48884454369544983,-0.15813761949539185
1725892475449671400,5.81867138671875,0.6395754218101501,-0.4185950756072998,-0.4632645845413208
1725892475468519700,5.837519775390625,0.6200277805328369,-0.37033677101135254,-0.6208676695823669
1725892475487368000,5.856367919921875,0.3292561173439026,-0.490677148103714,-0.8096249103546143
1725892475506216200,5.87521630859375,-0.08093958348035812,-0.36544984579086304,-0.5332086086273193
1725892475525064400,5.894064453125,-0.48441576957702637,-0.21914774179458618,-0.33834272623062134
1725892475543912700,5.91291259765625,-0.7079922556877136,-0.12293653935194016,-0.5005273222923279
1725892475562761000,5.931760986328125,-0.8726203441619873,-0.017562363296747208,-0.41470083594322205
1725892475581609200,5.950609130859375,-0.9975422024726868,0.0798705667257309,-0.4537961781024933
1725892475600457500,5.96945751953125,-0.7938187718391418,0.03527744114398956,-0.8230639100074768
1725892475619306000,5.988305908203125,-0.7638863921165466,-0.35934120416641235,-0.8847612738609314
1725892475638154200,6.007154296875,-1.3472622632980347,-1.5890120267868042,-2.002338409423828
1725892475657002500,6.02600244140625,-0.934012234210968,-0.8477275967597961,-2.75981068611145
1725892475675850800,6.044850830078125,0.007635809946805239,1.1919498443603516,-1.8713078498840332
1725892475694699000,6.063698974609375,0.6380482912063599,0.6327031850814819,-0.3698022663593292
1725892475713547300,6.08254736328125,0.26878049969673157,-0.6351466774940491,0.8128319382667542
1725892475732395500,6.1013955078125,0.13591741025447845,-0.6626355648040771,0.98631751537323
1725892475751243800,6.120243896484375,0.11667517572641373,-0.425009161233902,0.6161335110664368
1725892475770092000,6.139092041015625,-0.004276053514331579,-0.02825249545276165,0.5849793553352356
1725892475788940500,6.1579404296875,0.10873392969369888,0.29825472831726074,1.0562615394592285
1725892475807788800,6.176788818359375,0.45020735263824463,0.3043633699417114,1.1485021114349365
1725892475826637000,6.195636962890625,0.2162461280822754,0.44119709730148315,1.1515564918518066
1725892475845485300,6.2144853515625,0.13133592903614044,0.6507236957550049,1.144531488418579
1725892475864333600,6.23333349609375,0.3090975880622864,0.3972148299217224,0.5929206013679504
1725892475883181800,6.252181884765625,0.16707152128219604,0.29397866129875183,0.16653701663017273
1725892475902030000,6.271030029296875,-0.29474225640296936,0.20662501454353333,0.2202931046485901
1725892475920878600,6.289878662109375,-0.20799945294857025,0.249690979719162,0.04589121788740158
1725892475939726800,6.308726806640625,-0.05253437161445618,0.1623373180627823,-0.11995857208967209
1725892475958575000,6.3275751953125,-0.31123560667037964,-0.21151192486286163,0.17936517298221588
1725892475977423400,6.34642333984375,-0.3698786199092865,-0.5169443488121033,-0.03962985426187515
1725892475996271600,6.365271728515625,-0.22296564280986786,-0.5279398560523987,-0.05887209251523018
1725892476015120000,6.384119873046875,-0.41935867071151733,-0.623845636844635,0.08895718306303024
1725892476033968000,6.402968017578125,-0.5088503360748291,-0.7780889868736267,-0.023747367784380913
1725892476052816600,6.421816650390625,-0.565049946308136,-0.7221949100494385,-0.03260490670800209
1725892476071665000,6.440664794921875,-0.7394518256187439,-0.3358229100704193,-0.13828451931476593
1725892476090513200,6.45951318359375,-0.6343830823898315,-0.09880737960338593,-0.354225218296051
1725892476109361400,6.478361328125,-0.5827649831771851,0.08536835014820099,-0.48678287863731384
1725892476128209700,6.497209716796875,-0.7929024696350098,-0.16416990756988525,-0.47212210297584534
1725892476147058000,6.516057861328125,-0.7452550530433655,-0.09392046183347702,-0.5069414377212524
1725892476165906200,6.53490625,-0.5076286196708679,0.04230238497257233,-0.42508551478385925
1725892476184754400,6.55375439453125,-0.41233372688293457,-0.0639880821108818,-0.25587597489356995
1725892476203603000,6.57260302734375,-0.56382817029953,-0.3715584874153137,0.0193185992538929
1725892476222451200,6.591451171875,-0.7024945020675659,-0.3862192630767822,0.11980585753917694
1725892476241299500,6.610299560546875,-0.8124501705169678,-0.24755294620990753,-0.053374309092760086
1725892476260147700,6.629147705078125,-0.8188642263412476,0.07681624591350555,-0.20364704728126526
1725892476278996000,6.647995849609375,-0.8353576064109802,0.1308777779340744,0.015042545273900032
1725892476297844200,6.66684423828125,-0.7794634699821472,-0.07284562289714813,0.1931096315383911
1725892476316692700,6.685692626953125,-0.5525271892547607,-0.2536616027355194,0.5489383339881897
1725892476335541000,6.704541015625,-0.210442915558815,0.024892739951610565,0.514729917049408
1725892476354389200,6.72338916015625,-0.003665188793092966,0.2707658112049103,0.6595048904418945
1725892476373237500,6.742237548828125,0.2981020212173462,0.4124864339828491,0.8726966977119446
1725892476392085800,6.761085693359375,0.23915356397628784,-0.21578797698020935,1.2593741416931152
1725892476410934000,6.77993408203125,0.12461641430854797,-0.7790052890777588,1.6039018630981445
1725892476429782500,6.798782470703125,0.02779434807598591,-0.7780889868736267,1.580078125
1725892476448630800,6.817630859375,0.05406153202056885,-0.26099199056625366,1.486310362815857
1725892476467479000,6.83647900390625,0.25381430983543396,0.2539670467376709,1.264566421508789
1725892476486327300,6.855327392578125,0.287106454372406,0.6317868828773499,1.282281517982483
1725892476505175600,6.874175537109375,0.1444695144891739,0.26160284876823425,1.1573597192764282
1725892476524023800,6.89302392578125,-0.17592905461788177,0.21975859999656677,0.7969494462013245
1725892476542872300,6.911872314453125,-0.2987128794193268,0.3214675784111023,0.8800270557403564
1725892476561720600,6.930720458984375,-0.3090975880622864,0.6217076182365417,0.5581013560295105
1725892476580568800,6.94956884765625,-0.3298669755458832,0.9103412628173828,0.45883581042289734
1725892476599417000,6.9684169921875,-0.029016077518463135,0.633008599281311,0.46799877285957336
1725892476618265300,6.987265380859375,-0.17898337543010712,0.18432845175266266,0.1164461001753807
1725892476637113600,7.006113525390625,0.001221729558892548,-0.2490801066160202,-0.01183550525456667
1725892476655962000,7.024962158203125,0.43829548358917236,-0.49373146891593933,0.0654388889670372
1725892476674810400,7.043810302734375,0.3454440236091614,-0.03405570983886719,-0.21861323714256287
1725892476693658600,7.06265869140625,0.19761475920677185,0.17608177661895752,-0.03504836559295654
1725892476712507000,7.0815068359375,0.05436696484684944,-0.10766492038965225,-0.21922409534454346
1725892476731355400,7.10035546875,0.09040798991918564,0.011759147047996521,-0.5869646668434143
1725892476750203400,7.119203369140625,0.19700388610363007,0.2231183648109436,-0.6141481995582581
1725892476769052000,7.138052001953125,0.12675444781780243,0.27290382981300354,-0.5817723274230957
1725892476787900200,7.156900146484375,-0.022296564653515816,0.20540328323841095,-0.528932511806488
1725892476806748400,7.17574853515625,-0.010995565913617611,0.1363755613565445,-0.36308276653289795
1725892476825596700,7.1945966796875,-0.18600831925868988,0.12965604662895203,-0.678288996219635
1725892476844445200,7.213445068359375,-0.3802633285522461,0.4399753510951996,-0.853607177734375
1725892476863293400,7.23229345703125,-0.401949018239975,0.17302745580673218,-0.7961859107017517
1725892476882141700,7.2511416015625,-0.711962878704071,-0.08261945843696594,-1.001436471939087
1725892476900996400,7.269996337890625,-0.5656607747077942,0.45310893654823303,-0.7372374534606934
1725892476919839700,7.28883984375,-0.03390299528837204,0.4378373324871063,-0.5090794563293457
1725892476938686700,7.307686767578125,0.16004657745361328,0.2851211428642273,-0.4541015923023224
1725892476957535000,7.326534912109375,0.2935205399990082,0.38041603565216064,-0.19326233863830566
1725892476976383200,7.34538330078125,0.4834994673728943,0.3584249019622803,-0.31268641352653503
1725892476995231500,7.3642314453125,0.015271619893610477,0.09972367435693741,-0.7164680361747742
1725892477014079700,7.383079833984375,-0.08979712426662445,0.005650499369949102,-0.5771908760070801
1725892477032928000,7.401927978515625,0.0772743970155716,0.08261945843696594,-0.36338818073272705
1725892477051776500,7.420776611328125,-0.18142683804035187,-0.38408124446868896,-0.24488042294979095
1725892477070624800,7.439624755859375,-0.36712974309921265,-0.6598866581916809,0.031841326504945755
1725892477089473000,7.45847314453125,-0.14752385020256042,-0.3217730224132538,0.09414953738451004
1725892477108321300,7.4773212890625,-0.006108647678047419,0.3681987524032593,0.00038179047987796366
1725892477127169500,7.49616943359375,0.010995565913617611,0.7221949100494385,0.10972658544778824
1725892477146018000,7.51501806640625,0.06963858753442764,0.4488328993320465,0.1476002037525177
1725892477164866300,7.5338662109375,-0.20372340083122253,0.07498364895582199,0.17020219564437866
1725892477183714600,7.552714599609375,-0.37690356373786926,-0.06276635825634003,0.3064250349998474
1725892477202562800,7.571562744140625,-0.048563748598098755,-0.061850059777498245,0.36079201102256775
1725892477221411300,7.590411376953125,0.6359102129936218,0.45769044756889343,0.31864234805107117
1725892477240259600,7.609259521484375,1.0091485977172852,0.7261655330657959,0.20838125050067902
1725892477259107800,7.62810791015625,0.9104939699172974,0.5117519497871399,0.10728313028812408
1725892477277956000,7.6469560546875,0.7727439403533936,0.5899426341056824,-0.17768529057502747
1725892477296804400,7.665804443359375,0.990517258644104,1.0456477403640747,-0.5341249108314514
1725892477315652900,7.68465283203125,1.2822052240371704,1.5563308000564575,-0.630641520023346
1725892477334501000,7.703501220703125,1.061682939529419,0.11255183815956116,0.03672824427485466
1725892477353349400,7.722349365234375,1.0320560932159424,-0.6809614896774292,-0.3698022663593292
1725892477372197600,7.74119775390625,1.4245367050170898,-0.49739664793014526,-0.9153045415878296
1725892477391046000,7.7600458984375,1.4590505361557007,0.8379537463188171,-1.316031813621521
1725892477409894400,7.778894287109375,1.3811652660369873,0.5960513353347778,-1.8826088905334473
1725892477428742700,7.79774267578125,0.8817833065986633,-0.47235119342803955,-1.9287291765213013
1725892477447591000,7.8165908203125,0.9214895367622375,-0.6724094152450562,-1.5667917728424072
1725892477466439200,7.835439208984375,1.9984440803527832,0.9442442059516907,-1.7262275218963623
1725892477485287700,7.85428759765625,3.6303694248199463,2.5908303260803223,-2.256458044052124
1725892477504136000,7.873135986328125,3.830122232437134,2.6830708980560303,-2.701167583465576
1725892477522984200,7.891984130859375,1.564424753189087,2.4124577045440674,-2.4925572872161865
1725892477541832700,7.910832763671875,1.8839069604873657,0.1876882016658783,-1.927812933921814
1725892477560680700,7.9296806640625,7.00264835357666,-2.62626051902771,0.9466113448143005
1725892477579529200,7.948529296875,0.7571669220924377,1.2563961744308472,-1.436066746711731
1725892477598379000,7.96737890625,0.014966187067329884,-1.0670280456542969,-1.5032618045806885
1725892477617225700,7.986225830078125,0.3637699782848358,-2.3174681663513184,-1.242117166519165
1725892477636074200,8.00507421875,0.38270679116249084,-2.251800298690796,-0.48739373683929443
1725892477654922500,8.023922607421875,-0.18570289015769958,-2.939634084701538,-0.6327795386314392
1725892477673770800,8.042770751953125,-0.5421425104141235,-2.975369691848755,-0.8154281377792358
1725892477692619000,8.061618896484376,-0.30451610684394836,-2.3852741718292236,-0.30688318610191345
1725892477711467300,8.08046728515625,-0.4196641147136688,-2.1946845054626465,-0.22441644966602325
1725892477730315800,8.099315673828125,-0.9114102721214294,-2.758207082748413,-0.25495967268943787
1725892477749164000,8.1181640625,-1.7091996669769287,-2.6357288360595703,-0.3203222155570984
1725892477768012300,8.13701220703125,-2.062279462814331,-2.2450807094573975,-0.6333904266357422
1725892477786860500,8.155860595703125,-1.729358196258545,-2.151313066482544,-0.4171442985534668
1725892477805709000,8.174708984375,-1.2928953170776367,-1.39445161819458,-0.03565923124551773
1725892477824557300,8.193557373046875,-0.9786053895950317,-0.6611084342002869,-0.16638429462909698
1725892477843405600,8.212405517578125,-0.6282744407653809,-0.4964803457260132,-0.3966803252696991
1725892477862253800,8.23125390625,-0.5342012643814087,-0.3352120518684387,-0.42019861936569214
1725892477881102000,8.25010205078125,-0.19181154668331146,-0.18096868693828583,-0.4064541459083557
1725892477899950600,8.26895068359375,-0.1597411334514618,-0.21029019355773926,-0.743346095085144
1725892477918798800,8.287798828125,0.09346231073141098,-0.11621702462434769,-1.1892774105072021
1725892477937647000,8.306647216796875,0.14080433547496796,0.4692968726158142,-1.4776055812835693
1725892477956495400,8.325495361328125,0.15699224174022675,0.8868229389190674,-1.8991022109985352
1725892477975343600,8.344343505859374,0.41844236850738525,0.7832813858985901,-1.6956843137741089
1725892477994192100,8.363192138671875,0.3900371491909027,0.23533566296100616,-1.306257963180542
1725892478013040400,8.382040283203125,0.3802633285522461,0.15561780333518982,-0.9388228058815002
1725892478031888600,8.400888671875,0.19883649051189423,-0.21212279796600342,-0.8591049313545227
1725892478050737200,8.419737060546876,-0.13225223124027252,-0.8492547869682312,-1.3083959817886353
1725892478069585400,8.43858544921875,0.34727662801742554,-0.8309288024902344,-1.2076033353805542
1725892478088433700,8.45743359375,0.19883649051189423,-1.133306860923767,-0.04390590637922287
1725892478107282000,8.476281982421876,-0.17776164412498474,-1.8251112699508667,0.8241329193115234
1725892478126130200,8.495130126953125,-0.43279770016670227,-1.4637846946716309,0.5251146554946899
1725892478144978700,8.513978759765624,-1.1869102716445923,-1.2188279628753662,0.2716057598590851
1725892478163827000,8.532826904296876,-1.00762140750885,-1.2680025100708008,0.4411207437515259
1725892478182675200,8.55167529296875,-0.9960150122642517,-0.7689260244369507,0.18761184811592102
1725892478201523500,8.5705234375,-0.5696313977241516,-0.050549060106277466,-0.021609341725707054
1725892478220372000,8.5893720703125,-0.45509424805641174,0.5184714794158936,-0.3151298761367798
1725892478239220200,8.60822021484375,-0.43951719999313354,0.6843212842941284,-0.010919207707047462
1725892478258068500,8.627068359375,-0.45875945687294006,1.1601849794387817,0.25205808877944946
1725892478276916700,8.645916748046876,-0.44318240880966187,1.7643301486968994,0.3055087625980377
1725892478295765200,8.66476513671875,-0.1078176349401474,2.2444698810577393,0.3977493345737457
1725892478314613500,8.683613525390625,-0.6695078015327454,2.501338481903076,0.034895651042461395
1725892478333461800,8.702461669921876,-0.6893609166145325,1.5951206684112549,-0.39973464608192444
1725892478352310000,8.72131005859375,-0.31551164388656616,1.04076087474823,-0.9485966563224792
1725892478371158500,8.740158447265625,-0.5812378525733948,0.892015278339386,-0.7387645840644836
1725892478390006800,8.7590068359375,-0.841160774230957,1.3254238367080688,-0.16302454471588135
1725892478408855000,8.77785498046875,-0.5131264328956604,0.5319104790687561,0.31986406445503235
1725892478427703300,8.796703369140625,-0.7250964641571045,0.5007563829421997,0.12927426397800446
1725892478446551800,8.8155517578125,-0.6805033683776855,0.6333140730857849,0.0345902182161808
1725892478465400000,8.834400146484375,-0.1951712965965271,0.9069814682006836,0.36170831322669983
1725892478484248300,8.853248291015625,-0.14019346237182617,0.641866147518158,0.4237110912799835
1725892478503096600,8.8720966796875,-0.21746785938739777,0.6617192625999451,0.5871174335479736
1725892478521945000,8.890945068359375,0.06261363625526428,0.523969292640686,0.7153990268707275
1725892478540793300,8.90979345703125,0.11423171311616898,0.32268932461738586,0.7422770857810974
1725892478559641600,8.9286416015625,-0.010995565913617611,0.4030180275440216,0.8681151866912842
1725892478578489900,8.94748974609375,0.13958260416984558,0.35475972294807434,0.8519272804260254
1725892478597338400,8.96633837890625,0.3753764033317566,0.32757624983787537,0.41790786385536194
1725892478616186600,8.9851865234375,0.7654135823249817,-0.3868301212787628,-0.4431060254573822
1725892478635035000,9.004034912109375,1.40559983253479,-0.6345357894897461,0.2819904685020447
1725892478653883100,9.022883056640625,1.9120067358016968,-0.6800451874732971,0.6799688339233398
1725892478672731600,9.041731689453124,2.2730278968811035,-0.8071050643920898,0.12591449916362762
1725892478691580000,9.060579833984375,2.157574415206909,-0.7451022863388062,-0.21097742021083832
1725892478710428200,9.07942822265625,1.6481131315231323,-0.7151699662208557,0.1582903414964676
1725892478729276400,9.0982763671875,1.7510439157485962,-1.3574942350387573,0.8158862590789795
1725892478748125000,9.117125,1.943466305732727,-0.8083268404006958,0.6940187215805054
1725892478766973200,9.13597314453125,1.48776113986969,-0.03955349326133728,0.46891507506370544
1725892478785821400,9.154821533203124,1.3353503942489624,-0.1562286615371704,0.6106356978416443
1725892478804669700,9.173669677734376,1.4587451219558716,0.1259908676147461,0.6872992515563965
1725892478823518200,9.192518310546875,1.630398154258728,-0.16416990756988525,1.015639066696167
1725892478842366500,9.211366455078124,1.9364413022994995,-0.39538222551345825,1.402927279472351
1725892478861214700,9.230214599609376,2.1142029762268066,0.6751583218574524,1.0907753705978394
1725892478880063000,9.24906298828125,1.7082833051681519,0.22983787953853607,1.1533890962600708
1725892478898911500,9.267911376953125,1.0494656562805176,0.3153589367866516,1.014111876487732
1725892478917759700,9.286759765625,0.2263254076242447,0.9983057379722595,0.4041634202003479
1725892478936608000,9.30560791015625,-0.471587598323822,1.4521782398223877,0.19646938145160675
1725892478955456300,9.324456298828125,-0.6426297426223755,2.1858267784118652,-0.05459604039788246
1725892478974304800,9.3433046875,-1.304807186126709,2.2979204654693604,-0.14653119444847107
1725892478993153000,9.362153076171875,-1.5943571329116821,1.796400547027588,-0.05215258151292801
1725892479012001300,9.381001220703125,-0.2617555558681488,1.0651954412460327,-0.11354449391365051
1725892479030849500,9.399849609375,0.1637117564678192,1.0355684757232666,0.049861837178468704
1725892479049698000,9.418697998046875,0.35705047845840454,0.8098539710044861,0.0862082913517952
1725892479068546300,9.43754638671875,-0.0054977829568088055,0.5484038591384888,-0.2378554791212082
1725892479087394600,9.45639453125,0.0009162971982732415,0.8141300082206726,-0.1089630052447319
1725892479106243000,9.4752431640625,0.0769689604640007,0.3938550651073456,-0.18898628652095795
1725892479125091300,9.49409130859375,0.06017018109560013,0.37949973344802856,-0.1450040340423584
1725892479143939600,9.512939697265624,-0.0977383628487587,0.1776089370250702,0.06849320977926254
1725892479162787800,9.531787841796875,-0.01649334840476513,-0.21059563755989075,0.20135630667209625
1725892479181636000,9.550635986328125,0.09834922850131989,0.48884454369544983,-0.0939968153834343
1725892479200484600,9.569484619140624,-0.3338375985622406,-0.02611446939408779,-0.1856265366077423
1725892479219332900,9.588332763671875,0.09590577334165573,-0.4192059636116028,0.10575596243143082
1725892479238181000,9.60718115234375,0.07574722915887833,-0.27290382981300354,-1.3532946109771729
1725892479257029600,9.626029541015624,0.11484257876873016,-0.490677148103714,-0.5927678942680359
1725892479275878000,9.6448779296875,0.12461641430854797,-0.04505127668380737,-0.5857429504394531
1725892479294726100,9.66372607421875,-0.29077163338661194,-0.2631300091743469,-0.5597811937332153
1725892479313574700,9.68257470703125,-0.2672533392906189,0.20387612283229828,-0.5099957585334778
1725892479332423000,9.7014228515625,-0.5882627964019775,-0.39568766951560974,-0.0066431546583771706
1725892479351271200,9.720271240234375,-1.017395257949829,-0.26710063219070435,-0.3386481702327728
1725892479370119400,9.739119384765624,-0.9776890873908997,0.08567378669977188,-0.4388299882411957
1725892479388967700,9.7579677734375,-0.6316341757774353,0.3318522870540619,-0.7363211512565613
1725892479407816200,9.776816162109375,-0.3176496922969818,0.036193739622831345,-0.7546470761299133
1725892479426664400,9.79566455078125,-0.42821621894836426,0.0850629210472107,-0.5961276888847351
1725892479445512700,9.8145126953125,-0.4740310609340668,0.0902552679181099,-0.7873283624649048
1725892479464361200,9.833361328125,-0.5864301919937134,-0.08078686892986298,-1.0072396993637085
1725892479483209500,9.85220947265625,-0.6811142563819885,-0.031001387163996696,-1.2656354904174805
1725892479502057700,9.8710576171875,-0.3634645342826843,-0.3987419903278351,-0.9110284447669983
1725892479520906200,9.88990625,-0.18173226714134216,-0.7994692921638489,-0.6394990682601929
1725892479539754500,9.90875439453125,-0.17562362551689148,-0.7478511929512024,-0.5380955338478088
1725892479558602800,9.927602783203126,-0.13652828335762024,-0.6638572812080383,-0.40309441089630127
1725892479577451000,9.946450927734375,-0.1380554437637329,-0.4079049527645111,-0.3139081299304962
1725892479596299300,9.96529931640625,-0.07605266571044922,-0.16661337018013,-0.4318050444126129
1725892479615147800,9.984147705078126,-0.2574795186519623,-0.0206166859716177,-0.5368737578392029
1725892479633996000,10.00299609375,-0.5122101306915283,0.07131846249103546,-0.32673630118370056
1725892479652844300,10.02184423828125,-0.4108065664768219,-0.08811724185943604,-0.12209659814834595
1725892479671692800,10.04069287109375,-0.5998691916465759,-0.407599538564682,-0.09644027799367905
1725892479690541000,10.059541015625,-1.1004729270935059,-0.38469210267066956,-0.16943861544132233
1725892479709389300,10.078389404296875,-1.4731004238128662,-0.434783011674881,-0.2677878439426422
1725892479728237600,10.097237548828126,-1.7088942527770996,-0.41065385937690735,-0.3105483949184418
1725892479747086000,10.116086181640625,-1.627649188041687,-0.47296205163002014,-0.11659881472587585
1725892479765934300,10.134934326171875,-1.100778341293335,-0.8462004065513611,-0.20395247638225555
1725892479784782600,10.153782470703124,-0.9556979537010193,-0.6586649417877197,-0.1443931609392166
1725892479803630800,10.172630859375,-0.7086031436920166,-0.5074759125709534,-0.2515999376773834
1725892479822479400,10.191479248046875,-0.5290089249610901,-0.29825472831726074,-0.49777844548225403
1725892479841327600,10.21032763671875,-0.8261946439743042,-0.04474584385752678,-0.5179370045661926
1725892479860176000,10.22917578125,-0.6423243284225464,0.12110394239425659,-0.5286270976066589
1725892479879024000,10.248024169921875,-0.6765327453613281,0.5960513353347778,-0.4125627875328064
1725892479897872600,10.26687255859375,-0.5531380772590637,0.4915934205055237,-0.3975966274738312
1725892479916721000,10.285720947265625,-0.411722868680954,0.586888313293457,-0.3759109079837799
1725892479935569200,10.304569091796875,-0.4153880476951599,0.5438223481178284,-0.20975568890571594
1725892479954417700,10.323417724609374,-0.08949168771505356,0.5319104790687561,-0.2876409590244293
1725892479973266000,10.342265869140626,0.18142683804035187,0.6537780165672302,-0.2632063627243042
1725892479992114200,10.3611142578125,0.1185077652335167,0.4497492015361786,-0.1508072465658188
1725892480010962700,10.379962646484374,0.4416552484035492,0.11133010685443878,0.1983019858598709
1725892480029811000,10.39881103515625,0.9676098227500916,0.21487168967723846,0.08254310488700867
1725892480048659200,10.4176591796875,0.4978547990322113,0.1409570425748825,0.0019089524867013097
1725892480067507500,10.436507568359374,0.6774490475654602,-0.14340050518512726,0.3180314898490906
1725892480086355700,10.455355712890626,1.3533709049224854,0.07345648854970932,0.19066616892814636
1725892480105204200,10.474204345703125,1.2220350503921509,0.141262486577034,0.20349432528018951
1725892480124052500,10.493052490234374,1.1640028953552246,-0.26160284876823425,0.41241008043289185
1725892480142900700,10.511900634765626,1.3921607732772827,-0.0798705667257309,0.5116755962371826
1725892480161749200,10.530749267578125,1.334128737449646,0.20540328323841095,0.45333802700042725
1725892480180597500,10.549597412109375,1.0965023040771484,0.19379685819149017,0.4753291606903076
1725892480199445800,10.56844580078125,0.9572250843048096,0.04810560122132301,0.5480220913887024
1725892480218294000,10.5872939453125,1.0674861669540405,-0.031612250953912735,0.6604211926460266
1725892480237142300,10.606142333984375,1.2415826320648193,-0.11102467030286789,0.6976839303970337
1725892480255990800,10.62499072265625,1.3634501695632935,-0.07162389904260635,0.7150935530662537
1725892480274839000,10.643839111328125,1.5323543548583984,-0.10125083476305008,0.7099012136459351
1725892480293687300,10.662687255859375,1.4767656326293945,-0.05818486958742142,0.6497310400009155
1725892480312535800,10.681535888671876,1.1511746644973755,0.13698641955852509,0.711122989654541
1725892480331384000,10.700384033203125,0.8631519079208374,0.0539088174700737,0.644844114780426
1725892480350232300,10.719232421875,0.5717694163322449,0.03588830679655075,0.6201041340827942
1725892480369080600,10.73808056640625,0.37262752652168274,0.3272708058357239,0.8839976787567139
1725892480387929000,10.75692919921875,0.36621344089508057,0.448527455329895,0.9612720608711243
1725892480406777300,10.77577734375,0.16004657745361328,0.21517711877822876,0.9521090984344482
1725892480425625600,10.79462548828125,-0.12461641430854797,0.32910341024398804,1.0367138385772705
1725892480444473900,10.813473876953125,-0.639270007610321,-0.03405570983886719,0.6048324704170227
1725892480463322400,10.832322265625,-1.0803143978118896,0.41676250100135803,0.06238456442952156
1725892480482170600,10.851170654296874,-0.7984002828598022,0.7512109875679016,0.17997603118419647
1725892480501019000,10.870018798828125,-0.34147340059280396,0.25152358412742615,0.18028147518634796
1725892480519867100,10.8888671875,0.11362084746360779,0.024892739951610565,0.27435463666915894
1725892480538715600,10.907715576171874,0.22204934060573578,-0.2606865465641022,0.24258968234062195
1725892480557564000,10.92656396484375,0.15057817101478577,-0.5093085169792175,0.2502254843711853
1725892480576412200,10.945412109375,0.36163195967674255,-0.9860884547233582,0.5290852785110474
1725892480595260700,10.9642607421875,0.720820426940918,-1.1042908430099487,0.6756927967071533
1725892480614109000,10.98310888671875,1.1331541538238525,-0.3969093859195709,0.19982914626598358
1725892480632957200,11.001957275390625,1.219896912574768,-0.41095927357673645,0.40110909938812256
1725892480651805400,11.020805419921874,1.1420117616653442,-0.43569931387901306,0.04650207981467247
1725892480670654000,11.039654052734376,0.6298015713691711,-1.2127193212509155,0.22059854865074158
1725892480689502200,11.058502197265625,0.044898562133312225,-1.4017819166183472,1.4356086254119873
1725892480708350500,11.0773505859375,0.12675444781780243,-0.9845613241195679,1.2813652753829956
1725892480727198700,11.09619873046875,0.5626064538955688,-0.7655662894248962,0.755105197429657
1725892480746047200,11.115047119140625,0.5858193039894104,-1.2096649408340454,0.1680641770362854
1725892480764895500,11.1338955078125,0.8512400984764099,-1.6949970722198486,-0.1911243200302124
1725892480783743700,11.15274365234375,0.5876519083976746,-1.6278018951416016,-0.21983496844768524
1725892480802592300,11.17159228515625,1.1084141731262207,-1.6442952156066895,0.34643667936325073
1725892480821440500,11.1904404296875,0.8222240209579468,-0.901789128780365,0.1986074149608612
1725892480840288800,11.209288818359376,0.5870410799980164,-0.7157807946205139,-0.2674824297428131
1725892480859137300,11.22813720703125,0.39370235800743103,-0.697760283946991,-1.0457241535186768
1725892480877985500,11.246985595703125,-0.05833758786320686,-0.19104796648025513,-1.4663045406341553
1725892480896833800,11.265833740234376,-0.23915356397628784,0.10827577859163284,-1.3871976137161255
1725892480915682000,11.28468212890625,-0.19333870708942413,0.1815795600414276,-1.1046725511550903
1725892480934530300,11.3035302734375,-0.21380266547203064,0.17119485139846802,-0.8285617232322693
1725892480953378800,11.32237890625,-0.9508110284805298,1.2108867168426514,-0.8193987607955933
1725892480972227000,11.34122705078125,-1.5790854692459106,1.261283040046692,-0.6999746561050415
1725892480991075300,11.360075439453125,-0.29901832342147827,-0.39141160249710083,-1.1058943271636963
1725892481009923800,11.378923828125,0.29565855860710144,-0.6278162598609924,-1.306563377380371
1725892481028772000,11.397772216796875,0.02718348242342472,-0.32879796624183655,-0.9595922231674194
1725892481047620400,11.416620361328125,-0.2257145345211029,-0.48365217447280884,-0.945847749710083
1725892481066468600,11.435468505859374,-0.44379326701164246,-0.13454297184944153,-1.0215950012207031
1725892481085317000,11.454317138671875,-0.40286532044410706,-0.23044873774051666,-1.0500001907348633
1725892481104165400,11.473165283203125,-0.22663083672523499,-0.4503600597381592,-1.066188097000122
1725892481123013600,11.492013671875,-0.2981020212173462,-0.3462076187133789,-0.9146936535835266
1725892481141862100,11.510862060546875,-0.37629270553588867,-0.6107120513916016,-0.6947823166847229
1725892481160710400,11.52971044921875,-0.5112938284873962,-0.31810784339904785,-0.8105412125587463
1725892481179558700,11.54855859375,-0.5229002237319946,-0.35903576016426086,-0.8920916318893433
1725892481198407000,11.567406982421875,-0.28435754776000977,-0.9585995674133301,-1.1257474422454834
1725892481217255200,11.586255126953125,-0.6322450637817383,-0.9179770350456238,-1.1920262575149536
1725892481236103700,11.605103759765624,-0.68386310338974,-0.8355103135108948,-0.9916626214981079
1725892481254952000,11.623951904296876,-0.5006036758422852,-1.1824815273284912,-1.0912336111068726
1725892481273800200,11.64280029296875,-0.6078104376792908,-0.9970840215682983,-1.0832923650741577
1725892481292648700,11.661648681640624,-0.5241219997406006,-0.9534072279930115,-0.963257372379303
1725892481311497000,11.6804970703125,-0.6246092319488525,-0.5340485572814941,-0.8652135729789734
1725892481330345200,11.69934521484375,-0.7037162184715271,-0.2942841053009033,-0.7088322043418884
1725892481349193500,11.718193359375,-0.6273581385612488,0.011148282326757908,-0.7772490978240967
1725892481368041700,11.737041748046876,-0.646905779838562,0.014813470654189587,-0.8639918565750122
1725892481386890200,11.75589013671875,-0.6261364221572876,0.5829176902770996,-0.6440805792808533
1725892481405738500,11.774738525390624,-0.526870846748352,0.597273051738739,-0.6883682608604431
1725892481424586800,11.793586669921876,-0.6933315396308899,0.6678279042243958,-0.34658941626548767
1725892481443435300,11.812435302734375,-0.4059196412563324,0.5725330114364624,-0.4424951672554016
1725892481462283500,11.831283447265625,-0.3271180987358093,0.6058251261711121,-0.27572908997535706
1725892481481131800,11.8501318359375,-0.14660754799842834,0.6085740327835083,-0.21433718502521515
1725892481499980300,11.868980224609375,-0.30573782324790955,0.25182899832725525,0.17478369176387787
1725892481518828300,11.887828369140625,-0.1233946830034256,0.5080868005752563,0.474718302488327
1725892481537676800,11.9066767578125,0.19700388610363007,0.6455313563346863,0.3827831447124481
1725892481556525000,11.925525146484375,-0.03145953640341759,0.29367324709892273,0.8326850533485413
1725892481575373300,11.944373291015625,0.039706211537122726,0.2292270064353943,0.9102649092674255
1725892481594221800,11.963221923828126,0.18753549456596375,0.07742711156606674,1.0849722623825073
1725892481613070000,11.982070068359375,0.26878049969673157,0.7954986691474915,1.2340232133865356
1725892481631918300,12.00091845703125,0.5106829404830933,1.4469859600067139,1.5122721195220947
1725892481650766800,12.019766845703124,0.6826413869857788,1.440266489982605,1.7108031511306763
1725892481669615000,12.038614990234375,0.8506292104721069,1.5224277973175049,1.7981568574905396
1725892481688463400,12.05746337890625,0.9608902931213379,1.39445161819458,1.653992772102356
1725892481707311600,12.0763115234375,1.0149518251419067,1.0532835721969604,1.6668208837509155
1725892481726160000,12.095159912109375,1.071456789970398,1.077107310295105,1.4249184131622314
1725892481745008400,12.11400830078125,1.0943642854690552,0.9915862679481506,1.3897937536239624
1725892481763856600,12.132856689453124,1.063210129737854,0.39965829253196716,1.257236123085022
1725892481782705000,12.151704833984375,0.9508110284805298,0.6073523163795471,1.429194450378418
1725892481801553400,12.170553466796875,1.2159262895584106,0.2383899837732315,1.1839323043823242
1725892481820401700,12.189401611328124,1.28556489944458,0.20418155193328857,1.1784344911575317
1725892481839250000,12.20825,1.3332123756408691,0.2805396616458893,1.108185052871704
1725892481858098200,12.22709814453125,1.0931425094604492,-0.10125083476305008,1.1875975131988525
1725892481876946400,12.245946533203124,0.7831286191940308,-0.07315105944871902,1.466762661933899
1725892481895795000,12.264794921875,0.8148936033248901,-0.5123628377914429,1.1628574132919312
1725892481914643200,12.283643310546875,0.7874047160148621,-0.2338084876537323,1.1399500370025635
1725892481933491500,12.302491455078124,0.8341358304023743,-0.25091269612312317,1.1628574132919312
1725892481952340000,12.321340087890626,0.5418370366096497,-0.28267768025398254,0.8467349410057068
1725892481971188200,12.340188232421875,0.32589635252952576,-0.2854265570640564,1.078558087348938
1725892481990036500,12.359036376953124,0.5949822664260864,-0.29153522849082947,0.6225475668907166
1725892482008884700,12.377884765625,0.7351757884025574,-0.2487746775150299,0.571540355682373
1725892482027733000,12.39673291015625,0.5134318470954895,-0.22189663350582123,0.5132027864456177
1725892482046581500,12.41558154296875,0.15210533142089844,-0.08078686892986298,0.31925320625305176
1725892482065429800,12.4344296875,0.07116574794054031,0.12415826320648193,0.13141228258609772
1725892482084278000,12.453278076171875,0.0821613147854805,-0.20509785413742065,-0.13645191490650177
1725892482103126500,12.47212646484375,-0.011300998739898205,-0.03558287397027016,-0.21403174102306366
1725892482121974800,12.490974853515626,-0.31031930446624756,0.12751802802085876,-0.2833648920059204
1725892482140823000,12.509822998046875,-0.37232208251953125,0.41034841537475586,-0.4428006112575531
1725892482159671300,12.52867138671875,-0.29962918162345886,0.28237223625183105,-0.5127446055412292
1725892482178519600,12.54751953125,-0.15821397304534912,0.3065013885498047,-0.5124391913414001
1725892482197368000,12.5663681640625,-0.1646280586719513,0.2530507445335388,-0.5784125924110413
1725892482216216300,12.58521630859375,-0.13683371245861053,0.39568766951560974,-0.7277690172195435
1725892482235064600,12.604064697265626,-0.03848448023200035,0.2280052751302719,-0.8966731429100037
1725892482253913000,12.6229130859375,0.1795942485332489,-0.2851211428642273,-0.9953277707099915
1725892482272761300,12.64176123046875,0.16187916696071625,0.06704241037368774,-0.899116575717926
1725892482291609600,12.660609619140626,0.0565049909055233,0.2753472924232483,-0.853607177734375
1725892482310457900,12.679457763671875,-0.08888082206249237,0.43233954906463623,-0.6941714882850647
1725892482329306000,12.69830615234375,-0.008552107028663158,0.21059563755989075,-0.7375428676605225
1725892482348154600,12.717154541015624,0.24342961609363556,-0.35506516695022583,-1.1339941024780273
1725892482367003000,12.7360029296875,0.06780599057674408,-0.13790272176265717,-1.1532363891601562
1725892482385851100,12.75485107421875,-0.051618073135614395,-0.15409064292907715,-1.0496947765350342
1725892482404699600,12.77369970703125,-0.14110976457595825,0.2530507445335388,-0.8988111615180969
1725892482423548000,12.7925478515625,0.04978547990322113,0.02825249545276165,-0.9156099557876587
1725892482442396200,12.811396240234375,0.1740964651107788,-0.08414662629365921,-0.9776127338409424
1725892482461244400,12.830244384765624,0.04917461425065994,-0.24724751710891724,-1.085430383682251
1725892482480092700,12.8490927734375,-0.25381430983543396,-0.7487674951553345,-1.342298984527588
1725892482498941200,12.867941162109375,-0.4761691093444824,-0.13698641955852509,-1.2363139390945435
1725892482517789400,12.88678955078125,-0.4120282828807831,-0.7127264738082886,-1.1556798219680786
1725892482536637700,12.9056376953125,-0.37354379892349243,-0.5847502946853638,-1.1208604574203491
1725892482555486200,12.924486328125,-0.34116798639297485,-1.0511455535888672,-1.174921989440918
1725892482574334500,12.94333447265625,-0.6145299673080444,-1.0019710063934326,-1.13307785987854
1725892482593182700,12.9621826171875,-0.5232056975364685,-0.6354520916938782,-1.0252602100372314
1725892482612031000,12.981031005859375,-0.39675667881965637,-0.9301943182945251,-1.0616066455841064
1725892482630879200,12.999879150390624,-0.4050033390522003,-0.7893900275230408,-1.3853650093078613
1725892482649727700,13.018727783203126,-0.6597339510917664,-0.790000855922699,-1.3364957571029663
1725892482668576000,13.037575927734375,-0.8219185471534729,-0.7029526233673096,-1.2830450534820557
1725892482687424300,13.05642431640625,-0.9871574640274048,-0.6736311316490173,-1.1706459522247314
1725892482706272500,13.0752724609375,-0.9364557266235352,-0.755181610584259,-1.258915901184082
1725892482725121000,13.09412109375,-0.9749401807785034,-0.9283617734909058,-1.1000910997390747
1725892482743969300,13.11296923828125,-0.8784235715866089,-0.6562215089797974,-0.9629519581794739
1725892482762817500,13.131817626953126,-0.8451313972473145,-0.3364337682723999,-0.8975894451141357
1725892482781665800,13.150665771484375,-0.9114102721214294,0.11346813291311264,-0.8872047066688538
1725892482800514300,13.169514404296875,-0.9789108037948608,0.24327689409255981,-0.7256309986114502
1725892482819362600,13.188362548828126,-0.9621120095252991,0.06643154472112656,-0.4235583543777466
1725892482838210800,13.2072109375,-0.5174024701118469,0.04260781779885292,-0.4675406217575073
1725892482857059000,13.22605908203125,-0.3796524703502655,0.4143190383911133,-0.22350014746189117
1725892482875907600,13.244907470703126,-0.2623664140701294,0.53221595287323,-0.06131555140018463
1725892482894755800,13.263755859375,-0.318871408700943,0.08933897316455841,0.13843722641468048
1725892482913604000,13.28260400390625,-0.29565855860710144,0.347123920917511,0.571540355682373
1725892482932452400,13.301452392578126,-0.03695731982588768,1.0261001586914062,0.7865647673606873
1725892482951300600,13.320300537109375,-0.04764745384454727,1.3703224658966064,1.1646900177001953
1725892482970149000,13.339149169921875,-0.18845178186893463,1.2386810779571533,1.6475787162780762
1725892482988997400,13.357997314453126,-0.07574722915887833,1.1711804866790771,1.785634160041809
1725892483007845600,13.376845703125,0.13103049993515015,1.6559016704559326,1.939266562461853
1725892483026694100,13.395694091796875,0.3072649836540222,2.028834581375122,2.1545963287353516
1725892483045542400,13.41454248046875,0.40897396206855774,1.8474078178405762,2.1622321605682373
1725892483064390700,13.433390625,0.6071996092796326,1.251814603805542,2.040975570678711
1725892483083239000,13.452239013671875,0.8475748896598816,0.7774781584739685,1.790826439857483
1725892483102087200,13.471087158203124,0.9367611408233643,1.011744737625122,1.8180099725723267
1725892483120935700,13.489935791015625,1.0592395067214966,0.4857902228832245,1.4609594345092773
1725892483139784000,13.508783935546875,1.1325433254241943,0.42042768001556396,1.5171589851379395
1725892483158632200,13.527632080078124,1.4520255327224731,0.2182314395904541,1.0110576152801514
1725892483177480700,13.546480712890625,1.5381574630737305,0.38560840487480164,1.0080032348632812
1725892483196328700,13.56532861328125,1.5879429578781128,-0.24785839021205902,0.7590758204460144
1725892483215177200,13.58417724609375,1.2525782585144043,-0.5752819180488586,1.0022000074386597
1725892483234025500,13.603025390625,1.0906990766525269,-0.05757400393486023,0.9905936121940613
1725892483252873700,13.621873779296875,1.2070688009262085,-0.04780016839504242,0.7230347990989685
1725892483271722200,13.64072216796875,1.1181880235671997,-0.5484038591384888,0.7532726526260376
1725892483290570500,13.659570556640626,0.6407971382141113,-0.2594648003578186,1.0220531225204468
1725892483309418800,13.678418701171875,0.35766133666038513,-0.21548254787921906,1.1005492210388184
1725892483328267000,13.69726708984375,0.4819723069667816,-0.44608399271965027,0.6738601922988892
1725892483347115300,13.716115234375,0.6514872908592224,-0.5346593856811523,0.6814960241317749
1725892483365963800,13.7349638671875,0.48472121357917786,-0.5954404473304749,0.49823659658432007
1725892483384812000,13.75381201171875,0.09621120244264603,0.08139773458242416,0.353767067193985
1725892483403660300,13.772660400390626,-0.02412915788590908,-0.4656316637992859,-0.1349247545003891
1725892483422508800,13.7915087890625,-0.21991132199764252,-0.5056433081626892,-0.5967385172843933
1725892483441357000,13.810357177734375,-0.46883872151374817,-0.021838415414094925,-0.8594104051589966
1725892483460205300,13.829205322265626,-0.47006043791770935,0.3761399984359741,-1.2048543691635132
1725892483479053600,13.848053466796875,-0.5424479246139526,0.1568395346403122,-1.4601958990097046
1725892483497901800,13.86690185546875,-0.5775726437568665,0.2952004075050354,-1.3450478315353394
1725892483516750300,13.885750244140626,-0.527481734752655,0.5090031027793884,-1.2039381265640259
1725892483535598600,13.9045986328125,-0.38270679116249084,0.20021092891693115,-1.1370484828948975
1725892483554446800,13.92344677734375,-0.22754712402820587,-0.24480405449867249,-1.0133483409881592
1725892483573295400,13.94229541015625,-0.03023780696094036,-0.22769984602928162,-0.8233693838119507
1725892483592143600,13.9611435546875,-0.10476330667734146,0.31230461597442627,-0.5655844211578369
1725892483610991900,13.979991943359375,-0.15821397304534912,0.11682789027690887,-0.49258607625961304
1725892483629840100,13.998840087890626,-0.3066541254520416,-0.021227551624178886,-0.3294851779937744
1725892483648688600,14.017688720703125,-0.3179551064968109,-0.1360701322555542,-0.35789039731025696
1725892483667537000,14.036536865234375,-0.24465134739875793,0.052687086164951324,-0.5222130417823792
1725892483686385200,14.05538525390625,-0.1444695144891739,-0.11896591633558273,-0.6611847877502441
1725892483705233400,14.0742333984375,-0.0922405794262886,-0.2341139316558838,-0.6675988435745239
1725892483724081700,14.09308154296875,-0.07605266571044922,-0.3019199073314667,-0.7567850947380066
1725892483742930200,14.11193017578125,-0.17684535682201385,-0.3065013885498047,-0.7442623972892761
1725892483761778400,14.1307783203125,-0.22327107191085815,-0.5520690679550171,-0.799240231513977
1725892483780626700,14.149626708984375,-0.2516762912273407,-0.448527455329895,-0.7454841136932373
1725892483799475200,14.16847509765625,-0.2309068888425827,-0.23533566296100616,-0.6538543701171875
1725892483818323500,14.187323486328125,-0.14294235408306122,-0.3614792227745056,-0.677678108215332
1725892483837171700,14.206171630859375,-0.1594357043504715,-0.14217877388000488,-0.5429824590682983
1725892483856020000,14.22502001953125,-0.33536475896835327,-0.3428478538990021,-0.47700902819633484
1725892483874868200,14.2438681640625,-0.45448338985443115,-0.4326449930667877,-0.5970439910888672
1725892483893716700,14.262716796875,-0.314289927482605,-0.48701193928718567,-0.7928261160850525
1725892483912565000,14.28156494140625,-0.2162461280822754,-0.4692968726158142,-0.974558413028717
1725892483931413200,14.300413330078126,-0.29504770040512085,-0.7753401398658752,-1.065882682800293
1725892483950261800,14.31926171875,-0.42394015192985535,-1.2863285541534424,-1.232343316078186
1725892483969109800,14.33810986328125,-0.5222893953323364,-1.4427099227905273,-1.3844486474990845
1725892483987958300,14.356958251953126,-0.31581708788871765,-1.1998910903930664,-1.4675263166427612
1725892484006806500,14.375806640625,-0.34605491161346436,-0.930499792098999,-1.3765074014663696
1725892484025654800,14.39465478515625,-0.3222311735153198,-0.7796161770820618,-1.2286781072616577
1725892484044503300,14.41350341796875,-0.4987711012363434,-0.388662725687027,-1.1837795972824097
1725892484063351600,14.4323515625,-0.7070759534835815,-0.10430516302585602,-1.2387573719024658
1725892484082199800,14.45119970703125,-0.9239329695701599,0.2735147178173065,-0.8881210088729858
1725892484101048000,14.470048095703126,-0.8949168920516968,0.42103853821754456,-0.6801216006278992
1725892484119896300,14.488896240234375,-0.6270527243614197,0.4637990891933441,-0.5771908760070801
1725892484138744800,14.507744873046875,-0.5836812853813171,0.3972148299217224,-0.6434696912765503
1725892484157593000,14.526593017578126,-0.7177661061286926,0.34315329790115356,-0.045738499611616135
1725892484176441300,14.54544140625,-0.3808741867542267,0.4072940945625305,0.07948877662420273
1725892484195289600,14.56428955078125,-0.26878049969673157,0.6421716213226318,0.526030957698822
1725892484214138000,14.58313818359375,-0.10598503798246384,0.9680679440498352,0.8168025612831116
1725892484232986400,14.601986328125,-0.15729768574237823,0.800385594367981,1.098411202430725
1725892484251834600,14.620834716796875,-0.025961752980947495,0.8318451046943665,1.1451424360275269
1725892484270683000,14.639682861328126,0.19150610268115997,0.8639155030250549,1.4117848873138428
1725892484289531400,14.658531494140625,0.3399462401866913,1.2774709463119507,1.679343581199646
1725892484308379600,14.677379638671875,0.46883872151374817,1.5190680027008057,1.970115303993225
1725892484327228000,14.696227783203126,0.6365211009979248,1.6757547855377197,1.9731695652008057
1725892484346076200,14.715076171875,0.8069523572921753,1.411250352859497,1.93071448802948
1725892484364924700,14.733924560546875,0.9697478413581848,1.6262747049331665,1.7392083406448364
1725892484383773000,14.75277294921875,1.112079381942749,1.4265220165252686,1.5614467859268188
1725892484402621200,14.77162109375,1.1218531131744385,0.9824233055114746,1.3555853366851807
1725892484421469400,14.790469482421875,1.1768310070037842,0.5474875569343567,1.236772060394287
1725892484440317700,14.809317626953124,1.3078614473342896,0.44791659712791443,1.1310925483703613
1725892484459166200,14.828166259765625,1.1887428760528564,0.12996147572994232,1.116431713104248
1725892484478014500,14.847014404296875,1.0961968898773193,-0.0951421856880188,1.1478912830352783
1725892484496862700,14.86586279296875,0.9841031432151794,-0.2890917658805847,1.1280381679534912
1725892484515711000,14.8847109375,0.9828814268112183,-0.007177661173045635,1.2764782905578613
1725892484534559200,14.903559326171875,1.2647955417633057,-0.5068650245666504,0.8394045829772949
1725892484553407700,14.92240771484375,1.0445787906646729,-0.18585561215877533,1.2434916496276855
1725892484572256000,14.941256103515625,1.0415244102478027,-0.4042397737503052,0.9908990263938904
1725892484591104300,14.960104248046875,0.8011491298675537,-0.32360562682151794,1.0544289350509644
1725892484609952800,14.978952880859374,0.6606502532958984,-0.38927358388900757,0.9768491387367249
1725892484628801000,14.997801025390626,0.5439751148223877,-0.4225656986236572,0.7813724279403687
1725892484647649300,15.016649169921875,0.49510589241981506,-0.53221595287323,0.5199222564697266
1725892484666497500,15.03549755859375,0.2874118685722351,-0.13729186356067657,0.2862665057182312
1725892484685345800,15.054345703125,0.1744018942117691,-0.3211621642112732,0.0651334598660469
1725892484704194300,15.0731943359375,-0.13591741025447845,-0.3513999581336975,-0.3569740951061249
1725892484723042600,15.09204248046875,-0.4364628791809082,0.0691804364323616,-0.4638754427433014
1725892484741890800,15.110890869140626,-0.48502662777900696,0.503505289554596,-0.5842158198356628
1725892484760739000,15.129739013671875,-0.31612253189086914,0.5502364635467529,-0.5267944931983948
1725892484779587600,15.148587646484375,-0.19700388610363007,0.3917170464992523,-0.49258607625961304
1725892484798435800,15.167435791015626,-0.08552107214927673,0.13484840095043182,-0.5234347581863403
1725892484817284000,15.1862841796875,-0.07513637095689774,0.11896591633558273,-0.6929497122764587
1725892484836132400,15.20513232421875,0.02871064469218254,-0.06582067906856537,-0.880790650844574
1725892484854980600,15.223980712890626,-0.013439024798572063,0.046883873641490936,-1.0047961473464966
1725892484873829000,15.2428291015625,-0.08093958348035812,0.3315468728542328,-0.9666171669960022
1725892484892677400,15.261677490234375,-0.20891575515270233,0.12324196845293045,-1.0649664402008057
1725892484911525600,15.280525634765626,-0.4111120104789734,0.58749920129776,-0.9886083006858826
1725892484930374000,15.299373779296875,-0.3738492429256439,0.45769044756889343,-1.0307579040527344
1725892484949222100,15.31822216796875,-0.2822195291519165,0.2393062710762024,-1.2033272981643677
1725892484968070700,15.337070556640626,-0.24434591829776764,0.25213444232940674,-1.148654818534851
1725892484986919000,15.3559189453125,-0.1649334877729416,-0.2594648003578186,-1.3474913835525513
1725892485005767200,15.37476708984375,-0.3442223072052002,0.12476912885904312,-1.2806016206741333
1725892485024615400,15.393615478515626,-0.48533207178115845,0.34468045830726624,-0.9983821511268616
1725892485043464000,15.4124638671875,-0.35185810923576355,0.1715002804994583,-0.9165262579917908
1725892485062312200,15.431312255859375,-0.23243404924869537,-0.11407899856567383,-0.8774309158325195
1725892485081160400,15.450160400390626,-0.10140355676412582,-0.7228057384490967,-0.9033926725387573
1725892485100008700,15.4690087890625,-0.3084867000579834,-0.6247619390487671,-0.9000328779220581
1725892485118857200,15.487857177734375,-0.4783071279525757,-0.6922625303268433,-0.825812816619873
1725892485137705500,15.50670556640625,-0.49144071340560913,-0.8755219578742981,-0.9553161859512329
1725892485156553700,15.5255537109375,-0.4621191918849945,-1.0435097217559814,-1.1336886882781982
1725892485175402000,15.544402099609375,-0.42424559593200684,-0.8199332356452942,-1.1364375352859497
1725892485194250500,15.56325048828125,-0.3029889166355133,-0.7142536640167236,-1.276936411857605
1725892485213098800,15.5820986328125,-0.49144071340560913,-1.0456477403640747,-1.4797435998916626
1725892485231947000,15.600947021484375,-0.7800742983818054,-1.1882847547531128,-1.4779109954833984
1725892485250795300,15.619795166015624,-0.7877101302146912,-1.3935352563858032,-1.3383283615112305
1725892485269643500,15.6386435546875,-0.448069304227829,-0.9146173000335693,-1.269911527633667
1725892485288492000,15.657491943359375,-0.41874781250953674,-0.9805907011032104,-1.380478024482727
1725892485307340300,15.67634033203125,-0.40836310386657715,-0.6104066371917725,-1.0411427021026611
1725892485326188500,15.6951884765625,-0.3848448097705841,0.45066550374031067,-0.6462185978889465
1725892485345036800,15.714036865234375,-0.3961458206176758,0.1977674663066864,-1.0417535305023193
1725892485363885000,15.732885009765624,-0.6682860851287842,0.20906847715377808,-0.8135955333709717
1725892485382733600,15.751733642578126,-0.7186824083328247,0.7063124179840088,-0.3242928385734558
1725892485401581800,15.770581787109375,-0.5806269645690918,0.6843212842941284,-0.24396412074565887
1725892485420430000,15.78943017578125,-0.47006043791770935,0.4754055142402649,0.07215840369462967
1725892485439278300,15.8082783203125,-0.48472121357917786,0.2338084876537323,0.2749654948711395
1725892485458126600,15.827126708984375,-0.3197877109050751,0.11621702462434769,0.49915286898612976
1725892485476974800,15.845974853515624,-0.07880155742168427,0.3507890999317169,0.6478984355926514
1725892485495823400,15.8648232421875,0.16707152128219604,0.6653844714164734,0.7444151043891907
1725892485514671600,15.883671630859375,0.0054977829568088055,0.48731738328933716,1.201341986656189
1725892485533520000,15.902519775390624,0.16584978997707367,-0.005345067009329796,1.2615121603012085
1725892485552368000,15.9213681640625,0.2611446976661682,-0.191964253783226,1.282586932182312
1725892485571216600,15.940216552734375,0.4416552484035492,0.8666644096374512,1.376354694366455
1725892485590065000,15.95906494140625,0.4862483739852905,1.0713040828704834,1.6039018630981445
1725892485608913200,15.9779130859375,0.30482152104377747,1.5877902507781982,2.2416446208953857
1725892485627761400,15.996761474609375,0.5619956254959106,1.5184571743011475,2.0531928539276123
1725892485646609700,16.015609619140626,0.7599157691001892,1.668118953704834,1.8161773681640625
1725892485665458200,16.034458251953126,0.7922916412353516,1.6983567476272583,1.728212833404541
1725892485684306400,16.053306396484373,0.766940712928772,1.1507165431976318,1.5089123249053955
1725892485703154700,16.07215478515625,0.7128791809082031,0.20418155193328857,1.3057998418807983
1725892485722003000,16.0910029296875,0.7422007322311401,0.2747364342212677,1.2471568584442139
1725892485740851200,16.109851318359375,1.0552688837051392,0.14034618437290192,0.9762382507324219
1725892485759699700,16.12869970703125,1.110857605934143,-0.13790272176265717,1.0278563499450684
1725892485778548000,16.1475478515625,1.0323615074157715,-0.249690979719162,1.1610249280929565
1725892485797396200,16.166396240234373,0.9865466356277466,-0.11896591633558273,1.1338413953781128
1725892485816244500,16.185244384765625,1.0476330518722534,0.17913609743118286,1.2172244787216187
1725892485835093000,16.204093017578124,1.1976003646850586,-0.3370446562767029,0.9762382507324219
1725892485853941200,16.222941162109375,0.813060998916626,-0.3623955249786377,1.4560725688934326
1725892485872789500,16.24178955078125,0.5348120927810669,-0.4436405599117279,1.3183225393295288
1725892485891637800,16.2606376953125,0.5870410799980164,-0.15836669504642487,1.1042144298553467
1725892485910486000,16.279486083984374,0.6890554428100586,-0.7307469844818115,0.6729438900947571
1725892485929334300,16.298334228515625,0.3536907136440277,-0.5523744821548462,0.4133263826370239
1725892485948182800,16.317182861328124,-0.047036588191986084,-0.039248060435056686,0.3882809281349182
1725892485967031000,16.336031005859375,-0.06963858753442764,-0.1611155867576599,0.07399099320173264
1725892485985879300,16.35487939453125,-0.10048725455999374,-0.27198755741119385,-0.22044582664966583
1725892486004727600,16.3737275390625,-0.314289927482605,-0.027030766010284424,-0.3972911834716797
1725892486023575800,16.392575927734374,-0.4471530318260193,0.09086613357067108,-0.5719985365867615
1725892486042424300,16.41142431640625,-0.41233372688293457,0.14798198640346527,-0.5368737578392029
1725892486061272600,16.4302724609375,-0.3023780584335327,-0.020311253145337105,-0.5258781909942627
1725892486080120800,16.449120849609375,-0.3075704276561737,0.19960007071495056,-0.546953022480011
1725892486098969000,16.467968994140627,-0.2507599890232086,0.06826414167881012,-0.6468294262886047
1725892486117817300,16.4868173828125,-0.16798780858516693,0.17516547441482544,-0.7598394155502319
1725892486136665900,16.505665771484374,0.024740023538470268,0.08872810751199722,-0.8221476078033447
1725892486155514000,16.52451416015625,-0.06261363625526428,-0.06795870512723923,-0.8420007228851318
1725892486174362400,16.5433623046875,-0.16523891687393188,0.1925751268863678,-0.7164680361747742
1725892486193210600,16.562210693359376,-0.25534147024154663,0.28664830327033997,-0.8022945523262024
1725892486212059100,16.58105908203125,-0.44318240880966187,0.46288278698921204,-0.7580068111419678
1725892486230907100,16.5999072265625,-0.5763509273529053,0.3630063831806183,-0.7195223569869995
1725892486249755600,16.618755615234374,-0.5888736248016357,0.19135339558124542,-0.8490256667137146
1725892486268604000,16.63760400390625,-0.5723803043365479,0.2029598206281662,-0.8612430095672607
1725892486287452200,16.6564521484375,-0.38331764936447144,-0.16019928455352783,-0.7955750226974487
1725892486306300400,16.675300537109376,-0.30573782324790955,-0.4540252387523651,-0.8850666880607605
1725892486325149000,16.69414892578125,-0.3814850449562073,-0.3061959743499756,-0.8661298751831055
1725892486343997200,16.7129970703125,-0.44348782300949097,-0.36514443159103394,-1.0215950012207031
1725892486362845400,16.731845458984374,-0.44929105043411255,-0.2124282270669937,-0.9733366966247559
1725892486381693700,16.750693603515625,-0.33322674036026,-0.5105302333831787,-0.9724203944206238
1725892486400542000,16.7695419921875,-0.35766133666038513,-0.5019781589508057,-1.0136537551879883
1725892486419390500,16.788390380859376,-0.3491092324256897,-0.44577857851982117,-0.9492074847221375
1725892486438238700,16.80723876953125,-0.21960589289665222,-0.5917752385139465,-1.13002347946167
1725892486457087000,16.8260869140625,-0.33597561717033386,-0.48914995789527893,-1.2103521823883057
1725892486475935200,16.844935302734374,-0.38698282837867737,-0.6443096399307251,-1.1547634601593018
1725892486494783500,16.863783447265625,-0.4013381600379944,-0.7750346660614014,-1.1309397220611572
1725892486513631700,16.8826318359375,-0.27091851830482483,-0.6003273725509644,-1.1168898344039917
1725892486532480300,16.901480224609376,-0.3707949221134186,-0.4298960864543915,-1.1627047061920166
1725892486551328500,16.92032861328125,-0.37110036611557007,-0.4738783538341522,-1.2790744304656982
1725892486570176800,16.9391767578125,-0.517707884311676,-0.4335612654685974,-1.2069923877716064
1725892486589025000,16.95802490234375,-0.5558869242668152,-0.8217658400535583,-1.3575706481933594
1725892486607873500,16.97687353515625,-0.6612611413002014,-0.5426006317138672,-1.279379963874817
1725892486626721800,16.9957216796875,-0.6652317643165588,-0.3617846667766571,-1.388724684715271
1725892486645570000,17.014570068359376,-0.6679806113243103,0.08017600327730179,-1.0823760032653809
1725892486664418300,17.033418212890624,-0.4685332775115967,0.08139773458242416,-0.7528144717216492
1725892486683266600,17.0522666015625,-0.1646280586719513,0.29275694489479065,-0.686535656452179
1725892486702114800,17.07111474609375,-0.04367683082818985,0.2811505198478699,-0.5771908760070801
1725892486720963300,17.08996337890625,-0.01954767294228077,0.40088000893592834,-0.06772962957620621
1725892486739811600,17.1088115234375,0.28496840596199036,0.4283689260482788,-0.2118937224149704
1725892486758659800,17.127659912109376,0.235793799161911,0.337350070476532,0.095982126891613
1725892486777508000,17.146508056640624,0.3020726442337036,0.4298960864543915,0.3568213880062103
1725892486796356400,17.1653564453125,0.33750277757644653,0.4143190383911133,0.5507709383964539
1725892486815204600,17.18420458984375,0.37323838472366333,0.4341721534729004,0.8574250936508179
1725892486834053000,17.20305322265625,0.37171122431755066,0.7072287201881409,1.2563197612762451
1725892486852901400,17.2219013671875,0.6334667801856995,1.3712387084960938,1.4466041326522827
1725892486871749600,17.24074951171875,0.581848680973053,1.5462514162063599,1.9362123012542725
1725892486890598000,17.259597900390624,0.6811142563819885,1.1653772592544556,2.001574754714966
1725892486909446100,17.278446044921875,0.7363975048065186,0.588110089302063,1.8186208009719849
1725892486928294400,17.29729443359375,0.7431169748306274,0.799163818359375,1.8494694232940674
1725892486947142700,17.316142578125,0.7425061464309692,0.74540776014328,1.7523419857025146
1725892486965991200,17.3349912109375,0.648127555847168,0.16875138878822327,1.846720576286316
1725892486984839400,17.35383935546875,0.7345649003982544,0.20479241013526917,1.82014799118042
1725892487003687700,17.372687744140624,1.0299180746078491,-0.047494735568761826,1.3546689748764038
1725892487022536000,17.391535888671875,1.08978271484375,-0.23472478985786438,1.5150209665298462
1725892487041384400,17.410384521484374,1.3490948677062988,-0.2793179154396057,1.458821415901184
1725892487060232700,17.429232666015626,1.59832763671875,-0.6375901103019714,0.9475276470184326
1725892487079081000,17.4480810546875,1.4193443059921265,-0.36972591280937195,1.1323142051696777
1725892487097929200,17.46692919921875,1.3613121509552002,-0.2753472924232483,1.0907753705978394
1725892487116777500,17.485777587890624,1.0555742979049683,-0.4451677203178406,1.3256529569625854
1725892487135625700,17.504625732421875,0.7116574645042419,-0.27809619903564453,1.3589450120925903
1725892487154474200,17.52347412109375,0.674700140953064,-0.07742711156606674,1.134452223777771
1725892487173322500,17.542322509765626,0.6832522749900818,-0.012675444595515728,1.2483785152435303
1725892487192170800,17.561170654296873,0.5174024701118469,-0.05299251899123192,1.061759352684021
1725892487211019000,17.58001904296875,0.15760311484336853,-0.20357069373130798,0.9157626628875732
1725892487229867300,17.5988671875,-0.09896009415388107,-0.342542439699173,0.6879100799560547
1725892487248715500,17.617715576171875,-0.053756099194288254,-0.2646571695804596,0.6500364542007446
1725892487267564000,17.63656396484375,0.0717766135931015,-0.45158177614212036,0.39744389057159424
1725892487286412300,17.655412353515626,-0.23304490745067596,0.05696314200758934,0.297872930765152
1725892487305260500,17.674260498046873,-0.2880227565765381,-0.24663665890693665,0.12957969307899475
1725892487324108800,17.69310888671875,-0.2965748608112335,-0.19501857459545135,-0.14347685873508453
1725892487342957000,17.71195703125,-0.3384190797805786,-0.20112723112106323,-0.2830594778060913
1725892487361805300,17.730805419921875,-0.3026835024356842,0.09330959618091583,-0.330706924200058
1725892487380653800,17.74965380859375,-0.26389357447624207,0.19898919761180878,-0.4220311939716339
1725892487399502000,17.768502197265626,-0.14599667489528656,0.017256930470466614,-0.566500723361969
1725892487418350300,17.787350341796873,-0.07605266571044922,-0.14248420298099518,-0.6938660144805908
1725892487437198600,17.806198486328125,-0.16249002516269684,0.02458730712532997,-0.6636282205581665
1725892487456046800,17.825046875,-0.1487455666065216,0.3266599476337433,-0.6141481995582581
1725892487474895000,17.84389501953125,-0.19211697578430176,0.3917170464992523,-0.8844558596611023
1725892487493743600,17.86274365234375,-0.1798996776342392,0.27717989683151245,-0.9409608244895935
1725892487512592000,17.881591796875,-0.314289927482605,0.019394956529140472,-1.0918444395065308
1725892487531440000,17.900440185546874,-0.6044507026672363,0.5410735011100769,-1.2439497709274292
1725892487550288400,17.919288330078125,-0.8014546036720276,0.5071704983711243,-1.2775473594665527
1725892487569136600,17.93813671875,-0.7583886384963989,0.504421591758728,-1.1850013732910156
1725892487587985000,17.95698486328125,-0.574212908744812,0.2390008419752121,-0.94523686170578
1725892487606833400,17.97583349609375,-0.18723005056381226,-0.5105302333831787,-0.9403499960899353
1725892487625681700,17.994681640625,-0.09987638890743256,-0.5636754631996155,-1.075961947441101
1725892487644530000,18.013530029296874,-0.15210533142089844,-0.4494437575340271,-1.0121265649795532
1725892487663378200,18.032378173828125,-0.32162031531333923,-0.5386300086975098,-1.1019237041473389
1725892487682226400,18.051226318359376,-0.3491092324256897,-0.19410228729248047,-1.008461356163025
1725892487701074700,18.07007470703125,-0.16096286475658417,-0.45127636194229126,-0.9473749399185181
1725892487719923200,18.088923095703127,-0.06475166976451874,-0.773202121257782,-1.1101703643798828
1725892487738771500,18.107771484375,-0.24892739951610565,-0.8602503538131714,-1.0417535305023193
1725892487757619700,18.12661962890625,-0.4529562294483185,-0.6015490889549255,-0.9449314475059509
1725892487776468000,18.145468017578125,-0.3136790692806244,-0.8254310488700867,-1.104978084564209
1725892487795316200,18.164316162109376,-0.2409861534833908,-0.9992220401763916,-1.261664867401123
1725892487814164500,18.18316455078125,-0.3646862804889679,-0.8281798958778381,-1.3450478315353394
1725892487833013000,18.202012939453127,-0.509155809879303,-0.6293434500694275,-1.204243540763855
1725892487851861200,18.220861328125,-0.49082985520362854,-0.7108938694000244,-1.1999675035476685
1725892487870709500,18.23970947265625,-0.591622531414032,-1.011744737625122,-1.3019819259643555
1725892487889557800,18.258557861328125,-0.6667588949203491,-0.6498073935508728,-1.0109049081802368
1725892487908406000,18.277406005859376,-0.6139190793037415,-0.6302597522735596,-0.955621600151062
1725892487927254300,18.296254150390624,-0.572685718536377,-0.22434009611606598,-0.8407790064811707
1725892487946102800,18.315102783203123,-0.5882627964019775,0.16264274716377258,-0.8090140223503113
1725892487964950800,18.33395068359375,-0.7993165850639343,-0.003512472379952669,-0.8923971056938171
1725892487983799300,18.35279931640625,-0.9831868410110474,0.15928299725055695,-0.49594584107398987
1725892488002647600,18.3716474609375,-0.5619956254959106,0.7783944606781006,-0.13278673589229584
1725892488021495800,18.390495849609376,-0.35643959045410156,0.48304131627082825,-0.4113410711288452
1725892488040344000,18.409343994140624,-0.5827649831771851,0.2838993966579437,0.04833467677235603
1725892488059192300,18.4281923828125,-0.47952884435653687,0.13454297184944153,0.31497713923454285
1725892488078040600,18.44704052734375,-0.1178968995809555,0.5926915407180786,0.48937904834747314
1725892488096889000,18.46588916015625,-0.004581485874950886,0.892015278339386,0.829936146736145
1725892488115737300,18.4847373046875,-0.04214967042207718,0.9943351149559021,1.2340232133865356
1725892488134585600,18.503585693359376,0.11484257876873016,0.9469931125640869,1.3229039907455444
1725892488153433900,18.522433837890624,0.2568686306476593,1.0487021207809448,1.5018874406814575
1725892488172282000,18.5412822265625,0.42913252115249634,1.2395973205566406,1.6002366542816162
1725892488191130400,18.56013037109375,0.4563159942626953,1.4008656740188599,1.830227255821228
1725892488209979000,18.578978759765626,0.6200277805328369,1.1537708044052124,1.746538758277893
1725892488228827100,18.5978271484375,0.702799916267395,1.1155917644500732,1.8852050304412842
1725892488247675400,18.61667529296875,0.9508110284805298,1.070387840270996,1.5370121002197266
1725892488266523600,18.635523681640624,0.9847140312194824,0.910952091217041,1.6387211084365845
1725892488285372000,18.654371826171875,1.0552688837051392,0.5377137064933777,1.6203951835632324
1725892488304220200,18.67322021484375,1.0543526411056519,0.17974695563316345,1.5791617631912231
1725892488323068700,18.692068603515626,1.0867284536361694,0.049021899700164795,1.3827687501907349
1725892488341917000,18.7109169921875,1.0320560932159424,0.16325360536575317,1.4743984937667847
1725892488360765200,18.72976513671875,1.1166608333587646,-0.3633118271827698,1.4774528741836548
1725892488379613400,18.748613525390624,0.851545512676239,-0.4915934205055237,1.4093414545059204
1725892488398461700,18.767461669921875,0.739757239818573,-0.16019928455352783,1.5458697080612183
1725892488417310000,18.78631005859375,0.9379828572273254,-0.4903717041015625,1.2554035186767578
1725892488436158200,18.805158203125,1.0036507844924927,-0.22098033130168915,1.1500293016433716
1725892488455006700,18.8240068359375,1.000291109085083,-0.3119991719722748,1.1106284856796265
1725892488473855000,18.84285498046875,0.6646208763122559,-0.13179408013820648,1.0315215587615967
1725892488492703200,18.861703125,0.4453204274177551,-0.3681987524032593,0.9075160026550293
1725892488511551500,18.880551513671875,0.3390299379825592,-0.4637990891933441,0.5800924897193909
1725892488530399700,18.899399658203127,0.043371398001909256,-0.2582430839538574,0.30947935581207275
1725892488549248000,18.918248046875,-0.07513637095689774,-0.15286891162395477,0.0022143847309052944
1725892488568096500,18.937096435546874,-0.12370011955499649,-0.2548833191394806,-0.18837542831897736
1725892488586944800,18.95594482421875,-0.30024003982543945,0.28817546367645264,-0.11843141168355942
1725892488605793000,18.97479296875,-0.33719736337661743,0.4864010810852051,-0.2375500351190567
1725892488624641300,18.993641357421875,-0.4056142270565033,0.48304131627082825,-0.5396226644515991
1725892488643489500,19.012489501953127,-0.3326158821582794,0.11194097250699997,-0.5438987016677856
1725892488662337800,19.031337890625,-0.2770271897315979,0.393244206905365,-0.595211386680603
1725892488681186000,19.05018603515625,-0.3426951467990875,0.31871870160102844,-0.8768200278282166
1725892488700034600,19.06903466796875,-0.31551164388656616,0.34498587250709534,-0.9015600681304932
1725892488718882800,19.0878828125,-0.14172062277793884,0.35384342074394226,-0.6969203352928162
1725892488737731000,19.10673095703125,-0.10506874322891235,0.4482220411300659,-0.612621009349823
1725892488756579300,19.125579345703127,-0.23762640357017517,0.3611738085746765,-0.6996692419052124
1725892488775427600,19.144427490234374,-0.3637699782848358,0.18280129134655,-0.8233693838119507
1725892488794275800,19.16327587890625,-0.2211330533027649,-0.012370011769235134,-0.9256892204284668
1725892488813124400,19.182124267578125,-0.06719512492418289,-0.014813470654189587,-1.0121265649795532
1725892488831972400,19.200972412109376,-0.02718348242342472,-0.305585116147995,-1.2827396392822266
1725892488850821600,19.219821533203124,-0.34177884459495544,-0.18829907476902008,-1.4678317308425903
1725892488869672400,19.23867236328125,-0.46914416551589966,0.09178243577480316,-1.215544581413269
1725892488888517400,19.257517333984374,-0.07605266571044922,-0.453719824552536,-1.2479203939437866
1725892488907365600,19.27636572265625,0.09468404203653336,-0.5761982202529907,-1.5044835805892944
1725892488926214000,19.2952138671875,-0.18753549456596375,-0.9915862679481506,-1.546327829360962
1725892488945062100,19.314062255859376,-0.5256491303443909,-0.7115047574043274,-1.250669240951538
1725892488963910700,19.33291064453125,-0.4266890585422516,-0.9228639602661133,-1.2387573719024658
1725892488982759000,19.351759033203123,-0.3543015718460083,-1.3886483907699585,-1.362152099609375
1725892489001607200,19.370607177734374,-0.4169152081012726,-1.4256056547164917,-1.4498112201690674
1725892489020455400,19.389455322265626,-0.34086254239082336,-1.2227985858917236,-1.4406481981277466
1725892489039303700,19.4083037109375,-0.2263254076242447,-1.0716094970703125,-1.5692352056503296
1725892489058152000,19.42715185546875,-0.41355544328689575,-1.3000729084014893,-1.7332524061203003
1725892489077000200,19.446000244140624,-0.6661480665206909,-0.9870047569274902,-1.6327651739120483
1725892489095848700,19.4648486328125,-0.722347617149353,-0.6885973215103149,-1.4226276874542236
1725892489114697000,19.483697021484375,-0.6829468011856079,-0.41523534059524536,-1.2051599025726318
1725892489133545200,19.502545166015626,-0.6325504779815674,-0.12904518842697144,-1.0203732252120972
1725892489152393500,19.5213935546875,-0.5913171172142029,-0.22098033130168915,-0.9101121425628662
1725892489171241700,19.54024169921875,-0.6963858604431152,-0.0032070400193333626,-0.7176897525787354
1725892489190090000,19.559090087890624,-0.5879573225975037,0.4231765866279602,-0.3197113573551178
1725892489208938200,19.577938232421875,-0.47525280714035034,0.5878046154975891,-0.13187043368816376
1725892489227786800,19.596786865234375,-0.5488619804382324,0.11468986421823502,-0.18745912611484528
1725892489246635000,19.615635009765626,-0.6029235124588013,-0.12140937149524689,-0.02802342176437378
1725892489265483300,19.634483154296873,-0.33597561717033386,0.37400195002555847,0.36476263403892517
1725892489284331500,19.65333154296875,-0.032070402055978775,0.9369138479232788,0.43226319551467896
1725892489303179800,19.6721796875,0.07269290834665298,0.7612902522087097,0.4359283745288849
1725892489322028000,19.691028076171875,-0.06383536756038666,0.836121141910553,0.8620065450668335
1725892489340876300,19.709876220703126,0.08155044913291931,1.0651954412460327,1.2663990259170532
1725892489359724500,19.728724609375,0.33628106117248535,1.6482658386230469,1.3589450120925903
1725892489378573000,19.747572998046873,0.5302306413650513,1.5233440399169922,1.3513092994689941
1725892489397421300,19.76642138671875,0.3686569035053253,1.513264775276184,1.8253402709960938
1725892489416269600,19.78526953125,0.4889972507953644,1.4133883714675903,1.9249112606048584
1725892489435117800,19.804117919921875,0.7147117853164673,1.3492475748062134,1.5681662559509277
1725892489453966000,19.822966064453126,0.6948586702346802,1.3660463094711304,1.8479423522949219
1725892489472814300,19.841814453125,1.0247256755828857,0.5102248191833496,1.8082361221313477
1725892489491662600,19.86066259765625,1.0225876569747925,0.01359174121171236,1.7062216997146606
1725892489510510800,19.8795107421875,0.9385937452316284,-0.05635227635502815,1.6017638444900513
1725892489529359400,19.898359375,0.9456186890602112,-0.19013166427612305,1.6371939182281494
1725892489548207600,19.91720751953125,0.8277217745780945,-0.12354740500450134,1.8503857851028442
1725892489567056000,19.936055908203127,0.8002328872680664,-0.24572035670280457,1.8149555921554565
1725892489585904000,19.954904052734374,0.9685261249542236,-0.5862774848937988,1.5480077266693115
1725892489604752400,19.97375244140625,0.7648026943206787,-0.16783510148525238,1.347033143043518
1725892489623600600,19.9926005859375,0.5067123174667358,-0.022449281066656113,1.430721640586853
1725892489642449200,20.01144921875,0.6472112536430359,-0.49342602491378784,1.1875975131988525
1725892489661297200,20.030297119140624,0.6795870661735535,-0.0206166859716177,0.9548580050468445
1725892489680145700,20.049145751953127,0.5015199780464172,-0.2646571695804596,0.6763036847114563
1725892489698994000,20.067993896484374,0.16249002516269684,-0.05757400393486023,0.4701367914676666
1725892489717842200,20.08684228515625,0.013744457624852657,0.04260781779885292,0.2911534309387207
1725892489736690400,20.1056904296875,-0.0360410213470459,-0.07162389904260635,0.05871937796473503
1725892489755538700,20.12453857421875,-0.24434591829776764,0.12140937149524689,-0.1599702090024948
1725892489774387000,20.143386962890624,-0.25442516803741455,0.17088942229747772,-0.19356778264045715
1725892489793235200,20.162235107421875,-0.2657261788845062,0.28725916147232056,-0.30138540267944336
1725892489812083700,20.181083740234374,-0.2415970265865326,0.41554075479507446,-0.2680932879447937
1725892489830932000,20.199931884765626,-0.17745621502399445,0.23655737936496735,-0.26137375831604004
1725892489849780200,20.2187802734375,-0.25534147024154663,0.09178243577480316,-0.4156171381473541
1725892489868628500,20.23762841796875,-0.3032943606376648,0.31444263458251953,-0.5548942685127258
1725892489887476700,20.256476806640624,-0.2684750556945801,0.40637779235839844,-0.5313760042190552
1725892489906325000,20.275324951171875,-0.42088583111763,0.5273290276527405,-0.595211386680603
1725892489925173200,20.29417333984375,-0.49968740344047546,0.6809614896774292,-0.6065123677253723
1725892489944021800,20.313021728515626,-0.40836310386657715,0.4179842174053192,-0.7057778835296631
1725892489962869800,20.331869873046877,-0.3237583339214325,0.1259908676147461,-0.8639918565750122
1725892489981718300,20.35071826171875,-0.31490078568458557,0.006872228812426329,-1.059163212776184
1725892490000566500,20.36956640625,-0.4105011224746704,-0.10094540566205978,-1.3270273208618164
1725892490019414800,20.388414794921875,-0.528092622756958,0.29764387011528015,-1.2693006992340088
1725892490038263000,20.407262939453126,-0.3173442482948303,-0.08597921580076218,-1.27846360206604
1725892490057111300,20.426111328125,-0.21868959069252014,-0.31780239939689636,-1.3829214572906494
1725892490075959600,20.44495947265625,-0.1545487940311432,-0.258853942155838,-1.2497529983520508
1725892490094807800,20.463807861328124,0.10537417232990265,-0.5215258002281189,-1.271133303642273
1725892490113656300,20.48265625,-0.12278381735086441,-0.5581777095794678,-1.5163954496383667
1725892490132504600,20.501504638671875,-0.24404047429561615,-0.6024653911590576,-1.269606113433838
1725892490151352800,20.520352783203126,-0.20952661335468292,-1.0917680263519287,-1.3575706481933594
1725892490170201000,20.539201171875,-0.3533852696418762,-1.3238966464996338,-1.326111078262329
1725892490189049300,20.55804931640625,-0.3271180987358093,-1.162628412246704,-1.2234858274459839
1725892490207897600,20.576897705078125,-0.33597561717033386,-1.2735003232955933,-1.3807834386825562
1725892490226745900,20.595745849609376,-0.3900371491909027,-1.3535236120224,-1.4482840299606323
1725892490245594400,20.614594482421875,-0.5809323787689209,-1.5147919654846191,-1.3795617818832397
1725892490264442400,20.6334423828125,-0.6661480665206909,-1.4796671867370605,-1.352378249168396
1725892490283291000,20.652290771484374,-0.6249146461486816,-1.1381938457489014,-1.2060761451721191
1725892490302139100,20.67113916015625,-0.6078104376792908,-0.8205441236495972,-1.1449897289276123
1725892490320987400,20.6899873046875,-0.6331613659858704,-0.8462004065513611,-1.0170135498046875
1725892490339835600,20.708835693359376,-0.5699368119239807,-0.22128576040267944,-0.7656426429748535
1725892490358684000,20.727683837890623,-0.5992583632469177,0.05451968312263489,-0.9134719371795654
1725892490377532200,20.7465322265625,-0.42943793535232544,0.17944152653217316,-0.9064469933509827
1725892490396380400,20.76538037109375,-0.27580544352531433,0.4903717041015625,-0.40309441089630127
1725892490415229000,20.78422900390625,-0.24770566821098328,0.7499892115592957,-0.1495855152606964
1725892490434077000,20.803076904296876,-0.1640172004699707,0.8028290271759033,0.16745330393314362
1725892490452925400,20.821925537109376,-0.1130099818110466,0.864220917224884,0.4359283745288849
1725892490471773700,20.840773681640623,0.10445787757635117,1.1818705797195435,0.8119156360626221
1725892490490622000,20.8596220703125,0.3182605504989624,1.3153445720672607,1.0843613147735596
1725892490509470200,20.87847021484375,0.3426951467990875,0.8364266157150269,1.2981640100479126
1725892490528318500,20.897318359375,0.3860665261745453,0.5196931958198547,1.5287654399871826
1725892490547166700,20.916166748046876,0.4355465769767761,0.48181959986686707,1.744706153869629
1725892490566015000,20.935014892578124,0.4944950342178345,0.6934842467308044,1.754480004310608
1725892490584863500,20.953863525390624,0.5534434914588928,0.633619487285614,1.7276020050048828
1725892490603711700,20.972711669921875,0.6826413869857788,0.9228639602661133,1.7355432510375977
1725892490622560000,20.99156005859375,0.8616247773170471,0.9094249606132507,1.6936990022659302
1725892490641408300,21.010408203125,0.9569196701049805,0.7005091905593872,1.6060398817062378
1725892490660256500,21.029256591796877,0.8994984030723572,0.4598284661769867,1.718133568763733
1725892490679104800,21.048104736328124,0.8051197528839111,0.26679518818855286,1.8436663150787354
1725892490697953000,21.066953125,0.8197805285453796,-0.19593487679958344,1.708665132522583
1725892490716801500,21.085801513671875,0.9153808951377869,-0.10094540566205978,1.7117195129394531
1725892490735649500,21.1046494140625,1.0919208526611328,-0.7896954417228699,1.6231440305709839
1725892490754498000,21.123498046875,0.6893609166145325,-0.4702131748199463,1.8268674612045288
1725892490773346300,21.14234619140625,0.37323838472366333,-0.24480405449867249,1.9270492792129517
1725892490792194600,21.161194580078124,0.39767298102378845,0.11591159552335739,1.7798309326171875
1725892490811042800,21.180042724609375,0.5293143391609192,-0.025503603741526604,1.5568652153015137
1725892490829891000,21.19889111328125,0.5323686599731445,-0.356286883354187,1.2523491382598877
1725892490848739300,21.2177392578125,0.21868959069252014,0.18432845175266266,1.070311427116394
1725892490867587800,21.236587890625,0.19700388610363007,0.26771149039268494,0.9817360639572144
1725892490886436000,21.25543603515625,0.33231043815612793,0.09575305134057999,0.701349139213562
1725892490905284400,21.274284423828124,0.2055560052394867,-0.18371757864952087,0.48479756712913513
1725892490924132600,21.293132568359376,-0.13744457066059113,0.17424917221069336,0.37514734268188477
1725892490942980900,21.31198095703125,-0.41416633129119873,0.23991714417934418,-0.06620246917009354
1725892490961829000,21.3308291015625,-0.4517345130443573,0.24266603589057922,-0.4311941862106323
1725892490980677400,21.349677490234374,-0.3503309488296509,0.19043709337711334,-0.40553784370422363
1725892490999526000,21.36852587890625,-0.35063639283180237,0.37980517745018005,-0.4641808867454529
1725892491018381600,21.387381591796874,-0.3796524703502655,0.6003273725509644,-0.5829941034317017
1725892491037222400,21.406222412109376,-0.2977965772151947,0.36483898758888245,-0.6987529397010803
1725892491056070700,21.425070556640627,-0.18875721096992493,0.04321868345141411,-0.7912989854812622
1725892491074919000,21.4439189453125,-0.07605266571044922,-0.003512472379952669,-0.8105412125587463
1725892491093767200,21.46276708984375,-0.24953825771808624,0.295811265707016,-0.8652135729789734
1725892491112615400,21.481615478515625,-0.2965748608112335,0.5798633694648743,-0.9626465439796448
1725892491131464000,21.5004638671875,-0.14477495849132538,0.10827577859163284,-1.212795615196228
1725892491150312200,21.519312255859376,-0.13530655205249786,0.007788525894284248,-1.388419270515442
1725892491169160400,21.538160400390623,-0.19181154668331146,0.49800750613212585,-1.248836636543274
1725892491188008700,21.5570087890625,-0.14996729791164398,-0.48670652508735657,-1.546633243560791
1725892491206857000,21.57585693359375,-0.3329212963581085,-0.13393209874629974,-1.8285473585128784
1725892491225705200,21.594705322265625,-0.38759371638298035,0.0435241162776947,-1.6104686260223389
1725892491244553700,21.6135537109375,-0.35613417625427246,-0.25274530053138733,-1.5915318727493286
1725892491263401700,21.632401611328124,-0.4050033390522003,-0.09453132748603821,-1.604054570198059
1725892491282250200,21.651250244140623,-0.30543237924575806,-0.6036871075630188,-1.79953134059906
1725892491301098500,21.670098388671875,-0.19883649051189423,-1.2527309656143188,-1.9201771020889282
1725892491319946800,21.68894677734375,-0.3228420317173004,-1.7759366035461426,-1.9342269897460938
1725892491338795000,21.707794921875,-0.565049946308136,-1.6717841625213623,-1.7479132413864136
1725892491357643300,21.726643310546876,-0.5210676789283752,-1.3617702722549438,-1.797698736190796
1725892491376491500,21.745491455078124,-0.37720900774002075,-1.3608540296554565,-2.152611017227173
1725892491395340000,21.764340087890623,-0.28985533118247986,-1.399643898010254,-2.256763458251953
1725892491414188300,21.783188232421875,-0.25045454502105713,-0.4289797842502594,-1.5753439664840698
1725892491433036500,21.80203662109375,-0.09712749719619751,0.5905535221099854,-1.1370484828948975
1725892491451884800,21.820884765625,-0.22815799713134766,-0.42531460523605347,-1.4650827646255493
1725892491470733000,21.839733154296876,-0.7159335017204285,-0.5245801210403442,-0.9785290360450745
1725892491489581300,21.858581298828124,-0.6215549111366272,-0.1718057245016098,-0.5493965148925781
1725892491508429800,21.877429931640624,-0.40927940607070923,0.023976443335413933,-0.29558220505714417
1725892491527278000,21.896278076171875,-0.26939135789871216,-0.03283398225903511,-0.0322994738817215
1725892491546126300,21.915126220703126,-0.2721402645111084,-0.21914774179458618,0.2911534309387207
1725892491564974600,21.933974609375,-0.2260199636220932,0.21151192486286163,0.6341540217399597
1725892491583822800,21.95282275390625,-0.12370011955499649,0.43203410506248474,0.654007077217102
1725892491602671000,21.971671142578124,0.14538581669330597,0.8975130915641785,0.7661007642745972
1725892491621519600,21.99051953125,0.4868592321872711,1.0206023454666138,1.1417826414108276
1725892491640367900,22.009367919921875,0.3020726442337036,0.5459604263305664,1.3519201278686523
1725892491659216100,22.028216064453126,0.07055488228797913,0.25610506534576416,1.3164899349212646
1725892491678064400,22.047064453125,0.11453714966773987,0.6782126426696777,1.3516147136688232
1725892491696913000,22.065912841796877,0.3704894781112671,1.650098443031311,1.4316380023956299
1725892491715761000,22.084760986328124,0.7751874327659607,2.2640175819396973,1.7260748147964478
1725892491734609400,22.103609375,0.8799507021903992,1.402392864227295,1.7550908327102661
1725892491753457700,22.122457763671875,0.6102539300918579,0.9243911504745483,1.7370703220367432
1725892491772306000,22.141305908203126,0.5760455131530762,0.9582940936088562,2.088623046875
1725892491791154200,22.160154296875,0.8772017955780029,0.5047270059585571,1.9472078084945679
1725892491810002700,22.179002685546877,1.0259474515914917,0.5728384256362915,1.7346268892288208
1725892491828851000,22.197850830078124,1.1624757051467896,-0.0591011680662632,1.9270492792129517
1725892491847699200,22.21669921875,1.0357211828231812,-0.33399030566215515,1.9740859270095825
1725892491866547500,22.23554736328125,0.48472121357917786,-0.014813470654189587,2.016235589981079
1725892491885395700,22.254395751953126,0.43921178579330444,-0.15012001991271973,1.8836779594421387
1725892491904244200,22.273244140625,0.7076868414878845,-0.1971566081047058,1.7318780422210693
1725892491923092500,22.292092529296873,1.0977239608764648,-0.5884155035018921,1.4450769424438477
1725892491941940700,22.310940673828124,0.8274163603782654,-0.17852523922920227,1.006170630455017
1725892491960789000,22.3297890625,0.08002328872680664,0.32971426844596863,0.737084686756134
1725892491979637200,22.34863720703125,0.054672397673130035,0.24083344638347626,0.5452731847763062
1725892491998485800,22.36748583984375,-0.11972949653863907,0.1415679156780243,0.11858412623405457
1725892492017334000,22.386333984375,-0.23518294095993042,-0.12660172581672668,-0.05306887626647949
1725892492036182300,22.405182373046873,-0.3543015718460083,-0.27259841561317444,-0.16149736940860748
1725892492055030500,22.424030517578124,-0.34636032581329346,0.2551887631416321,-0.21464261412620544
1725892492073879000,22.442879150390624,-0.2684750556945801,0.1562286615371704,-0.3087157905101776
1725892492092727300,22.461727294921875,-0.31093016266822815,0.1928805559873581,-0.4675406217575073
1725892492111575600,22.480575439453126,-0.24037529528141022,0.6006327867507935,-0.4999164640903473
1725892492130423800,22.499423828125,-0.023212861269712448,0.1769980639219284,-0.46082112193107605
1725892492149272000,22.51827197265625,-0.10476330667734146,0.09056070446968079,-0.6031526327133179
1725892492168120600,22.53712060546875,-0.18753549456596375,-0.024281874299049377,-0.7949641346931458
1725892492186968800,22.55596875,-0.20433427393436432,-0.16661337018013,-0.9467640519142151
1725892492205817000,22.574817138671875,-0.32559093832969666,0.41004297137260437,-0.8881210088729858
1725892492224665300,22.593665283203126,-0.1078176349401474,0.41004297137260437,-0.8578832149505615
1725892492243513600,22.612513671875,-0.04062250629067421,0.1256854236125946,-1.0994802713394165
1725892492262362000,22.631362060546873,-0.3900371491909027,-0.07773254066705704,-1.3517674207687378
1725892492281210400,22.65021044921875,-0.9083559513092041,0.03222311660647392,-1.3548216819763184
1725892492300058600,22.66905859375,-0.7730493545532227,0.3205513060092926,-0.9559270143508911
1725892492318907100,22.6879072265625,-0.282524973154068,-0.48273590207099915,-1.2619702816009521
1725892492337755400,22.70675537109375,-0.23243404924869537,-0.7255546450614929,-1.6926299333572388
1725892492356603600,22.725603759765626,-0.6643154621124268,-0.3404043912887573,-1.5570179224014282
1725892492375452000,22.744451904296874,-0.3698786199092865,-0.2942841053009033,-1.2564724683761597
1725892492394300200,22.763300048828125,-0.36682429909706116,-0.8605557680130005,-1.6917136907577515
1725892492413148700,22.782148681640624,-0.7168498039245605,-1.0471749305725098,-1.6434553861618042
1725892492431997000,22.800996826171875,-0.6890554428100586,-1.2499819993972778,-1.6407064199447632
1725892492450845200,22.81984521484375,-0.5800161361694336,-1.7175990343093872,-1.8581743240356445
1725892492469693700,22.838693603515626,-0.572685718536377,-1.9136866331100464,-1.835572361946106
1725892492488542000,22.8575419921875,-0.32589635252952576,-1.2704460620880127,-1.6700279712677002
1725892492507390200,22.87639013671875,-0.17745621502399445,-1.0468695163726807,-1.7747912406921387
1725892492526238500,22.895238525390624,-0.28557929396629333,-1.224936604499817,-1.743637204170227
1725892492545086700,22.914086669921875,-0.48960810899734497,-0.9888373613357544,-1.3471859693527222
1725892492563935200,22.932935302734375,-0.509155809879303,-0.10338886082172394,-0.880179762840271
1725892492582783500,22.951783447265626,-0.37690356373786926,-0.09911280870437622,-0.7552579641342163
1725892492601631700,22.9706318359375,-0.33505934476852417,0.04810560122132301,-0.3191004991531372
1725892492620480300,22.989480224609373,-0.24495677649974823,0.33948808908462524,-0.09949459880590439
1725892492639328500,23.00832861328125,-0.11728604137897491,0.671187698841095,0.24930918216705322
1725892492658176800,23.0271767578125,0.0977383628487587,1.07863450050354,0.7917571067810059
1725892492677025300,23.046025390625,0.1588248461484909,1.095433235168457,1.0028108358383179
1725892492695873500,23.06487353515625,0.09834922850131989,0.5303833484649658,0.8733075857162476
1725892492714721800,23.0837216796875,0.0009162971982732415,0.25213444232940674,1.0529018640518188
1725892492733570300,23.1025703125,0.16859868168830872,0.6229293346405029,1.4059816598892212
1725892492752418600,23.12141845703125,0.28496840596199036,0.9699005484580994,1.559308648109436
1725892492771266800,23.140266845703124,0.41325002908706665,0.7270817756652832,1.5712205171585083
1725892492790115000,23.159114990234375,0.38820457458496094,0.9723440408706665,1.6930880546569824
1725892492808963300,23.17796337890625,0.5885682106018066,1.366351842880249,1.968282699584961
1725892492827811800,23.196811767578126,0.6994401812553406,1.419191598892212,1.8293108940124512
1725892492846660000,23.21566015625,0.6267472505569458,1.3132065534591675,1.8070143461227417
1725892492865508400,23.23450830078125,0.6731730103492737,1.2136355638504028,1.9939390420913696
1725892492884356900,23.25335693359375,0.822834849357605,0.5319104790687561,1.96858811378479
1725892492903205000,23.272205078125,0.8854485154151917,0.42073312401771545,1.9646174907684326
1725892492922053400,23.291053466796875,1.1081087589263916,-0.10430516302585602,2.088012218475342
1725892492940901600,23.309901611328126,1.2809834480285645,-0.47845983505249023,2.022038698196411
1725892492959750100,23.328750244140625,1.0943642854690552,-0.24785839021205902,2.1206934452056885
1725892492978598400,23.347598388671877,0.6606502532958984,-0.0951421856880188,2.191859245300293
1725892492997447000,23.366447021484376,0.2574795186519623,0.12751802802085876,1.8629084825515747
1725892493016295200,23.385295166015624,0.31642794609069824,0.15989385545253754,1.411173939704895
1725892493035143400,23.404143310546875,0.49082985520362854,0.06001746281981468,1.0107520818710327
