time,seconds_elapsed,z,y,x
1725631011888328200,0.019328125,-1.0650783779859543,0.6837976719528436,-0.12013590720444917
1725631011898362400,0.0293623046875,-0.769745770612359,0.5330079755485058,-0.3725370622809976
1725631011908396300,0.039396240234375,-0.43727088880240916,0.33324820427000523,-0.4212097616437822
1725631011918430200,0.04943017578125,-0.12913900561034677,0.11053951908051966,-0.31590127508454025
1725631011928464100,0.059464111328125,0.019546411991119384,0.16333412067890166,0.3305305428091436
1725631011938499300,0.069499267578125,0.11431319240033626,0.37946108939051626,0.9098430272843688
1725631011948533200,0.079533203125,0.37149639412164687,0.7518225759088992,0.8121372708138078
1725631011958567400,0.0895673828125,0.38367899934649463,1.1537222916007042,0.09429755546227096
1725631011968600600,0.0996005859375,0.7477250774621963,0.09229133020639418,0.11550006409734487
1725631011978635500,0.109635498046875,1.0934890644341706,-0.10836275956332683,1.1858701187506318
1725631011988669700,0.119669677734375,1.2697574854880571,-0.3480500520825386,1.841860476975888
1725631011998703400,0.129703369140625,1.502497150826454,-0.8966489799946546,2.0976764819972216
1725631012008737500,0.139737548828125,1.1937982814013957,-1.3695774576336144,2.2844372171014546
1725631012018771700,0.149771728515625,0.7847662296116351,-1.0937035839676856,1.7842741110563276
1725631012028806400,0.159806396484375,0.318460969504714,-0.36103403681814666,1.1014444804180412
1725631012038840600,0.169840576171875,-0.013900515058636664,0.34545535941421984,0.9555129646345972
1725631012048874500,0.17987451171875,-0.19305998137891292,0.5268026911675929,1.1683663915682583
1725631012058908400,0.189908447265625,-0.09539455691874027,0.530512067079544,1.621296548730135
1725631012068943600,0.199943603515625,-0.017318214547634124,0.44817982082962987,1.979714119439572
1725631012078977500,0.2099775390625,0.12928572060465812,0.36356267851293084,2.0468603408649564
1725631012089011500,0.220011474609375,0.3299427329838276,0.20642098273336887,1.8442760136850178
1725631012099045600,0.230045654296875,0.35878421206474304,0.03736965345144272,1.3893025871925055
1725631012109079600,0.24007958984375,0.11527589995265006,0.7981243083566427,0.49840851746276016
1725631012119114800,0.25011474609375,-0.4261158730596304,0.8395335925877094,0.5714797450229525
1725631012129148400,0.2601484375,-1.2924094622790814,0.08186579778194426,0.5790814521983265
1725631012139182600,0.2701826171875,-1.786492956149578,-0.23049802389144897,-0.18947393958568573
1725631012149216800,0.280216796875,-1.9236878424435853,-0.4534896176755428,-0.8256855383686721
1725631012159250400,0.29025048828125,-1.5211948370337485,0.09405191013813018,-0.9888702406395227
1725631012169285600,0.30028564453125,-0.36957565519213675,0.3880161517679691,-0.8123989174246787
1725631012179319600,0.310319580078125,0.33957156207263467,0.14307926815748215,-0.15648710432834922
1725631012189353500,0.320353515625,0.7178080781042575,0.0026759412109851836,0.2877208902608603
1725631012199387600,0.3303876953125,0.28755320554375646,0.785434338131547,0.0030599720925092696
1725631012209422600,0.340422607421875,-0.7822118689537048,2.2203233491092917,-0.337852337064594
1725631012219456500,0.35045654296875,-1.8788105898410081,3.132726947596669,-0.3650299745865166
1725631012229490400,0.360490478515625,-2.183769103693962,3.0541958471953867,-0.22749628479219972
1725631012239524600,0.370524658203125,-1.8981430668205022,2.799880894386768,0.15823109845146535
1725631012249558500,0.38055859375,-1.0869120241314172,2.696056362774968,-0.46177324270047243
1725631012259593500,0.390593505859375,-0.47081075483262536,2.4499253009438515,-1.2520488103181122
1725631012269627600,0.400627685546875,-0.45735330736637114,2.0087018751233816,-0.8321718316480516
1725631012279661300,0.410661376953125,-0.6985474973171949,1.991219994446635,-1.2423254348136483
1725631012289695500,0.420695556640625,-0.7952110512584447,2.076788738399744,-0.6666081983514129
1725631012299730400,0.43073046875,-0.15680442664921282,2.278932774466276,0.4493001300964504
1725631012309764600,0.4407646484375,1.1302858864337206,2.5125205810666085,1.0894560825910418
1725631012319798500,0.450798583984375,2.4628309597462414,2.8618355385184286,1.0560735260143876
1725631012329832400,0.46083251953125,3.2047564110189675,3.231379629528522,0.48160625308062877
1725631012339866600,0.47086669921875,2.9735476085096595,3.620625615352392,-0.26258303320454435
1725631012349901300,0.4809013671875,3.3735821148514744,3.754591018205881,-0.6954955624006688
1725631012359935500,0.490935546875,3.735772920489311,3.443582702794671,-0.8463876962661743
1725631012369969700,0.5009697265625,2.9447891315370796,2.8921447520643473,-1.2762011086694895
1725631012380003300,0.51100341796875,0.9528583584725856,2.269156938122213,-2.0124400387384
1725631012390037500,0.52103759765625,-1.7215601729899643,1.803675561618805,-2.776319109274447
1725631012400072400,0.531072509765625,-4.021974126902222,1.855860214625299,-1.561371949121356
1725631012410106400,0.5411064453125,-4.68547369171381,2.2924755621284243,-0.3655729954220354
1725631012420140500,0.551140625,-3.478461123952269,3.1327862765684724,-0.729237819135189
1725631012430174500,0.561174560546875,-1.143744502943754,3.1407793211489916,-1.173352728613466
1725631012440209700,0.571209716796875,0.5892208611577749,2.77552036011219,-1.194991290578246
1725631012450243600,0.58124365234375,1.9396371067255733,2.4106606275260445,-1.1223350735597313
1725631012460277500,0.591277587890625,2.1534224807471034,2.149923240454495,-1.51435680770725
1725631012470311700,0.601311767578125,0.7824152825713158,2.457633975625038,-0.8242873620085418
1725631012480345600,0.611345703125,-1.0444821646809577,3.195441762445867,0.6161842714071274
1725631012490380500,0.621380615234375,-2.657450445526838,4.762630581152439,1.7376342326954006
1725631012500414700,0.631414794921875,-4.432831056031585,6.677921182128786,3.2466105164080856
1725631012510448400,0.641448486328125,-5.2956560923576355,8.001039086404443,4.1744709194853895
1725631012520482600,0.651482666015625,-4.169392301046848,8.307270688933134,4.531092108297348
1725631012530517500,0.661517578125,-2.514553548198938,7.484630363479257,4.220664223122596
1725631012540551400,0.671551513671875,-0.8003536748439073,6.2157134204685685,3.219142079246044
1725631012550585600,0.681585693359375,-0.0914893661737442,5.560311821916699,2.1935766503505407
1725631012560619500,0.69161962890625,-0.17048866860866546,5.60081918887198,1.78952414053902
1725631012570653400,0.7016533203125,-0.4831646249711513,5.340835542777181,1.1923457445055246
1725631012580688400,0.7116884765625,-1.244529520729184,4.872331895843148,0.8215545760437846
1725631012590722600,0.72172265625,-1.994073630312085,4.139160244390368,0.8967074321836233
1725631012600756700,0.7317568359375,-2.256530388522148,2.8742335400596257,0.7688476527288556
1725631012610790400,0.741790283203125,-2.8738053777754304,1.3037407113716006,0.5280944845438004
1725631012620824600,0.751824462890625,-4.130508735901117,-0.48671373228747394,0.6133776895537972
1725631012630859500,0.761859619140625,-5.2042058891505,-2.5490520301282404,0.8904267444789409
1725631012640893400,0.7718935546875,-6.726003952774405,-4.109803509263694,-0.5084957578435539
1725631012650927600,0.781927734375,-9.586023381781578,-5.3997699623048305,-1.7842086446046828
1725631012660961500,0.79196142578125,-11.281398727679251,-6.676846246373653,-1.5128998868972061
1725631012670996500,0.80199658203125,-12.440975590527056,-7.455987037318945,-1.9789201925829052
1725631012681030400,0.812030517578125,-12.846325154411792,-7.475645677512884,-2.84394741512835
1725631012691064600,0.822064697265625,-11.876005958050488,-7.838017684936523,-3.790613348701596
1725631012701098500,0.832098388671875,-10.203756636196374,-8.245539332163334,-4.877713004359602
1725631012711132400,0.84213232421875,-8.327479948747158,-8.12424577935636,-6.363836528012156
1725631012721167600,0.852167724609375,-6.6527183518111705,-7.879901016420125,-7.1018924443751565
1725631012731201500,0.862201416015625,-5.535050539410114,-7.53667619253695,-7.886149555420875
1725631012741235500,0.8722353515625,-5.465985771012306,-7.0322577671349045,-9.997939464575051
1725631012751269600,0.88226953125,-5.370999210372567,-7.121634671199321,-11.998204935264587
1725631012761304600,0.8923046875,-4.625197794449329,-6.377632413652539,-12.305417950046062
1725631012771338500,0.90233837890625,-4.153656387254595,-4.8798242974251504,-12.19503216022253
1725631012781372700,0.91237255859375,-3.6915655299723147,-2.9477883133530614,-9.808714531314372
1725631012791406600,0.922406494140625,-3.477534656757116,-0.7160945521846414,-6.614411125248671
1725631012801440500,0.9324404296875,-3.165715024963021,0.07095145892724394,-4.332453450003266
1725631012811475500,0.942475341796875,-2.1711253106981516,-0.7449192262612283,-3.5646050374448297
1725631012821509600,0.952509521484375,-1.7154413978487253,-1.4326479540526866,-2.561688224339485
1725631012831543600,0.96254345703125,-0.9705106272801757,-2.362167668644339,-2.545696874481439
1725631012841577500,0.972577392578125,-0.5435685325294732,-2.9539626180738208,-2.5729437778472897
1725631012851611600,0.982611572265625,0.03228782014250755,-3.557314295914769,-3.465136362954974
1725631012861646600,0.992646484375,0.4514689255028963,-3.412909332111478,-2.530110013771057
1725631012871680500,1.002680419921875,0.783835963024199,-3.202963097861409,-1.868801237002015
1725631012881714700,1.012714599609375,-0.27585399992167947,-2.2067625873990355,-0.5017617734134197
1725631012891748400,1.022748291015625,-0.8150140683591365,-0.9929382937960326,0.9413917925626039
1725631012901782500,1.032782470703125,-0.6822299842447042,-0.20465426532179115,1.5416986958801746
1725631012911817500,1.0428173828125,-0.6743290018618107,0.4068941629782319,2.1328829660654067
1725631012921851600,1.0528515625,-0.12502864768207073,0.7522796720266341,2.1972072619378564
1725631012931885600,1.062885498046875,0.4206190292090177,0.6782160724282265,1.0863970603466033
1725631012941919500,1.07291943359375,0.4282598993510008,0.6569540886908769,1.290325057220459
1725631012951954700,1.08295458984375,1.186938332504034,0.7000576096192002,1.477405379667878
1725631012961988400,1.09298828125,1.6615940723270177,0.3921620194010436,1.2060381697714329
1725631012972023000,1.10302294921875,2.342923308339715,0.48214127327278256,1.380117556348443
1725631012982057200,1.11305712890625,2.764322966532409,0.9419434350959957,1.856107759645581
1725631012992091000,1.1230908203125,1.753596064198017,1.1448407737478614,1.5580442660033702
1725631013002126000,1.1331259765625,-0.44264732114374633,2.1227397577136755,1.7488509154975413
1725631013012160000,1.143159912109375,-0.40850685887187715,1.332589789237082,1.930087188091874
1725631013022194000,1.15319384765625,1.17785398555547,-0.3171878808289766,0.6552998917430639
1725631013032228000,1.16322802734375,2.180309318628907,-0.8046810365237295,-0.9474515309929847
1725631013042262000,1.173261962890625,1.8810574919849634,-0.2550746851347387,-1.1657751329660415
1725631013052297000,1.183296875,1.1549228995621204,0.1829490678615868,-0.6599976941704749
1725631013062331000,1.193330810546875,0.3314905469477176,0.6454699871242046,-0.5397901830345392
1725631013072365000,1.203364990234375,0.06430500665009022,1.1261083084881305,-0.8119073345154524
1725631013082399000,1.21339892578125,-0.20594985809028146,1.0597041376017033,-1.1109428880602121
1725631013092434000,1.223433837890625,-0.5562760384112596,0.3093396515466273,-1.5145529148012398
1725631013102468000,1.233468017578125,-0.4469494022518396,-0.3333686157792806,-2.054904238849878
1725631013112502000,1.243501953125,-0.21485797168910503,-0.5732492389135062,-2.3528321234136818
1725631013122536000,1.253535888671875,-0.1305021106570959,-0.8693636443145573,-2.259261274790764
1725631013132570000,1.263570068359375,0.37807635703384873,-1.0592414885260164,-1.3457014920055865
1725631013142605000,1.27360498046875,0.9648866499185561,-1.0120696952454744,-0.5837205101758242
1725631013152639000,1.283638916015625,1.2546832504749297,-1.1460011958293617,-0.13712123653590677
1725631013162673000,1.2936728515625,1.3370342014253138,-1.3415896727725862,0.5314566544532776
1725631013172707000,1.30370703125,1.092953057861328,-1.3630690986528993,0.9638187284260987
1725631013182741000,1.313740966796875,-0.1356178462356329,-1.0591755836829542,1.4145412194758653
1725631013192776000,1.32377587890625,-3.6670039201676845,-0.07628785151913761,2.699314487788081
1725631013202810000,1.33381005859375,-4.812464579379558,0.7504938115231692,3.505938913464546
1725631013212843800,1.34384375,-3.11306772288084,0.4823001170963049,3.772437056019902
1725631013222878000,1.3538779296875,-2.0756576885432003,0.21146613729372618,3.322282720246911
1725631013232913000,1.363912841796875,-2.0063363150358198,0.36267172102257605,2.5051123506367206
1725631013242947000,1.373947021484375,-1.8028128073096275,0.660870385351777,1.8514485356628894
1725631013252981000,1.38398095703125,-1.210161387181282,0.7583645448982715,1.0812439153671265
1725631013263015000,1.394014892578125,-0.5622673877805471,1.0914362235575914,0.5601262840986252
1725631013273048800,1.404048828125,-0.18569442104697226,1.5873884339094162,-0.14863514871895311
1725631013283084000,1.414083984375,0.20661445947885512,2.1881378202974795,-0.46171442518532274
1725631013293118000,1.424117919921875,0.4723720127999782,2.42123433624953,-0.6171686062693595
1725631013303152000,1.434152099609375,-0.23494623547196386,1.5730127025544642,-1.0264952570915222
1725631013313186000,1.44418603515625,-0.5420598815321922,0.4806409517124295,-1.0475503200799225
1725631013323220000,1.454219970703125,0.26670214069485665,-0.019094576570391653,-1.3407289642900229
1725631013333255200,1.464255126953125,0.7267068393528461,-0.6301946765810251,-1.5988140832871198
1725631013343288800,1.474288818359375,0.8504512924432754,-1.2851023541361093,-1.6546721641093491
1725631013353323000,1.484322998046875,0.35697920846939085,-1.8320818641528487,-1.7356489040970802
1725631013363357200,1.494357177734375,-0.5116951384067535,-2.058300895550847,-1.879288144224882
1725631013373390800,1.504390869140625,-0.6619418139755725,-1.8573352556139229,-1.388336518639326
1725631013383426000,1.514426025390625,-0.18161679634451866,-1.231334815852344,-0.6918862858623266
1725631013393460000,1.5244599609375,0.18426234241724013,-1.09695937089324,-0.715817196547985
1725631013403494000,1.534493896484375,0.4709247366011142,-0.9261647050753236,-0.725127461206913
1725631013413528000,1.544528076171875,0.8683475991398095,-0.4607333051934838,-0.37811376643478867
1725631013423563000,1.55456298828125,0.8149410031229257,-0.05817220298349857,0.11274608921408652
1725631013433597200,1.56459716796875,1.0353343971073627,-0.24799568665921687,0.7438947055190801
1725631013443630800,1.574630859375,0.5672568666309118,0.8758405852437019,-0.21505203295648095
1725631013453665000,1.5846650390625,-0.23891981527805328,1.7589736655831336,-0.302682970136404
1725631013463699200,1.59469921875,-0.553783637073636,1.767522005958855,0.4960626849889755
1725631013473734000,1.60473388671875,-0.5558592743039131,1.1585747000679374,1.3799170653402804
1725631013483768000,1.61476806640625,-0.46098552638888357,0.7583493473291396,1.4391945992171764
1725631013493802000,1.624802001953125,-0.44832887391149995,0.8080088657721877,1.6984452548623084
1725631013503836000,1.6348359375,-0.3122428256422281,0.8698840149268507,2.1952508671730757
1725631013513870000,1.6448701171875,0.023418869510293004,0.8804998092263936,2.4713965435177085
1725631013523905000,1.654905029296875,0.5230412928074598,0.9491483980387448,2.401336918863654
1725631013533939000,1.66493896484375,1.0530968482911587,0.991578842011094,2.2329957836776972
1725631013543972900,1.674972900390625,1.4474211602926252,0.9923308294221759,1.5022726944208145
1725631013554007000,1.685007080078125,1.4841782348036765,0.922804873253405,0.5936246490746736
1725631013564042000,1.6950419921875,0.9555237782895565,0.5085121244564652,-0.1625531994342804
1725631013574076000,1.705075927734375,0.06175590668916702,-0.5138359498277306,-0.5704758286774159
1725631013584110000,1.715110107421875,-1.227222412097454,-1.443387959253788,-1.0329916333734988
1725631013594144000,1.72514404296875,-2.7226193755298853,-1.986356187802553,-1.2578928601711987
1725631013604178000,1.735177978515625,-2.859493943828344,-2.019234375053644,-1.2912567851126193
1725631013614212900,1.745212890625,-1.3307774791181086,-1.6939061501279473,-1.7807628880649804
1725631013624247000,1.7552470703125,0.8865706535726785,-0.7132792025029658,-2.3169430639088153
1725631013634281000,1.765281005859375,3.7737440469652412,0.12599369332194327,-2.5321499951660633
1725631013644315000,1.77531494140625,3.6377795792490244,0.317092019239068,-3.2431752812623977
1725631013654349000,1.78534912109375,0.9106564625591039,-0.009109189128875731,-4.321019617319107
1725631013664384000,1.795384033203125,-1.272588909521699,0.07433686358183622,-4.356963037359714
1725631013674418000,1.80541796875,-2.4234441212534903,2.5671611027926207,-2.8407407280415296
1725631013684452000,1.8154521484375,-2.785789240670204,4.5888376103013755,-2.3043489552736283
1725631013694486000,1.825486083984375,-0.9066519030928611,5.9912084995120765,-3.40529593449831
1725631013704520000,1.83552001953125,1.5097826316595078,5.235936075410247,-3.180849465730786
1725631013714555100,1.84555517578125,3.9392777235150334,3.824525555175543,-2.1875182270944116
1725631013724589000,1.855589111328125,5.183277082890272,2.8224802642077207,-2.404026304078102
1725631013734623000,1.865623046875,5.408864538386464,1.5615017129808664,-1.8782184691667556
1725631013744657200,1.8756572265625,3.615793372890353,0.7190788286924362,-1.211739011761546
1725631013754690800,1.88569091796875,1.2340192326307295,0.5386328296929598,0.1472241128772497
1725631013764726000,1.89572607421875,-0.8599398362785577,0.7905389677941799,0.9824567934006452
1725631013774760000,1.905760009765625,-2.8864824885189533,0.4924918407648802,1.3896733202010392
1725631013784794000,1.915794189453125,-3.8332740942984818,0.9765811793655157,1.2029203300118445
1725631013794828000,1.925828125,-4.123213902717828,1.3605132766902446,0.6182599086374044
1725631013804863000,1.935863037109375,-5.288794974416494,-0.051337388527393335,-0.03341594738960266
1725631013814897200,1.945897216796875,-4.17660647020936,-0.2537181559592485,-2.439905426710844
1725631013824930800,1.955930908203125,-3.0508424451142546,0.04843640638887882,-3.0364222900956865
1725631013834965000,1.965965087890625,-1.651104827016592,0.08975801233649253,-2.5451164442449805
1725631013844999200,1.975999267578125,-0.5222323145121336,0.5567945093274116,-1.8198843536198137
1725631013855034000,1.9860341796875,0.555057310271263,0.971848890146613,-0.4448229116171598
1725631013865068000,1.996068115234375,0.8514169226050377,1.2976397641479969,0.7589052276462316
1725631013875102000,2.00610205078125,0.5347592031300068,1.285783322137594,1.3047025421410798
1725631013885136000,2.016135986328125,0.22221184158325194,1.2111270173430442,1.8140338740259407
1725631013895170000,2.026170166015625,-0.5716226606249809,1.272415306520462,2.2502461936861273
1725631013905205000,2.036205078125,-0.7717717234820127,0.8095546339094638,2.0774702909231184
1725631013915239200,2.0462392578125,-1.0980080031633377,0.1393207924067974,1.0925509068012238
1725631013925272800,2.05627294921875,-1.4730349094986914,-0.36017829677164553,0.42113925369083877
1725631013935307000,2.06630712890625,-1.7155074488222597,-0.5917156005829572,0.14874211622476577
1725631013945341200,2.076341064453125,-1.5143518392711877,-0.3528998302012682,0.07076806518435477
1725631013955375900,2.0863759765625,-0.7622311571985483,-0.1790010608881712,0.27076982852518555
1725631013965410000,2.09641015625,-0.06743453684747219,0.061789808958768844,0.2181090824395418
1725631013975444000,2.10644384765625,0.3440758877545595,0.15372341176867485,0.08491174134910107
1725631013985478000,2.116477783203125,0.5364151536434889,-0.27664953421354294,-0.5396066431611776
1725631013995513000,2.12651318359375,0.5338146157562732,-0.7393190681666135,-1.2640963909864424
1725631014005546800,2.136546630859375,0.6019675300061702,-1.2837106075167655,-1.8195348095297812
1725631014015581000,2.146580810546875,0.6968804408878088,-1.8659414636567233,-2.086611628755927
1725631014025615000,2.156614990234375,0.6748854667007923,-2.2120380435839295,-2.1108120040327307
1725631014035648800,2.166648681640625,0.2819312740087509,-2.2934698338627815,-1.701737866666913
1725631014045684000,2.17668408203125,0.10524667336940764,-2.0911247222661973,-1.0647943003475666
1725631014055718000,2.1867177734375,0.14491758950054645,-1.5042007398739456,-0.42555531656742096
1725631014065752000,2.196751953125,0.09967033454179763,-0.5844231054872274,0.45965223195850846
1725631014075786000,2.206785888671875,0.23574878402650354,0.2538482120797038,1.1430968526899814
1725631014085820000,2.21681982421875,0.37207273270487784,0.8623486509859561,1.6490309433519839
1725631014095855000,2.226855224609375,0.28173136752247807,1.3566776440501211,2.109606719896197
1725631014105888800,2.236888671875,0.15404548332989215,1.9026552835479378,2.4392419943660495
1725631014115923000,2.2469228515625,-0.1312123047530651,2.3321795037463304,2.5056577095597983
1725631014125957000,2.25695703125,-0.5373696778893471,2.2465604909107086,2.837000372469425
1725631014135990800,2.26699072265625,-0.4615121806114912,1.783777559711039,2.633489139702916
1725631014146026000,2.27702587890625,0.150479899802804,1.8943270156636833,0.03314706732034683
1725631014156060000,2.287059814453125,0.8240963694810867,0.9748287827402353,-1.2269722367286682
1725631014166093800,2.29709375,1.3313397891759873,0.5153182973399758,-2.3145780883431435
1725631014176128000,2.3071279296875,1.251713879275322,0.44110622918158765,-2.740529126229882
1725631014186162000,2.317161865234375,1.4196177920877933,0.12389730556458234,-1.6351771900445222
1725631014196196900,2.32719677734375,1.45906892798841,0.3099731271445751,-1.2234580911278723
1725631014206230800,2.337230712890625,1.2455623709082602,0.6343199398174881,-0.6718354314804077
1725631014216265000,2.347264892578125,1.1501672294676304,0.8569809864729643,0.0472433972120285
1725631014226299000,2.357298828125,0.4741776009172201,-0.20029110167622566,-1.3093360471606255
1725631014236333800,2.367333740234375,0.5531704736113547,-1.7779855323061347,-2.946114242660999
1725631014246368000,2.377367919921875,1.252381403273344,-2.9292291588336226,-3.224348415717482
1725631014256402000,2.38740185546875,1.235217502504587,-3.0254584130108353,-2.5985341461777685
1725631014266435800,2.397435791015625,1.1012339794725179,-2.3360011078611014,-1.607096173942089
1725631014276470000,2.407469970703125,0.6021306116133928,-1.7924901507377624,-0.40211715783476826
1725631014286505000,2.4175048828125,0.6363853479146957,-1.279261811414361,0.5689607479393481
1725631014296539000,2.427538818359375,0.8656231426119804,-1.2296738969027996,0.7620493708908558
1725631014306572800,2.43757275390625,1.0635878471672535,-1.5581392508104444,0.6030120706230402
1725631014316607000,2.44760693359375,1.1479828711658715,-1.8545140607133506,0.6653811407744884
1725631014326641000,2.457640869140625,1.3670470623731612,-1.7155825598850845,0.8010030786633491
1725631014336675800,2.46767578125,1.9133464811712502,-1.362106975622475,1.095562363576889
1725631014346710000,2.4777099609375,2.059457079848647,-1.2858777224227784,1.4298346501976251
1725631014356744000,2.487743896484375,1.658143055090308,-1.1671800313279033,1.5592741000592707
1725631014366777900,2.49777783203125,0.8401689678817987,-0.8921431930080056,1.9346143101274966
1725631014376812000,2.50781201171875,0.06405775389075279,-0.6819996826201677,2.5233891810834406
1725631014386847000,2.517846923828125,-0.5578057321965694,-0.33086335496008396,2.2491204045265913
1725631014396881000,2.527880859375,-0.28277883074879645,0.3928720673665404,1.1024614754408597
1725631014406915000,2.5379150390625,-0.732428724130988,-0.010020751015841961,1.6529133377432823
1725631014416948700,2.54794873046875,-0.8110311362028122,0.24634002840667962,1.6534417455315589
1725631014426983000,2.55798291015625,0.31791327249407764,1.0010857982859014,1.324622463619709
1725631014437017900,2.568017822265625,2.8726392566055057,1.2468661469832063,1.862902242091298
1725631014447052000,2.578052001953125,6.413112307834625,0.8953460807025432,0.8364023088246584
1725631014457086000,2.5880859375,-3.124977940905094,-1.4774690925538538,-1.7935498889237642
1725631014467119900,2.598119873046875,-7.8416721157908436,-4.308206312975287,-0.5031634569048882
1725631014477155000,2.608155029296875,-6.360804612970352,-3.261818606933951,0.339992417833209
1725631014487188700,2.618188720703125,-5.583724261686205,-1.3995868114501238,-0.7885778968542814
1725631014497223000,2.628222900390625,-6.1862131852179765,-0.11630407395660877,0.5969926642030478
1725631014507257000,2.638257080078125,-6.673202336913347,1.1307441515952348,2.7733406779855487
1725631014517290800,2.648290771484375,-5.609912595909834,2.3623183291614054,3.4217122317701576
1725631014527326000,2.658325927734375,-3.6093414202719925,2.755911404278874,3.6381469512566924
1725631014537360000,2.66835986328125,-3.1119799276441333,2.6547581377029417,3.7997994024589654
1725631014547393800,2.678393798828125,-2.045659440642595,2.279886129668355,3.5710140277042983
1725631014557428000,2.688427978515625,-0.4457973096072674,2.0206617775082587,3.3701281750053167
1725631014567462000,2.6984619140625,0.7479822670936584,1.4342135959342122,1.0118389552295208
1725631014577497000,2.7084970703125,2.1096809541761874,0.49327217748761176,-0.5179547833234072
1725631014587530800,2.71853076171875,2.4553560938209293,-1.0239967182740568,-1.7678940541416406
1725631014597565000,2.72856494140625,3.4824423025429248,-0.8480702425256371,-1.2565893763571976
1725631014607599000,2.73859912109375,3.896172741281986,-0.6430237630158663,-0.9583008417874574
1725631014617632800,2.7486328125,4.048234941840172,-0.4251028966248035,-0.6683668785870075
1725631014627668000,2.75866796875,4.498098185712099,-0.36717969996631145,-0.6292559344261884
1725631014637702000,2.768701904296875,4.468994840824604,-0.02143587899953127,-0.8228542604655027
1725631014647735800,2.77873583984375,4.385629744395613,-0.024899755717813967,-0.9860562791973352
1725631014657770000,2.78877001953125,4.061136508989334,0.10956395204663276,-1.153069965171814
1725631014667804000,2.798803955078125,3.598842822611332,0.2813154801979661,-1.2313432914197444
1725631014677838800,2.8088388671875,2.7642706518232822,0.2099196385040879,-1.4614742355644703
1725631014687872800,2.818872802734375,1.7430261548668144,-0.29224896214455365,-1.325502753585577
1725631014697907000,2.828906982421875,0.8700310221821069,-0.13707564382851123,-1.4341618657469748
1725631014707940900,2.83894091796875,-0.05465104312002658,0.16422990047484634,-0.7415425894349813
1725631014717975800,2.848975830078125,-0.7686988919079303,0.6920967137426137,0.2746720966607332
1725631014728010000,2.859010009765625,-1.1946019989997148,1.0826286477237939,1.6982108615845442
1725631014738044000,2.8690439453125,-1.5484949318915604,1.4370005963042378,3.160258513122797
1725631014748077800,2.879077880859375,-1.463910522800684,1.9934306562334299,4.104777497795224
1725631014758112000,2.889112060546875,-1.0083967058211565,2.468583824184537,4.582555169031024
1725631014768147000,2.89914697265625,-1.1329320170283317,2.042313929606974,4.094829519754648
1725631014778180900,2.909180908203125,-1.8306851490974425,0.9996424676097929,2.0883675325125455
1725631014788215000,2.919215087890625,-3.067593673428893,-1.1299147150337696,-0.0782914464265108
1725631014798249000,2.9292490234375,-4.008052569055557,-3.4270363494023677,-1.5556231763362884
1725631014808283000,2.939282958984375,-3.597189794707298,-3.848454127773642,-1.3896002549648283
1725631014818317800,2.94931787109375,-1.900004769039154,-2.703915259581804,-0.650256636878848
1725631014828352000,2.95935205078125,-0.8225345269918442,-1.4480072896175085,-0.191683432328701
1725631014838386000,2.969385986328125,-0.5234060344666243,-0.38613428354412316,-0.1604950978606939
1725631014848419800,2.979419921875,0.22315350634753703,0.4690360002450645,-1.4029250159621238
1725631014858454000,2.9894541015625,1.538548122894764,1.6737104804478584,-2.8414591054439544
1725631014868489000,2.999489013671875,1.502474938994646,2.129758988825977,-3.7988445859521627
1725631014878523000,3.00952294921875,1.4181220005720854,1.9454852482318876,-4.701424709561467
1725631014888557000,3.01955712890625,1.50343706202507,1.656984824965894,-5.175815660968422
1725631014898590700,3.0295908203125,1.510619667005539,1.2650792645439506,-5.697913535445928
1725631014908625000,3.039625,0.9472972172141074,0.42375447769053276,-6.331802974891662
1725631014918659800,3.049659912109375,0.08782850557863711,-0.22988011118881402,-6.49186143490076
1725631014928694000,3.059694091796875,-0.7743138091802596,-0.11447861209511756,-6.405801692560315
1725631014938728000,3.06972802734375,-1.6464561244279146,-1.0232059332225472,-5.931955515554547
1725631014948761900,3.079761962890625,-1.9267928227216005,-2.0760922805681825,-5.918348430484533
1725631014958797000,3.089797119140625,-2.4427146389126775,-1.7763070776998995,-6.901805340838432
1725631014968831000,3.0998310546875,-5.601846193832158,-9.659604166299104,-6.211708861002325
1725631014978865000,3.109864990234375,-3.464558270806074,-6.857018104606866,-10.53767645611763
1725631014988899000,3.119899169921875,-1.8309499375134706,-1.6063370261378584,-11.712030032336711
1725631014998933000,3.12993310546875,-1.8802958599627018,-1.118201042494923,-7.451614229062199
1725631015008968000,3.139968017578125,-3.2371722414553163,-1.4509291684135794,0.5809972226917743
1725631015019001900,3.150001953125,-1.9034967028081415,4.4167941134661435,4.2336768494307995
1725631015029036000,3.1600361328125,0.4497901786357164,10.482149214684963,8.820113828331232
1725631015039070000,3.170070068359375,1.2650012308716774,12.736484138989448,12.694078244936465
1725631015049104000,3.180103759765625,3.7582273288816213,13.971341576009989,15.229216316002606
1725631015059139000,3.19013916015625,5.505632721745967,11.761764661842584,14.07320386763811
1725631015069173000,3.200173095703125,4.416403068321943,5.971745674151181,9.412023490181564
1725631015079207000,3.21020703125,3.3847663566887376,2.0071619522050024,4.4075604211747645
1725631015089241000,3.220240966796875,3.149045045191049,-0.028068741142749785,0.6833335615724325
1725631015099275000,3.23027490234375,3.057729282018542,-0.6447185842350125,-1.4224123912423847
1725631015109310000,3.24031005859375,3.3547792147040365,-1.4151136125363408,-2.409082418423891
1725631015119343900,3.25034375,3.681901629570126,-1.903680534942448,-2.859285854035616
1725631015129378000,3.2603779296875,4.028247800344229,-1.6685865615628659,-3.411705801540613
1725631015139412000,3.270411865234375,4.055811514574289,-1.1999220249786973,-3.9139825387388467
1725631015149446000,3.28044580078125,3.5474902365148067,-0.963540496006608,-4.7775668689996005
1725631015159481000,3.290481201171875,3.2244600593984125,-1.3102794654905796,-5.115744346365332
1725631015169515000,3.300514892578125,3.148113901820779,-1.6167646043889223,-4.892355277696252
1725631015179549000,3.310548828125,2.7493875554680822,-1.5193569540821015,-4.552798328670859
1725631015189583000,3.3205830078125,3.1893992674112317,-0.7617462962910533,-4.463028625896573
1725631015199617000,3.330616943359375,3.5391818423748016,0.4656288221500814,-4.624731930503249
1725631015209652000,3.34065185546875,3.375768811240792,1.4502709967657923,-4.622698963370919
1725631015219686100,3.35068603515625,2.5614672750651835,2.1106150201559064,-4.047504873999953
1725631015229719800,3.3607197265625,2.0251585044056175,2.8083041470780965,-2.410434417554736
1725631015239754000,3.37075390625,1.7717302713036536,3.018562808278203,0.3713333125144243
1725631015249789000,3.380788818359375,1.587463252711296,2.9411212566792964,3.029956893473863
1725631015259823000,3.390822998046875,0.9616717795252799,2.9377997110411522,4.353317082072794
1725631015269857000,3.40085693359375,-0.7397136204421519,2.4732719820007683,4.595031788766384
1725631015279891000,3.410890869140625,-3.435321070405841,1.074881394597888,5.192749260112643
1725631015289925000,3.420925048828125,-5.1829222781032325,0.514113013203442,3.7796424573540683
1725631015299959800,3.430959716796875,-7.203535540294647,-0.5027624748885631,1.7390347471430896
1725631015309994000,3.440993896484375,-9.640293316629528,-1.9612825368225573,-0.46627018879354
1725631015320028200,3.451028076171875,-13.475418007230758,-5.635124194055796,-1.2110109897479415
1725631015330061800,3.461061767578125,-11.723871276777983,-7.453987972456217,-0.913770795187354
1725631015340096000,3.471095947265625,-4.027780182832479,-3.9280163247883317,0.657435150206089
1725631015350131000,3.481130859375,0.27404432015120983,-1.5817682559400796,0.32814123651981353
1725631015360164900,3.491164794921875,2.1109803463369605,-1.4582289700329303,-1.0488426979780197
1725631015370199000,3.501198974609375,2.733850963640213,-1.513558643066883,-2.5138778408944606
1725631015380233000,3.51123291015625,2.495398181352019,-1.7900570783719418,-3.2788018904387948
1725631015390267000,3.521266845703125,1.6428940480321645,-2.269771855150163,-3.1474370254725215
1725631015400301800,3.5313017578125,0.26346388942599297,-3.0401971324592827,-2.378034369209409
1725631015410336000,3.5413359375,-0.9569313069999218,-3.263504952585697,-1.21428694267869
1725631015420370200,3.5513701171875,-1.395486974915862,-2.814855176156759,-0.23075521352291106
1725631015430403800,3.56140380859375,-1.327472007831931,-1.968603381229937,0.8207102341741322
1725631015440438000,3.57143798828125,-1.1158522874116896,-1.1367544979259372,1.6549778690576553
1725631015450473000,3.581472900390625,-0.8014414700806141,-0.38971068072617054,1.9961837543338536
1725631015460507000,3.5915068359375,-0.759365246373415,0.26522651518434287,2.0974474955469367
1725631015470541000,3.601541015625,-0.6311047771632671,0.853693343104422,1.8672089993745087
1725631015480575000,3.611574951171875,-0.8575888892382383,1.4808827003896237,1.0030091675639152
1725631015490610000,3.62160986328125,-1.489257730025053,1.7571937964290378,-0.212362647742033
1725631015500644000,3.63164404296875,-1.6371359228968618,1.6809309332206843,-1.1660603796482085
1725631015510678000,3.641677978515625,-1.5999766973257064,2.0308786356180906,-1.5863643515586852
1725631015520712000,3.6517119140625,-1.5576953064352272,2.7851322380661965,-1.6096020192831755
1725631015530745900,3.661745849609375,-1.485191795760393,3.107024643324315,-1.2965642438709735
1725631015540781000,3.671781005859375,-0.8396639409691095,2.911334313441813,-1.1202309408873319
1725631015550815200,3.681815185546875,-0.07795885347127914,3.1321926945894956,-0.8211381041973829
1725631015560849000,3.691848876953125,0.41679567152857777,3.4257533238545057,-0.6767629510104656
1725631015570883000,3.701883056640625,0.6867839942872523,3.6709950356304644,-0.6593611498326063
1725631015580917000,3.7119169921875,0.6675555622041225,3.944396089442074,-0.6475029542565346
1725631015590952000,3.721951904296875,0.6609340982377528,3.9084547152280806,-0.6532178247720003
1725631015600986000,3.731986083984375,0.5892196921139955,3.6600375882863996,-0.8461112174123525
1725631015611020000,3.74202001953125,0.7786641133442521,3.3740187527030705,-1.2901374256938696
1725631015621054000,3.752053955078125,0.8641919407650828,3.2926527211368084,-2.0597692145377398
1725631015631088000,3.762088134765625,0.22638182074427604,3.4307536163598296,-2.733593774008751
1725631015641123000,3.772123046875,0.4716486669614911,3.4697923720672725,-4.239149727883935
1725631015651157000,3.782156982421875,1.0026409187734127,-1.1293298278179018,-3.8429146138250827
1725631015661191000,3.79219091796875,1.479878491783142,-5.655082693979144,-1.213926877194643
1725631015671225000,3.80222509765625,1.4568518364608287,-6.701772597837448,1.3201409342914818
1725631015681259000,3.812259033203125,-0.6110968851402402,-8.299450370571018,4.949243870609998
1725631015691294000,3.8222939453125,-2.531478671775758,-7.127953352826833,6.564069177499413
1725631015701328100,3.832328125,-3.5707828492969274,-3.9986563796788452,6.029923722353577
1725631015711361800,3.84236181640625,-2.4877637409508226,-0.0946076443247497,2.7692046010941267
1725631015721396000,3.85239599609375,-0.3207125478237867,-0.13429456174261867,2.9037603710561988
1725631015731430100,3.86243017578125,0.2203293888375163,-0.5065661780204623,-0.24576573565006254
1725631015741465000,3.872465087890625,-0.25512451562583444,-0.032198388293385505,-4.484356660607457
1725631015751499000,3.8824990234375,0.08351765664219855,-1.5143264125689864,-3.159654117488861
1725631015761533000,3.892532958984375,0.03039426148086786,-1.9276438865929841,-1.5956377913385629
1725631015771567000,3.902567138671875,0.3620002515017986,-0.7308694389250129,-1.1038602363228798
1725631015781601800,3.912601806640625,1.1205480440124869,1.0197831922322511,-1.0958224758177995
1725631015791635000,3.922635009765625,2.141235783869028,1.6745754267141222,-0.20864684208929538
1725631015801668900,3.9326689453125,2.4723072286218404,0.6407145362254232,1.5717863756299018
1725631015811703800,3.942703857421875,0.8761141414880752,-0.7063191542319953,1.5161241096407174
1725631015821738000,3.952738037109375,-0.4141013178780675,-1.9884496529504656,-0.2948381018549204
1725631015831772200,3.962772216796875,-0.4988587454482913,-2.2124096533752975,-2.706735577699542
1725631015841805800,3.972805908203125,0.8891048482254147,-1.9382468214109538,-4.081632769051194
1725631015851840000,3.982840087890625,2.0131609003588555,-1.0179258008625358,-4.4283033494740724
1725631015861875000,3.992875,2.208159156323969,-0.5085572057072073,-3.5687662487775085
1725631015871908900,4.002908935546875,1.2594158319547772,-0.8401059125829488,-1.8540683627724646
1725631015881943000,4.012943115234375,-0.7088716151937842,-1.653798742275685,-0.07633271357417107
1725631015891977000,4.02297705078125,-2.371497076395154,-2.460550739854574,0.18262685016989708
1725631015902011000,4.033010986328125,-2.8332565097659823,-3.6973265777170656,-0.045694998726248735
1725631015912046000,4.043046142578125,-2.150987362554669,-5.247712437921762,0.026397008538246152
1725631015922080000,4.053080078125,-0.7389753692954778,-5.832624788230658,-0.16335750155448914
1725631015932114000,4.063114013671875,0.3367804700493812,-5.2061050007700915,-0.3800426886707544
1725631015942148000,4.073148193359375,0.5535784698903561,-4.835603462904691,-0.33728432791829105
1725631015952182000,4.08318212890625,0.851367822766304,-4.536049438443779,-0.6215186181724072
1725631015962217200,4.09321728515625,1.4022761966645716,-3.927280411729216,-1.0879285076975822
1725631015972251600,4.103251708984375,2.050423294043541,-2.734520533464849,-1.4346774140536784
1725631015982285800,4.113285888671875,2.2573235847264526,-1.0699195344068109,-1.7114777549147604
1725631015992319500,4.123319580078125,0.9886690920442343,-1.6117670883625745,-0.7289964115947485
1725631016002354700,4.133354736328125,0.6127262399077416,-0.9538932544782757,0.3284153772860765
1725631016012388600,4.143388671875,1.0531325041264294,1.4895210571363569,1.1688058789640665
1725631016022422500,4.153422607421875,0.07738309940993786,3.769089206896722,2.4886036989063025
1725631016032456700,4.163456787109375,-1.2729922296255827,5.240041172641515,4.096642706656456
1725631016042490600,4.17349072265625,-1.7934394142866135,6.63878685709238,4.389665283522009
1725631016052525800,4.18352587890625,-1.307777711802721,7.125678978154062,3.0205554434001445
1725631016062559500,4.1935595703125,-0.30016777244508264,6.87247286337018,0.9298603447228669
1725631016072593700,4.20359375,0.6983376539587974,6.32022476530075,-1.054539448314905
1725631016082627800,4.2136279296875,1.184510228574276,6.009426293247937,-2.71871243121922
1725631016092661500,4.22366162109375,1.5429694464683532,5.870913310092687,-4.047645743775368
1725631016102696700,4.23369677734375,1.6345803931951521,5.8554258181035514,-5.139848860052227
1725631016112730600,4.243730712890625,1.5502748010456562,5.553722506654262,-5.680189078184962
1725631016122764500,4.2537646484375,0.8069128872290253,4.459785990713536,-5.60936022272408
1725631016132798700,4.263798828125,-0.43545770190060135,3.4197593441367147,-4.387063576591014
1725631016142832600,4.27383251953125,-1.3211927814319728,3.486334341545403,-2.7563831134438512
1725631016152867600,4.28386767578125,-2.0760607163861393,3.629400165699422,-1.2370663452416657
1725631016162901800,4.29390185546875,-2.8121371493697165,3.590945931881666,-0.005108721315860748
1725631016172936700,4.303936767578125,-3.2556557003900406,3.1608497570142147,0.5795388405770063
1725631016182971000,4.313970947265625,-3.1274729725912214,2.8182471566826104,0.049912908682227135
1725631016193004500,4.324004638671875,-2.4851740167185663,2.87503754991889,-0.8381856851100921
1725631016203038700,4.334038818359375,-1.5822154151856898,2.6747984706908463,-0.9902274274021386
1725631016213073000,4.344072998046875,-0.5831161145418882,2.2463763665154577,-0.22290800715386866
1725631016223107600,4.354107666015625,0.7087044419333338,1.4623264684796333,1.1257435668289661
1725631016233141800,4.364141845703125,1.5912617682114243,0.580444995636493,1.7492565736889838
1725631016243175700,4.37417578125,1.7771093339934945,0.40244975078999995,0.5114157369434833
1725631016253209600,4.384209716796875,1.9538900884836912,0.4590726785048842,-1.3817074558883904
1725631016263243800,4.394243896484375,1.1148813965529203,0.52485462583974,-3.0385674854308364
1725631016273278700,4.40427880859375,-1.3772287030391395,-2.1753660170078275,-4.2793572351098055
1725631016283312600,4.414312744140625,-3.012604192134738,-8.69447260170877,-1.9813865826964376
1725631016293346600,4.4243466796875,-0.3605710224162787,-12.183547474133968,4.4455251179099085
1725631016303380700,4.434380615234375,-2.429160745334625,-9.70698258806765,4.825732641753554
1725631016313414700,4.44441455078125,0.5182359383523464,-4.429375362619758,0.9620335985749959
1725631016323449600,4.45444970703125,2.199356548926234,-1.5602904374949633,-1.0511106429100037
1725631016333483800,4.46448388671875,1.7847990117132662,0.3296292831204831,-2.219471116194129
1725631016343517400,4.474517333984375,1.5327081646949052,1.6422715322196482,-2.647448691472411
1725631016353551600,4.484551513671875,1.4754273575931787,2.712912512768805,-2.5168992345422505
1725631016363585800,4.494585693359375,1.7219892120569944,3.938866220104694,-1.7558306913822888
1725631016373620700,4.504620849609375,2.040419201901555,4.675032961720228,-0.161309921374917
1725631016383654700,4.514654541015625,1.5563228490382433,4.9412873586475845,2.0154460886865855
1725631016393688600,4.5246884765625,0.4655580950014293,4.196818944893777,4.0305210059732195
1725631016403722800,4.53472265625,-0.4492981573350727,2.5550755282014608,4.361899909240007
1725631016413757400,4.54475732421875,-1.3990221633046864,1.1441051529496908,3.1728105361819265
1725631016423791600,4.55479150390625,-1.3906709529362618,0.26994207246415314,1.0700912377119063
1725631016433825800,4.56482568359375,-1.1310549711100757,-0.11423767947871237,-0.47645314463377
1725631016443859500,4.574859375,-1.3061818209134042,-0.3528962500046938,-1.4457459205567835
1725631016453893600,4.5848935546875,-1.5749207281328736,-0.37174923637155444,-1.469223826777935
1725631016463928600,4.594928466796875,-1.185096942421049,-0.4755278830150142,-0.5499012426823378
1725631016473962500,4.60496240234375,-0.23274609507918356,-0.26742108435286205,0.06706278092563152
1725631016483996700,4.61499658203125,0.4467373669363558,0.06269699606471694,0.32055881856679913
1725631016494030600,4.625030517578125,1.037449927956611,-0.09859317029695958,-0.1392161629885435
1725631016504064500,4.635064453125,1.1999335692860185,-0.3416036524221301,-1.5693530110031366
1725631016514099700,4.645099609375,0.6057230831474065,-0.38444731683786953,-2.1732786893397567
1725631016524133600,4.655133544921875,0.41713118709325786,-0.24248963658884165,-1.7794950600862502
1725631016534167800,4.665167724609375,0.509685552150011,-0.2264062427994795,-1.930162006893754
1725631016544201700,4.67520166015625,0.5038328805990517,0.05565724275419488,-2.1966519661426545
1725631016554235600,4.685235595703125,0.42236426544114947,0.5216864806650207,-2.00641054931581
1725631016564270800,4.695270751953125,0.1788830605316907,0.48869723425488915,-1.22232470318377
1725631016574304500,4.705304443359375,-0.13380750887803733,0.20895884891422464,-0.2881178536891937
1725631016584338700,4.715338623046875,-0.30078670806102453,0.1562745392899029,-0.2435726095199585
1725631016594372900,4.725372802734375,-0.6211209971569478,0.0837089414305985,-0.42545770141184325
1725631016604407600,4.735407470703125,-0.7991004599124193,-0.01080189145617187,-0.47423897571563717
1725631016614441700,4.745441650390625,-0.9238502175878733,-0.028935879366099832,-0.6564198356837034
1725631016624475600,4.7554755859375,-1.2254851399760693,0.0385266414668411,-0.41802082940936086
1725631016634509600,4.765509521484375,-1.4104729471236466,0.11699527109116316,0.46923137668669224
1725631016644543700,4.775543701171875,-1.1767946126956492,0.41805253972187634,0.6104074415713548
1725631016654578700,4.78557861328125,-1.0091268467266112,0.613219941708818,0.3613888416051864
1725631016664612900,4.79561279296875,-1.4108739291399717,0.27960531527921556,1.417915664345026
1725631016674646500,4.805646484375,-1.551699865412712,-0.19433694251216946,2.0936673924863336
1725631016684680700,4.8156806640625,-0.9511340188980102,-0.04560739350803196,1.7644120572447777
1725631016694714600,4.825714599609375,-0.43124622168540955,0.16558686804175377,1.4477040688872336
1725631016704749600,4.83574951171875,-0.10942943894676864,-0.23350100509971378,1.5044471158504484
1725631016714783700,4.84578369140625,-0.0719441962916404,-0.8962858457706868,2.3245219747304917
1725631016724817700,4.855817626953125,0.20543854756727814,-1.0971331200249492,1.8219862943351268
1725631016734851600,4.8658515625,0.7390168703496456,-0.4318571201253682,0.697297789517045
1725631016744885800,4.8758857421875,1.143639142873138,-0.25182116323150694,-0.017523381730914115
1725631016754920700,4.885920654296875,1.6259098877444862,-0.7541809756033122,-0.5529010090202093
1725631016764954600,4.89595458984375,1.6749463058531284,-0.9024036710638552,-0.8556897776186466
1725631016774988500,4.905988525390625,1.75840200317502,-0.5313328819431364,-0.27467443474829195
1725631016785022700,4.916022705078125,2.381075928862393,-0.22792919631674885,0.5270113654822111
1725631016795057700,4.9260576171875,2.45733177780807,0.0011544307321310042,0.10497311712503432
1725631016805091600,4.936091552734375,1.6573109881803392,-0.021546426701918243,-0.5536059424191713
1725631016815125800,4.946125732421875,0.46628684766739603,-0.5232770743247122,-0.8065928614944219
1725631016825159400,4.956159423828125,0.24265403337031602,-0.3049638476151973,-1.9993489403665066
1725631016835193600,4.966193603515625,0.5988811082981527,-0.5409096885837614,-2.725118206608295
1725631016845228800,4.976228759765625,-0.024774521902948616,-0.9044641837902366,-3.083294515907764
1725631016855262700,4.9862626953125,-0.8605505155228078,-0.5607166512072086,-2.833349448746443
1725631016865296600,4.996296630859375,-1.3786241029202937,0.04649257884472608,-2.5775661769509313
1725631016875330600,5.00633056640625,-1.5712347330965102,0.5239657872412353,-2.272469131410122
1725631016885364700,5.01636474609375,-1.7260101381361483,0.8679009513508528,-1.825417437827587
1725631016895399700,5.026399658203125,-1.7633612330175936,1.0708118070714174,-1.5370014779746533
1725631016905433600,5.03643359375,-1.6688438973248003,0.9681529582381248,-1.109475153595209
1725631016915467800,5.0464677734375,-1.5299813700795173,0.5697513137951493,-0.6685147626250982
1725631016925501700,5.056501708984375,-1.2160008339244872,0.13911379859261214,-0.33611820674836634
1725631016935535600,5.06653564453125,-0.8826664857409894,-0.3004988310303539,-0.19701368744075298
1725631016945570800,5.07657080078125,-0.5031238555468619,-0.7660130868900566,-0.17647183467149732
1725631016955604500,5.0866044921875,-0.03616071605309844,-1.4026824393779038,-0.18667407973408698
1725631016965638700,5.096638671875,0.34507264370694757,-2.021453074016422,0.20403028820455074
1725631016975672600,5.106672607421875,0.6257587399601936,-2.1291852805912495,0.6656605422377586
1725631016985707300,5.116707275390625,0.9803227039813994,-2.1337115258440376,1.0675047283500432
1725631016995741400,5.126741455078125,1.3206465457260608,-1.7275757800176739,1.1280927603036164
1725631017005775400,5.136775390625,1.6893348966896533,-1.221342852539569,0.8552595695078372
1725631017015809300,5.146809326171875,1.7712123849093913,-0.758829824322462,0.7130687746226787
1725631017025843500,5.156843505859375,1.4457985275268554,-0.22346381440572438,0.4121797021657228
1725631017035878400,5.16687841796875,1.0242273121595382,-0.3348244406107813,0.09708499422371387
1725631017045912300,5.176912353515625,0.17346501753833143,-0.9066848555143922,0.07186638181507587
1725631017055946200,5.1869462890625,-0.5135516164610162,-1.5089230922207235,0.20423779347538948
1725631017065980400,5.19698046875,-0.7199100188195705,-1.7236928011044859,0.007635024923086166
1725631017076014300,5.207014404296875,-0.6089303912887349,-1.750309151481837,-0.21570962008237837
1725631017086049300,5.21704931640625,-0.34472762966156006,-1.863804013236612,-0.1863151832938194
1725631017096083500,5.22708349609375,-0.1933691934585571,-1.4244279688484967,-0.3452215506583452
1725631017106117400,5.237117431640625,-0.5891723458409309,-0.734016358648613,0.4748346035212278
1725631017116151300,5.2471513671875,-0.852141729748249,-0.5202255047343671,1.3544056074649096
1725631017126185500,5.257185546875,-0.5940449203133583,-0.6152050511114299,1.0369535227417945
1725631017136220400,5.267220458984375,-0.7462830619603396,-0.7661114326979964,0.6070259824395179
1725631017146254300,5.27725439453125,-1.021344450199604,-0.569207123915851,0.2431704584598541
1725631017156288500,5.28728857421875,-0.961837783741951,-0.570325460421294,0.08638064485788345
1725631017166322400,5.297322509765625,-0.7338187171846627,-0.9060867434907705,-0.06938917804658412
1725631017176356400,5.3073564453125,-0.5046949042558669,-1.2262987213812768,-0.1988952634036541
1725631017186391300,5.317391357421875,-0.4316133014321327,-1.2068585462436079,-0.1690489911943674
1725631017196425500,5.327425537109375,-0.5990332301199436,-0.9297930516403168,0.052502925175428386
1725631017206459400,5.33745947265625,-0.2189151381254196,-0.964305050638318,0.5619248579531908
1725631017216493300,5.347493408203125,0.3585141264190897,-1.1555038412552325,0.6495078643381595
1725631017226528500,5.357528564453125,0.5001414422025904,-1.0322940064981578,0.26964170127809045
1725631017236562200,5.367562255859375,0.6665946082174777,-1.0126446455892175,-0.2802098570436239
1725631017246596400,5.377596435546875,0.32940146571397777,-1.3208899990931153,-0.9803881704330444
1725631017256630500,5.387630615234375,-0.14055179550647734,-1.915205406910926,-1.4269436049312352
1725631017266664200,5.397664306640625,-0.21065230016019193,-2.3746365434646606,-1.1864385662883519
1725631017276699400,5.407699462890625,0.28117840981483455,-2.31344163165912,-0.6929395943075418
1725631017286733300,5.4177333984375,0.7868202395319939,-2.301988363622129,0.14316577739715575
1725631017296767500,5.427767578125,1.1897346852242945,-2.1115271665647626,0.30439737283885476
1725631017306801400,5.437801513671875,1.2267828516364097,-2.1879918359555304,0.1446194833368063
1725631017316835300,5.44783544921875,1.0738146421492099,-1.72008571652323,0.000855155524611473
1725631017326870500,5.45787060546875,1.1347428658425807,-1.202518105886504,0.35884383329749103
1725631017336904200,5.467904296875,1.175212823396921,-0.7722184443362057,0.6055225921392441
1725631017346938400,5.4779384765625,0.9817676420927047,-0.32121435986608265,0.6733610336124897
1725631017356972500,5.48797265625,0.9613105449974536,0.024891353215649722,0.6604904461234807
1725631017367006200,5.498006103515625,1.0628805756807327,0.35859818797335025,0.5260732078492641
1725631017377041400,5.50804150390625,1.3083552194297312,0.6480155068885535,0.24104162973761556
1725631017387075300,5.518075439453125,1.3741665389895439,0.7782122779235243,-0.21702420981228351
1725631017397109200,5.528109130859375,1.2309306189656257,0.5797735261157154,-0.3199187670975923
1725631017407143400,5.538143310546875,0.7395686590135097,-0.14002192641347647,0.3643663961112499
1725631017417177300,5.54817724609375,0.1922316773286089,-1.2271487623393535,0.7031307334542274
1725631017427212500,5.558212646484375,-0.010874993225000799,-1.3535557126373052,-0.25522505339086055
1725631017437246200,5.56824609375,-0.12521974980738013,-1.140603428439051,-0.9479010283261537
1725631017447280400,5.5782802734375,-0.3728424749683589,-0.9297115108367056,-1.1091875688254833
1725631017457314300,5.588314208984375,-0.3351128290981054,-0.8033089444529264,-1.0300812988847494
1725631017467349200,5.598349365234375,-0.31523557771742344,-0.7202887890040874,-0.9328022433936596
1725631017477383400,5.608383544921875,-0.7450438755542039,-0.7275897596672177,-0.7148369533389807
1725631017487417300,5.618417236328125,-1.2047563132673502,-0.9214312468126415,-0.5254226349860429
1725631017497451300,5.628451171875,-1.497165142148733,-1.0993371328752488,-0.4988771578878164
1725631017507485400,5.6384853515625,-1.5951532226920127,-1.2553718172609805,-0.4356698833465576
1725631017517520400,5.648520263671875,-1.4411509939819573,-1.1545452253561466,-0.4688274720609188
1725631017527554300,5.65855419921875,-0.9770862062782049,-0.6105724228747189,-0.8186620694726705
1725631017537588500,5.66858837890625,-0.48605567023754115,-0.3371538699390366,-1.045076623442769
1725631017547622400,5.678622314453125,-0.11748889982700347,-0.49962768399417395,-0.9529518819749355
1725631017557656300,5.68865625,-0.1684785343626514,-0.8819744118236005,-0.59450786164999
1725631017567691300,5.698691162109375,-0.34688740151133385,-1.0942845987260341,-0.5779582933872938
1725631017577725400,5.708725341796875,-0.5033048746695742,-1.3539745225712656,-0.20632278305590152
1725631017587759400,5.71875927734375,-0.7300631640434264,-1.5407625840738415,0.17398820116221902
1725631017597793300,5.728793212890625,-0.8072533712297677,-1.163730475395918,0.1469669232457876
1725631017607827500,5.738827392578125,-1.0968506498217583,-0.652949821485579,0.990032781612873
1725631017617862400,5.7488623046875,-1.2351678181439638,-0.432260805555433,2.1420500228613615
1725631017627896300,5.758896240234375,-1.0136609099596738,-0.6636318859543651,3.2860984771877524
1725631017637930500,5.768930419921875,-0.847688257470727,-0.6915628991268575,3.2197827152371405
1725631017647964400,5.77896435546875,-0.8822796783804893,-0.47040294121671467,3.0802912424385545
1725631017657998300,5.788998291015625,-0.3796820386648178,-0.481899865732342,3.3240660965323445
1725631017668033300,5.799033203125,0.2895300585746765,-0.5052631325978786,2.993842208519578
1725631017678067500,5.8090673828125,0.8231144457716494,-0.7211729514274746,2.229649980381131
1725631017688101400,5.819101318359375,1.3794786739230156,-0.9594209318585694,2.15257083235383
1725631017698135300,5.82913525390625,2.4879133785545826,-0.44628154946025456,3.8980852969050406
1725631017708170500,5.83917041015625,2.8581881219267844,0.06791727886311709,3.215039320102334
1725631017718204200,5.8492041015625,1.830191812622547,-0.09991042690798639,0.9813058697998523
1725631017728238300,5.85923828125,1.1344263472393155,0.053203766921162604,-0.4846346975237131
1725631017738272500,5.8692724609375,0.746468647660315,0.3038813130754977,-1.3715934736311435
1725631017748306200,5.87930615234375,0.25017989883050323,-0.04282952629253268,-1.7600737357795238
1725631017758341400,5.88934130859375,-0.34374943227916954,-0.7041375724092126,-1.892204908943176
1725631017768375300,5.899375244140625,-0.6924667160987854,-1.1852920266017317,-2.241076798802614
1725631017778409500,5.909409423828125,-0.7135587500967085,-1.5751688576750456,-2.706047010913491
1725631017788443400,5.919443359375,-0.9451147586084901,-2.258239676658064,-2.5572949578166004
1725631017798477300,5.929477294921875,-1.0400386292755603,-2.129162922628969,-2.0036825856566427
1725631017808512500,5.939512451171875,-0.9668658410370349,-1.8551250322185455,-1.645769311207533
1725631017818546200,5.949546142578125,-0.9768041744664311,-1.6452087547153234,-0.5984755962371826
1725631017828580400,5.959580322265625,-1.219696985028684,-1.4593471604079007,-0.8009183229893445
1725631017838614500,5.969614501953125,-1.7376164047777651,-1.2525035683482884,-2.456792848625779
1725631017848648200,5.979648193359375,-1.9070795297309755,-0.6714604606881738,-3.701929103076458
1725631017858683400,5.989683349609375,-2.0501909465923904,-0.2616819744452834,-3.308805983558297
1725631017868717300,5.99971728515625,-1.903497141199559,-0.003110533235967159,-1.455472949323058
1725631017878751200,6.009751220703125,-1.1262564847871661,0.04063216237872839,-0.6800485485523938
1725631017888785400,6.019785400390625,-0.37855040428638453,-0.07124971122145653,-0.6507178246498108
1725631017898819300,6.0298193359375,-0.3434975033447146,-0.3009641835197806,0.2819844655007124
1725631017908854500,6.0398544921875,-0.6712440414585172,-0.5781240053430199,1.272722765034437
1725631017918888400,6.049888427734375,-0.6832604963362217,-0.6996912605248391,0.9031909489840269
1725631017928922400,6.05992236328125,-0.5608898158170282,-0.5067363469555973,-0.35684944460988044
1725631017938956300,6.069956298828125,-0.6126788936346769,-0.18964038219377397,-1.163331246945262
1725631017948991200,6.0799912109375,-0.6943833633750677,-0.03860211785584688,-1.5251356836140155
1725631017959025400,6.090025390625,-0.6049903849586844,-0.10085779076069593,-2.014910082113743
1725631017969059600,6.1000595703125,-0.6225111363410949,-0.2522629887148738,-2.0454326461493966
1725631017979092700,6.1100927734375,-0.8135331821516155,-0.31026392678469417,-1.5511784718871116
1725631017989126700,6.120126708984375,-0.8668322261407971,-0.363740519297868,-1.4890069701343773
1725631017999161600,6.13016162109375,-0.7980930364355444,-0.5163508552581072,-1.4049690890103577
1725631018009195800,6.14019580078125,-0.9134010850921273,-0.8405753567256032,-1.1136129840523004
1725631018019230000,6.15022998046875,-0.98720369566679,-1.0339384127043187,-0.6151788937568664
1725631018029263600,6.160263671875,-0.517069232660532,-0.41613720761984585,0.025371757143735883
1725631018039297800,6.1702978515625,0.5231321859613061,0.5068726866863668,0.6145628076851367
1725631018049332700,6.180332763671875,1.6456695040948688,1.0717227113712577,1.6826432900965214
1725631018059366700,6.19036669921875,2.754906903411448,1.3889564041033386,1.530071386450529
1725631018069400800,6.20040087890625,3.2677383523717523,0.5645259803622961,-0.1683253530949354
1725631018079434800,6.210434814453125,2.3002856513574717,0.05745316799394786,-1.44146312867105
1725631018089468700,6.22046875,0.5841875431656837,0.0668506725449115,-1.5835177299559116
1725631018099503900,6.23050390625,-1.2563012070655821,-0.06880743263587355,0.9074491909503937
1725631018109537800,6.240537841796875,-2.139084304923564,-0.15265315218865871,3.1334441559553143
1725631018119571700,6.25057177734375,-2.0914565845690665,0.13022650858610868,3.4201813689410683
1725631018129606000,6.26060595703125,-1.884871351184696,0.6908297625467181,2.85573429903388
1725631018139639800,6.270639892578125,-1.4784626336358486,0.8639638310976326,1.898404348105192
1725631018149675000,6.280675048828125,-1.1929460484862326,0.27235432123765346,1.127905128777027
1725631018159708700,6.290708740234375,-1.149092732103914,-0.4444758882777765,0.7986743434548378
1725631018169742800,6.300742919921875,-0.8936452681340277,-0.8593012461140751,0.5825871222317218
1725631018179776800,6.31077685546875,-0.5108969737663864,-1.0466903422497211,0.23579554577767847
1725631018189811700,6.320811767578125,-0.07058131044059991,-1.2350997213438153,-0.20278233397006987
1725631018199846000,6.330845947265625,0.44824645632505417,-1.2516159718587994,-0.373583137267828
1725631018209879800,6.3408798828125,0.8862529659256339,-1.1489231476906687,-0.41234921351373194
1725631018219913700,6.350913818359375,0.6746668555140495,-1.444546189378202,-0.271418063300848
1725631018229948000,6.360947998046875,0.5152876099407673,-1.6561515890121459,0.1490291164726019
1725631018239982800,6.37098291015625,1.0595409098640083,-0.9472954636484384,0.3103735246390104
1725631018250016800,6.381016845703125,1.4135121686890721,0.049067434301413596,0.08313479480445385
1725631018260050700,6.39105078125,1.3199126784935593,0.6531275892052799,-0.12473404864966868
1725631018270084900,6.4010849609375,0.5126821036174893,0.7847562927395105,-0.2556634448081255
1725631018280118800,6.411118896484375,-0.8326771508216857,0.8810044708129018,-0.2595844176441431
1725631018290153700,6.42115380859375,-1.433894300851971,1.142977829420194,-0.20137305169403552
1725631018300188000,6.43118798828125,-1.5033797788798808,1.3102100535161791,-0.12844693169295787
1725631018310221600,6.4412216796875,-0.9373895711839199,1.5674262807242572,-0.32362229779064655
1725631018320255700,6.451255859375,-0.33647315766587854,1.7077024741597473,-0.7666641712099314
1725631018330290000,6.4612900390625,-0.000358019657433033,1.7129503116853535,-1.2312293096512554
1725631018340324900,6.471324951171875,-0.34554800613373515,1.2727728877864777,-1.5685808575868605
1725631018350358800,6.48135888671875,-0.8700511881873011,1.3037135311037302,-2.0008874019801617
1725631018360392700,6.491392822265625,-0.7881222620412707,1.6600960888542233,-1.8220348096519707
1725631018370427000,6.501427001953125,-0.5216697121933103,1.6230442691802978,-1.1266630197614431
1725631018380460800,6.511460693359375,-0.6395613476023078,0.9043889265969395,-0.9251105198472738
1725631018390495700,6.521495849609375,-0.6073547760024667,0.31211638625096527,-0.9057675214737653
1725631018400530000,6.531530029296875,-0.15073212099820374,-0.08030694183423183,-0.3037415392786264
1725631018410563600,6.5415634765625,0.3377016765475273,-0.9571338438346981,0.47172553158998487
1725631018420597800,6.55159765625,0.9502715568497776,-1.1035228941272943,0.6774187845706939
1725631018430632000,6.5616318359375,1.5145052762672304,-0.3067105451520532,0.18386486753225326
1725631018440666600,6.57166650390625,1.509811857753992,0.2494783264324069,-0.3554752336472273
1725631018450700800,6.58170068359375,1.2238695945382116,-0.22040298379668966,-0.03101473146677017
1725631018460734700,6.591734619140625,1.1732067442715168,-0.27773570374874396,0.638656215456128
1725631018470768600,6.6017685546875,0.9915288653895258,-0.1936181632509455,0.9668062198042869
1725631018480803800,6.611803955078125,0.9529252862289548,0.2913969484250992,0.4620236372649669
1725631018490837800,6.621837646484375,1.1109668534576893,0.9104419430255889,-0.3450818499267101
1725631018500872000,6.631871826171875,1.3594523694604634,1.4463801268070935,-1.0276280605137347
1725631018510905900,6.64190576171875,1.5532129003241657,1.7562006937384604,-1.3644728279709815
1725631018520939800,6.651939697265625,1.4709516734838486,1.676076332796365,-1.0780062486201525
1725631018530975000,6.66197509765625,0.9076116880357264,1.560980027194321,-0.3557482053697109
1725631018541008600,6.672008544921875,0.056184097906202074,0.8700535262748599,0.9682920744478702
1725631018551042800,6.682042724609375,-0.8792971554383635,-0.02624298702031374,2.1804367444008586
1725631018561077000,6.692076904296875,-1.71343707228899,-0.8081926248412579,2.5585358977884054
1725631018571110700,6.702110595703125,-2.1859306656420228,-0.8389873568817973,1.6815385437250137
1725631018581145900,6.712145751953125,-2.106342019011825,0.5178550492759794,-0.06353285323381423
1725631018591179800,6.7221796875,-1.462923849850893,1.3783116759702563,-1.0213362668931483
1725631018601213700,6.732213623046875,-0.7423860545217991,1.5935010715708136,-1.2011603346019983
1725631018611247900,6.742247802734375,-0.31700624065175653,1.7347740209586917,-1.0629372743040322
1725631018621281800,6.75228173828125,-0.17071897023320198,1.8114099552631377,-0.909798384425044
1725631018631317000,6.76231689453125,-0.41659678795561195,1.611893783482164,-0.18111001586616038
1725631018641350700,6.7723505859375,-0.9980129667118192,1.2767208947598934,0.9735440036267041
1725631018651384800,6.782384765625,-1.2276863763473926,0.9217132786244153,1.3111638471096754
1725631018661418800,6.792418701171875,-0.9346737363539636,0.8441268386621028,1.03205698287189
1725631018671452700,6.80245263671875,-0.6701708592690527,0.8370928483720869,0.7482160758495331
1725631018681488000,6.81248779296875,-0.4370829650148749,0.8598882522217929,0.28666999296844003
1725631018691521800,6.822521728515625,-0.34099282704740763,0.7477905439138413,0.44874972967207427
1725631018701555700,6.8325556640625,0.034982466053962706,0.914945318859443,1.6855080318778752
1725631018711590000,6.84258984375,1.2173169580243528,1.420580499640107,2.78365164411962
1725631018721623800,6.852623779296875,1.6728139699995517,1.706900363996625,3.1748101855665443
1725631018731658800,6.86265869140625,0.7669815665960311,1.139732929214835,2.716688816437125
1725631018741692700,6.872692626953125,0.8841855120018124,0.7733082853995263,1.3418769652813671
1725631018751726800,6.882726806640625,1.4757128965362905,0.7043111754104494,0.031521511945128436
1725631018761760800,6.8927607421875,1.7020599382281303,0.023739479766786097,0.010689736318588257
1725631018771795700,6.902795654296875,1.9309049342155455,-0.639201720509678,-0.6724655460774898
1725631018781830000,6.912829833984375,2.2508576035827397,-1.2767929370827973,-1.390253750437498
1725631018791863600,6.922863525390625,1.9908920776665209,-1.891052524037659,-2.091059255814552
1725631018801897700,6.932897705078125,1.2360428474128247,-2.573438283365965,-2.0821926432698965
1725631018811932000,6.942931884765625,1.4288213815018533,-2.0827970389038324,-0.8756944547712803
1725631018821966800,6.952966796875,1.028888289707899,-0.712417324976623,-1.530278307199478
1725631018832000800,6.963000732421875,0.09655570965260267,-0.04772708907574415,-0.9969581969618797
1725631018842035000,6.973034912109375,-0.9163783473372459,0.17400836716741322,-0.7560702964812517
1725631018852068900,6.98306884765625,-1.539183790449798,0.5804723220348358,-1.8235048822045326
1725631018862102800,6.993102783203125,-1.960108524607122,0.476734591923654,-2.0418284841775893
1725631018872137700,7.0031376953125,-2.555345285053551,1.0573387236446141,-1.4810416903436183
1725631018882172000,7.013171875,-2.611081200800836,1.367666947837174,-1.7319482960134744
1725631018892205800,7.023205810546875,-2.589361828684807,1.3852125413998961,-1.9013351408600807
1725631018902239700,7.03323974609375,-2.8492531203210354,1.3934832338780163,-0.7558288889408111
1725631018912274000,7.04327392578125,-2.8628710190460085,1.2946823756471275,0.23561375946998594
1725631018922308600,7.05330859375,-2.290194173192978,1.114171202456951,-0.10787409926354885
1725631018932342800,7.0633427734375,-1.72137283372432,1.0476157865315676,-1.7926900572240352
1725631018942377000,7.073376953125,-1.6535378993824124,0.5878444582380354,-1.3954729463905096
1725631018952410600,7.08341064453125,-1.3548419530555604,0.3679534608177841,-0.36504093437194823
1725631018962444800,7.09344482421875,-0.7418795663043857,0.2636328162521124,-0.3413040849536657
1725631018972480500,7.10348046875,-0.1697869500800967,0.11853154074773192,-0.6898398747265339
1725631018982514400,7.113514404296875,0.2739057884633541,0.023710838194191456,-0.7495639833271504
1725631018992548400,7.12354833984375,0.7687316251337528,-0.2815114411614835,-0.7657599158465862
1725631019002582500,7.13358251953125,1.3035185930535196,-0.5260619558028876,-0.9000403759986162
1725631019012617500,7.143617431640625,2.253539097751677,-0.3146089702516794,-0.9961047950029372
1725631019022651400,7.1536513671875,3.0935104972347616,-0.07939473149329423,-0.3477712351411581
1725631019032685600,7.163685546875,2.9911423019111156,0.1055906645014882,1.0206669893294573
1725631019042719500,7.173719482421875,2.191665702162683,0.5571257871083914,1.940954619064927
1725631019052753400,7.18375341796875,1.3702841445982454,0.7326235160507262,2.170424468952417
1725631019062788600,7.19378857421875,0.46353725669831036,0.12929587667249143,1.9659598809838295
1725631019072822500,7.203822509765625,-0.4489931830391288,-0.732257824543491,0.7127543018460273
1725631019082856400,7.2138564453125,-1.0912896546937525,-0.7421388748276978,-0.5840706387877463
1725631019092890600,7.223890625,-1.5659069622024893,-0.42765016995482147,-0.5422434214055538
1725631019102924500,7.233924560546875,-1.3156350011743605,-0.11725238765738903,-0.31242753455936906
1725631019112959500,7.24395947265625,-0.40496041843667624,0.1929451228275895,-0.48761108298599715
1725631019122993400,7.253993408203125,0.051774610900878905,0.41633572586663065,0.1930950526922941
1725631019133027600,7.264027587890625,-0.056742754702270026,0.43100941725485026,1.0099036032527684
1725631019143061500,7.2740615234375,-0.04058072445243597,0.4555059259340167,0.7060358072459697
1725631019153095400,7.284095458984375,0.028021102608740328,0.5351299361385404,0.3794160812050104
1725631019163130600,7.294130615234375,-0.18451222552508115,0.6272049201805144,0.4695230531096458
1725631019173164500,7.30416455078125,-0.4471874487914145,0.6456468049958348,0.3034633068591356
1725631019183198500,7.314198486328125,-0.5323525803796947,0.590363528386876,-0.17150749026238918
1725631019193232600,7.324232666015625,-0.3554876547373831,0.4304487876974046,-0.5356254645705223
1725631019203266300,7.334266357421875,-0.0814832282051444,0.25005817214697595,-0.6142126790732145
1725631019213301500,7.344301513671875,-0.009645780223608017,0.09925305897779763,-0.553539306923747
1725631019223335400,7.35433544921875,-0.27740269066840406,-0.3595862491626292,-0.08144085036814212
1725631019233369600,7.36436962890625,-0.3703925245329737,-0.9034480655502527,0.8368687572926282
1725631019243403500,7.374403564453125,-0.30078824243098495,-1.223080855313316,1.0861638361126185
1725631019253437400,7.3844375,-0.35827348606362935,-1.3676786382749675,0.9794313080996274
1725631019263472600,7.39447265625,-0.4802627660498023,-1.7000277017481624,0.8855646914005278
1725631019273506300,7.40450634765625,0.18050941962450742,-1.5894497503533958,0.7759311812490224
1725631019283540500,7.41454052734375,1.083686047822237,-1.0710616901792585,0.7891776163130998
1725631019293574700,7.42457470703125,1.64893595854491,-0.6512552925273776,0.7993032890081405
1725631019303608300,7.4346083984375,1.4824370902247725,-0.5525769281649962,0.7690823382675648
1725631019313643500,7.4446435546875,0.6426724653601646,-0.5049387229491025,0.5466168141841888
1725631019323677400,7.454677490234375,0.32145883614644405,-0.19702196207875386,0.17473872726857662
1725631019333711400,7.46471142578125,0.29335429303795096,-0.36117497965879736,0.0078688336789608
1725631019343745500,7.47474560546875,0.10945376967042685,-0.5882935171797872,-0.4328577485352754
1725631019353780500,7.484780517578125,-0.06747019268274307,-0.3413648021649569,-1.2074164723873138
1725631019363814700,7.494814697265625,-0.10772826105207205,-0.06349000960593111,-1.5812871944248674
1725631019373848300,7.504848388671875,0.01958849756717682,0.23828254028782248,-1.6958809573322533
1725631019383882500,7.514882568359375,0.0066755322411656375,0.5481926486661657,-1.7969810324162243
1725631019393916700,7.524916748046875,0.24369652816057205,1.0858872111283242,-1.9199159226894378
1725631019403951400,7.534951416015625,0.6604734949886798,1.3912471453890203,-1.5417875432074069
1725631019413985500,7.544985595703125,0.4598537458799779,0.631367081361264,0.11718494844436644
1725631019424019500,7.55501953125,-0.36035993694886564,-0.4636562069028616,1.3013088080495596
1725631019434053400,7.565053466796875,-0.8346621871590614,-0.31682412555050105,0.23919220247864723
1725631019444087600,7.575087646484375,-0.7131506076872348,0.0725959929975681,-1.000602106422186
1725631019454122500,7.58512255859375,-0.3160943865038454,0.10220889484239741,-1.1738923884481192
1725631019464156400,7.595156494140625,0.1680196481466293,0.09247994811367242,-1.3007955978304147
1725631019474190600,7.605190673828125,0.49958223741725083,-0.08906771025108173,-1.161464284029603
1725631019484224500,7.615224609375,0.6114999129831791,-0.33927089862562715,-0.47180444204509253
1725631019494258400,7.625258544921875,0.5924747483871877,-0.380148962056823,0.058415364089608186
1725631019504293400,7.63529345703125,0.48991585279703137,-0.03705918099647388,-0.2160363678187132
1725631019514327600,7.64532763671875,0.3969409242406487,0.22564356959760187,-0.5599304692655801
1725631019524361700,7.65536181640625,0.34396862798780203,0.0023537189527181907,-0.5201192678809166
1725631019534395400,7.6653955078125,0.5010676536694169,-0.16260909433998166,-0.7583657139420509
1725631019544429600,7.6754296875,0.5921045999005436,-0.05133336993940174,-0.9122048610448836
1725631019554464500,7.685464599609375,0.5273728922709823,0.1700862800865434,-0.8089712810635566
1725631019564498400,7.69549853515625,0.3968457933031022,0.2340140326557681,-0.25670623185932634
1725631019574532600,7.70553271484375,0.07067103455066681,0.1431860986659769,0.5048755215197801
1725631019584566500,7.71556640625,-0.29855829142183066,0.07245371671635657,1.0729022034794091
1725631019594600400,7.725600341796875,-0.41153497452139853,-0.14473960258513688,1.535433205744624
1725631019604635400,7.735635498046875,-0.5692426336206495,-0.3718880968529731,1.7428975600510834
1725631019614669600,7.745669677734375,-1.1144155326068401,-0.5926902177687734,1.9113029926449059
1725631019624703500,7.755703369140625,-1.5010378919288516,-0.8642317613188177,2.1264549788445235
1725631019634737400,7.7657373046875,-1.2661832802630961,-0.9688912824500352,1.9936907684743403
1725631019644771600,7.775771484375,-0.5167103362202644,-0.4813593656474724,1.5053127927690744
1725631019654806300,7.78580615234375,0.48881461355686184,0.2714189766163006,0.7440501883417368
1725631019664840400,7.79584033203125,1.089109241914749,0.48562706956192847,0.2185018811494112
1725631019674874600,7.80587451171875,0.9987830743014812,0.275913438491337,-0.04914017074406147
1725631019684908300,7.815908203125,0.6802201057270169,0.03719035136178136,-0.3683756317526102
1725631019694943500,7.825943603515625,0.3741112527951598,-0.148396663787961,-0.46311084797978397
1725631019704977400,7.835977294921875,-0.32549832079559565,-0.293439194842428,0.30702187612354753
1725631019715011600,7.846011474609375,-0.8870107985556125,-0.15494403960481284,0.6609919659048319
1725631019725045500,7.85604541015625,-0.790391376017034,0.21826346928365528,-0.1613105058968067
1725631019735079400,7.866079345703125,-0.6598939415350557,0.4793913169775158,-0.3130985656887293
1725631019745114600,7.876114501953125,-0.8272595096871256,0.48436121434457596,0.20999942574203012
1725631019755148300,7.886148193359375,-0.7928526515640318,0.6234657336521894,-0.1963636990994215
1725631019765182500,7.896182373046875,-0.5247042575836182,0.6727921476833522,-0.4895797527104616
1725631019775216600,7.906216552734375,-0.6481150948055088,0.354887350756675,-0.48826633202433584
1725631019785250300,7.916250244140625,-0.9205730225481092,0.16018632417246698,-0.34800738198459147
1725631019795284500,7.926284423828125,-0.884915579842031,0.24704927265457807,-0.557802809587121
1725631019805318700,7.936318603515625,-0.9120426562204956,0.32722192971780895,-0.36758302007019517
1725631019815352300,7.946352294921875,-0.7364493579491973,0.5357509906463325,0.30937399220764633
1725631019825387500,7.956387451171875,-0.16305384243279694,1.1593435655485838,0.09861234992146492
1725631019835421400,7.96642138671875,0.32516105166524645,1.5744725459739566,-0.49496787548959253
1725631019845455400,7.976455322265625,1.1641785114243626,1.8794769447952508,0.20407471186816692
1725631019855489500,7.986489501953125,0.8488523328140377,1.820245880408585,0.6728051532953977
1725631019865523500,7.9965234375,0.17686930955648422,1.4359452420324086,1.0344558607071637
1725631019875558400,8.006558349609374,0.11272183155566454,0.9726078918203711,1.6639204694479703
1725631019885592600,8.016592529296876,0.5147115636184811,0.3211886409029364,1.740656503126025
1725631019895626500,8.02662646484375,0.5879951187551021,-0.4185222030602395,1.9631506687819957
1725631019905660400,8.036660400390625,0.6999038803622126,-0.9360046926967799,1.4144436043202877
1725631019915695400,8.0466953125,1.4544468211457133,-1.4610102713145314,0.25901392427980896
1725631019925729500,8.0567294921875,1.817254297377169,-1.708622219353169,-0.3620873452633619
1725631019935763700,8.066763671875,0.8910340627223253,-1.3153276887908578,-0.581555441096425
1725631019945797400,8.07679736328125,0.08863982196152209,-0.9053256229251623,-1.5041688834309577
1725631019955831600,8.08683154296875,0.4780892214030027,-0.5279638439014553,-1.940488170596957
1725631019965866500,8.096866455078125,0.32997020551264283,-0.11519406688809394,-1.97403388184607
1725631019975900200,8.106900146484374,0.06843757641017437,-0.13616905037760735,-1.1335708994537592
1725631019985934300,8.116934326171876,-0.028383506180346012,-0.07828881607800722,-0.3582476209700107
1725631019995968300,8.12696826171875,-0.38623219096064565,-0.34869302616119385,0.3386784126251936
1725631020006002200,8.137002197265625,-0.5818897876173258,-0.4703177106186747,0.09803425777256489
1725631020016037000,8.147037109375,-0.5207365229964256,0.28339374777674675,-0.8005243552356958
1725631020026071300,8.1570712890625,-1.0194175737902522,0.22043489503860472,-0.851761205998063
1725631020036105200,8.167105224609376,-2.0091516647174954,-0.4235238107398152,-1.1372820289313792
1725631020046139100,8.17713916015625,-2.251001103706658,-0.593836538259685,-1.7963935879170894
1725631020056173300,8.18717333984375,-2.0354080957412717,-0.7355746209412812,-2.024585672953725
1725631020066208300,8.197208251953125,-1.9886320237800479,-0.6557979043930768,-1.5972475646227597
1725631020076242200,8.2072421875,-1.7924632627308368,0.1516938056372106,-1.172148759651184
1725631020086276400,8.2172763671875,-1.329607558555901,0.5550054339535534,-2.1690964352190494
1725631020096310000,8.22731005859375,-1.087623095010221,0.8983746347434818,-2.674066064763069
1725631020106344200,8.23734423828125,-1.3814371145144104,0.9076736473560333,-1.3530904332131146
1725631020116379100,8.247379150390625,-1.657035386109352,0.7006229884169995,-0.35147125870287416
1725631020126413300,8.257413330078125,-1.6700824992090462,0.5479902944944799,-0.7333470080196857
1725631020136447200,8.267447265625,-1.5769517955690622,0.4916441378943622,-0.978613561975956
1725631020146481200,8.277481201171875,-1.4326578909248113,0.5418338176913559,-1.2939976082533597
1725631020156515300,8.287515380859375,-1.20345107588768,0.36666327487677336,-1.445726631334424
1725631020166551300,8.29755126953125,-0.9641887307822704,0.10663754320591688,-1.1090063670396804
1725631020176585200,8.307585205078125,-0.7506459333449602,-0.08006444744840265,-0.7517091786623
1725631020186619400,8.317619384765624,-0.6607312691420316,-0.4839689270913601,0.04614449605941772
1725631020196653000,8.327653076171876,-0.3136293115645647,-0.6223300806857646,1.1411164925277233
1725631020206687200,8.337687255859375,0.8213724974751472,-0.17776830422282217,1.7666589593887327
1725631020216722200,8.34772216796875,2.2285957951530815,0.2021790343146771,2.479232643970847
1725631020226756400,8.35775634765625,3.196754890871048,0.28242979811541735,3.44710912335515
1725631020236790300,8.367790283203124,4.205553747752308,0.23475641198828814,3.2627275384724137
1725631020246824200,8.37782421875,5.454365475845337,-0.16810418462492524,1.9230226565331219
1725631020256858400,8.3878583984375,5.084433262300491,-0.5436929626267403,1.6771856092125177
1725631020266893000,8.39789306640625,3.1226924603164194,-0.4942508863266557,1.5456991636931896
1725631020276927200,8.40792724609375,1.4533999424412847,-0.3979427947595715,1.193531154897809
1725631020286961400,8.41796142578125,0.03523848664164543,-0.4291443540353328,0.46315994781851766
1725631020296995000,8.4279951171875,-1.3149828208759426,-0.6901215412121265,-0.0966693991601467
1725631020307029200,8.438029296875,-1.9847879155725239,-0.8725172129746526,0.2568739896416664
1725631020317064200,8.448064208984375,-2.062071646261215,-0.6952423182919621,0.13366378955841063
1725631020327098000,8.45809814453125,-1.967169256773591,-0.514080754901655,-0.057577744221687314
1725631020337132300,8.46813232421875,-1.9837457130432128,-0.30773217981737105,-0.22299626995921135
1725631020347166200,8.478166259765626,-1.8528829523801802,-0.3123340110570192,-1.0213917964726686
1725631020357200100,8.4882001953125,-1.3408889771573245,-0.2799594624791294,-1.8136755621075629
1725631020367235000,8.498235107421875,-0.8910919303894043,-0.07856218965929002,-2.0817764636844394
1725631020377269200,8.508269287109375,-0.7179954173699021,0.08097684958558529,-1.945855835109949
1725631020387303400,8.518303466796874,-0.7345534611999988,-0.023601788329146802,-1.3153630523651838
1725631020397337000,8.528337158203126,-0.8687900822103023,-0.39429552429839965,-0.4249374769300222
1725631020407372300,8.538372314453126,-1.1816460713148116,-0.8393645196311176,0.21606676295697688
1725631020417406200,8.54840625,-1.2393591323539614,-1.2831754777267574,-0.24650223323106765
1725631020427440000,8.558440185546875,-0.4516638635531068,-1.2029659227192402,-1.1856512153029442
1725631020437474300,8.568474365234374,0.5534183108925819,-0.6996250634208321,-1.1867577152401207
1725631020447508200,8.57850830078125,1.3705389961421488,-0.1912734632883221,-0.6341817003905773
1725631020457543200,8.588543212890626,1.4514160751476883,-0.051530545612471175,0.20431553488671778
1725631020467577300,8.598577392578125,0.7246618895217776,-0.32660007149241865,0.6910352219909429
1725631020477611300,8.608611328125,0.2628849204942584,-0.09062670319611206,1.061102460092306
1725631020487645200,8.618645263671874,0.29924247429370876,0.28981946997530755,1.6560446215063334
1725631020497679400,8.628679443359376,0.4397039611682296,0.2469096449881792,1.637434029060602
1725631020507714300,8.63871435546875,0.588608866739273,-0.034940362211596215,1.0207552521348
1725631020517748500,8.64874853515625,0.5352627687379717,-0.27624069768432524,0.7605366282403468
1725631020527782100,8.6587822265625,0.3886559109762311,-0.22423929229024797,0.6021592531859874
1725631020537816300,8.66881640625,0.3059565849795937,0.15936207524277268,0.20892273642122744
1725631020547850200,8.678850341796876,0.26976269730925556,0.5622080953413621,0.05224222841262817
1725631020557885200,8.68888525390625,0.17522972565591335,0.594364361526072,1.246747196778655
1725631020567919400,8.69891943359375,0.08615122001618146,0.38987840197589246,2.431014848768711
1725631020577953300,8.708953369140625,0.27095746005177496,1.0519769043505192,1.4154197558760642
1725631020587987200,8.7189873046875,0.6136053608298301,1.2490068122737108,0.6653694503366947
1725631020598021400,8.729021484375,0.49795653591156,0.38583193959668277,1.9501853887468574
1725631020608056300,8.739056396484376,0.30441344719082114,0.535938987499103,0.3784422677367925
1725631020618090200,8.74909033203125,0.23677140507251024,0.3925833135530352,-1.4771031818509102
1725631020628124200,8.759124267578125,0.5241217815205454,0.14450312694814055,-1.610676955038309
1725631020638158300,8.769158447265625,1.0801382922127842,0.4898140729229897,-1.1607558434993028
1725631020648192300,8.779192138671876,1.282658175854385,0.6773297911129892,-0.5622539437770843
1725631020658227200,8.789227294921876,0.8227125139072536,0.5505092915780841,-0.5271966589212417
1725631020668261400,8.799261474609375,0.3645782852962613,0.5412864494742825,-0.9974486108273267
1725631020678295000,8.809294921875,0.14814941102862358,0.4989553011579439,-1.3554478099942207
1725631020688329200,8.8193291015625,-0.11821019983887672,0.3495981583073735,-2.021301244455576
1725631020698363400,8.82936328125,-0.6725076316535472,-0.031886399734765286,-2.4404279892802236
1725631020708398300,8.8393984375,-1.2516226938605308,-0.1918994131669402,-2.4402006102651357
1725631020718432300,8.849432373046875,-1.6665680613473057,-0.3653897478096187,-2.5898189248025414
1725631020728466200,8.859466064453125,-1.6223568714380263,-0.159528189057298,-3.3792858794510363
1725631020738500400,8.869500244140625,-1.1667989230558276,0.13626041845548897,-3.2050784825801846
1725631020748535000,8.87953515625,-0.5764306454285979,0.14394293578211217,-2.0911142008721826
1725631020758569200,8.8895693359375,0.17960078034698962,0.28830278180204333,-1.4666530995070934
1725631020768603400,8.899603271484375,0.796667095285654,0.4857244655217975,-0.936464273032546
1725631020778637000,8.909636962890625,0.7499746099546551,0.12965579602606594,0.3384469419568777
1725631020788671200,8.919671142578125,0.3339955155059695,-0.4101618595372885,1.862318304723501
1725631020798706200,8.9297060546875,-0.39988369969427584,-1.099097771161422,3.135523884838819
1725631020808740000,8.939739990234376,-1.0493255130589008,-1.5425651034511625,3.4279549255520103
1725631020818774300,8.949774169921875,-0.8988570114329457,-1.0658065461300312,2.3362638504505155
1725631020828808200,8.95980810546875,-0.1927384943395853,0.4799968816552311,0.7720505404233932
1725631020838842000,8.969842041015625,0.8462769293680786,1.5713956227466463,0.20881752248108384
1725631020848877300,8.979877197265624,1.524411168731749,1.5467606554448603,0.5682324336647987
1725631020858911200,8.9899111328125,1.4242477899760007,1.0388787186507136,1.2359867333114147
1725631020868945400,8.9999453125,0.781025289517641,0.6559629587616771,1.647688296571374
1725631020878979300,9.009979248046875,0.2881820049665868,0.5084284647610038,1.2366343835651874
1725631020889013200,9.02001318359375,-0.005487783761322498,0.3830252846781164,0.5345248098522425
1725631020899048400,9.03004833984375,-0.5502588239483535,0.023210122130438684,0.6362678590148687
1725631020909082000,9.04008203125,-1.0572501685783267,-0.3945475262980908,0.5783037458240986
1725631020919116300,9.0501162109375,-1.2501020601645112,-0.45433724748082455,-0.3121171534359455
1725631020929150500,9.060150390625,-1.194158493015915,-0.18383929469957946,-1.289830551701784
1725631020939184000,9.07018408203125,-1.0426362445533275,0.16464301132038234,-1.8715216018766163
1725631020949219300,9.08021923828125,-0.936903395102173,0.3851253987625241,-2.1977947064369916
1725631020959253200,9.090253173828126,-0.888037511254847,0.35727220006659627,-1.0393506470113991
1725631020969287200,9.100287109375,-0.8748232248947024,0.5155041753008961,1.4444932901471852
1725631020979321300,9.1103212890625,0.15774638367444277,1.0965918527550995,3.0136218447446823
1725631020989355300,9.120355224609375,-0.013515607394278048,1.2238976515889166,1.953330701035261
1725631020999390200,9.13039013671875,-0.13020663484185932,0.8988783464819192,0.07096037288606166
1725631021009424100,9.140424072265626,0.2276420499384403,0.5930442188382148,-0.4361918613940477
1725631021019458300,9.150458251953125,0.8899684793174266,0.3284815743900835,-0.013667875346541404
1725631021029492200,9.1604921875,1.7438205201148986,-0.04123991901353001,0.2622825706869364
1725631021039527200,9.170527099609375,2.3033576061487198,-0.6616800942994654,0.6460778898894787
1725631021049561300,9.180561279296874,3.109817488913238,-1.9867242904625833,3.3627982705086468
1725631021059595300,9.19059521484375,3.825917594055831,-1.3179594985991716,3.4601907232463356
1725631021069629200,9.200629150390625,4.164164921787381,-0.6157414960756897,1.3282424076825379
1725631021079663400,9.210663330078125,3.272529678301513,-0.49211263218894596,0.4743003505140543
1725631021089698300,9.2206982421875,1.2116107092067598,-0.48176922508999703,0.025206921970844266
1725631021099732200,9.230732177734374,-0.5164671751141547,-0.26228680847063657,-0.7957879743635654
1725631021109766100,9.24076611328125,-1.161425121062994,0.2320664422519505,-1.9367483995467423
1725631021119800300,9.25080029296875,-1.4930296497792004,-0.014486790513992308,-2.8542233099490404
1725631021129834200,9.260834228515625,-2.101472513279319,-0.42065833830609917,-3.217058843231201
1725631021139869200,9.270869140625,-2.5488576765999196,-0.6355158716037869,-3.3194600640416145
1725631021149903400,9.2809033203125,-2.983186958992481,-0.7788770254425704,-3.3250603682667017
1725631021159937000,9.29093701171875,-3.2928646103218195,-0.6774713915407657,-3.2834155217140912
1725631021169971200,9.30097119140625,-3.3306329077020287,0.49705958707183595,-1.8379647847115992
1725631021180005400,9.31100537109375,-2.576026546293497,0.8744368559256196,-1.962590696811676
1725631021190040300,9.321040283203125,-1.763407848638296,0.7374222946345805,-3.2136060724288225
1725631021200074200,9.33107421875,-1.7060446239501237,0.9288330475017428,-1.3021633790522813
1725631021210108200,9.341108154296874,-1.7776038395121692,0.7086551959641277,0.330512641826272
1725631021220142000,9.35114208984375,-1.5649869247481225,0.3529682192623615,0.32498540283739563
1725631021230176300,9.36117626953125,-1.1953949029430746,-0.03249722510948777,-0.8572516201078891
1725631021240211200,9.371211181640625,-0.9635518941834569,-0.2594765733554959,-1.667813385233283
1725631021250245400,9.381245361328125,-0.9774486098498105,-0.2777403981901705,-1.9249726215571163
1725631021260279300,9.391279296875,-0.9170672063842416,-0.5165031232103705,-1.9778198301255703
1725631021270313200,9.401313232421876,-0.7392933492034673,-0.8895413399465382,-1.5133996531128882
1725631021280347400,9.411347412109375,-0.5936193883776665,-1.228770226061344,-1.3114040856063365
1725631021290382000,9.421382080078125,-0.2494195819824934,-1.182876855218783,-1.3708797724038362
1725631021300416300,9.431416259765625,0.4509978008598089,-1.1772943789113313,-0.9767793322861194
1725631021310450400,9.441450439453124,1.1271753531977533,-1.2675135059535503,0.0446902055978775
1725631021320484000,9.451484130859376,1.7042893047153949,-1.1434050418563186,1.1091355463773012
1725631021330519300,9.461519287109375,2.253820545041561,-1.0496150705900043,1.7253846997141837
1725631021340553200,9.47155322265625,2.0855364007398487,-1.0570994349960237,2.9048481662929055
1725631021350587100,9.481587158203125,1.392678054974973,-0.7838079790387302,4.20929994854331
1725631021360621300,9.491621337890624,0.659602265112102,-0.2243799794025719,4.768960953217745
1725631021370655200,9.5016552734375,0.47071284741610286,-0.50240927753672,4.545397697025537
1725631021380690400,9.5116904296875,0.8252806108295917,-1.1268492630485445,3.725084937736392
1725631021390724000,9.52172412109375,1.3690364826247094,-1.2363782168470323,3.0481846240818498
1725631021400758300,9.53175830078125,1.8728864604890345,-1.1604568605527281,2.1619716979056594
1725631021410792400,9.54179248046875,2.209135307879746,-1.0944950996715574,1.3305237966179846
1725631021420826000,9.551826171875,2.1265961408808827,-1.00374624966681,0.6917629517436027
1725631021430861300,9.561861328125,1.641999437279999,-0.7616697239235043,0.044964346364140505
1725631021440895200,9.571895263671875,1.156307339657843,-0.5130475028637796,-0.38903380437791346
1725631021450929200,9.58192919921875,0.899271291322261,-0.47340478991381824,-0.5600771842598915
1725631021460963300,9.59196337890625,0.6062890464670956,-0.5613098678600043,-0.6846931594878435
1725631021470997200,9.601997314453126,0.17317293925657867,-0.6581608341321349,-1.1703484322309494
1725631021481032200,9.6120322265625,-0.2871034159496426,-0.6222314426168799,-1.9479805721789598
1725631021491066000,9.622066162109375,-0.5261725765705109,-0.571174222737737,-2.7530560148477554
1725631021501100300,9.632100341796875,-0.6163374161422253,-0.645854821723327,-3.3147710294425488
1725631021511134200,9.64213427734375,-0.4276256200354546,-0.5866982108123601,-3.7135938219070432
1725631021521168100,9.652168212890626,-0.3535830632250756,-0.35506413209568705,-4.107043104639649
1725631021531203300,9.662203369140625,-0.25228311818744986,0.12179792213253676,-4.286524057999253
1725631021541237200,9.6722373046875,-0.26582535786032674,0.46452411231119184,-3.2965912296295166
1725631021551271200,9.682271240234375,-0.7766402063012122,-0.09177052120268345,-0.9800725286126136
1725631021561305300,9.692305419921874,-1.3126608076691626,-0.9698970254264772,1.034684993287921
1725631021571339000,9.702339111328126,-1.5645698683798313,-1.2670379973962902,1.8512281709104774
1725631021581374200,9.712374267578125,-1.4588251823604106,-1.3686905917964876,2.194453579315543
1725631021591408000,9.722408203125,-0.9395021063584834,-1.254220309138298,1.984901312819123
1725631021601442300,9.7324423828125,-0.34006431402564047,-1.2764710116520523,1.3342302499204872
1725631021611476200,9.742476318359374,0.016056816309690476,-1.5606351592794059,-0.04396072227954864
1725631021621510100,9.75251025390625,0.4648457089483738,-1.395175717009604,-1.0553601170480251
1725631021631545300,9.76254541015625,0.8468576518654822,-1.1369289777100084,0.3396539796590805
1725631021641579300,9.772579345703125,1.1832264723740518,-1.3397678641729056,1.560278893187642
1725631021651613200,9.78261328125,1.552153454399109,-1.4802331504397093,0.9269166924864053
1725631021661647400,9.7926474609375,1.6310723850741982,-1.6147436199553309,-0.11719313175082206
1725631021671681300,9.802681396484376,1.3574994818270205,-1.6326182993419467,-0.6034855333536863
1725631021681716200,9.81271630859375,1.2607847822204232,-1.3167077449724078,-0.5323983192175626
1725631021691750400,9.82275048828125,1.2651309947311877,-0.7953682876467705,0.008497779232263565
1725631021701784000,9.8327841796875,0.9090447895787656,-0.049967634544149035,0.7108931841492653
1725631021711818200,9.842818359375,0.376582026822865,0.38523170868121087,1.5956734471738339
1725631021721852400,9.852852294921876,-0.000032733225822448726,0.8114781493179499,2.0647715528696775
1725631021731887400,9.862887451171876,0.010481938786804675,1.4262047692626714,1.4786293685048817
1725631021741921300,9.87292138671875,0.11119944429397582,1.698988860219717,0.6304132877677678
1725631021751955200,9.882955078125,0.22001433153897523,1.636037314005196,-0.08167582816779613
1725631021761989400,9.8929892578125,0.21870500250607727,1.1603035696871578,-0.3572042493969202
1725631021772024000,9.903024169921874,-0.026939444851875303,0.581972716660425,-0.4179670533955097
1725631021782058200,9.913058349609376,-0.30127427238225934,0.186836978678219,-0.4791010287940502
1725631021792092400,9.923092529296875,-0.5835059906423091,0.00646715018749237,-0.674251844972372
1725631021802126000,9.9331259765625,-0.9130579707428812,-0.19332133572883903,-1.0415396814882754
1725631021812160300,9.94316015625,-1.2685700292691588,-0.4113530786158517,-1.566560165414214
1725631021822195200,9.9531953125,-1.5489476440951226,-0.6211863905433564,-2.4717191996008157
1725631021832229000,9.96322900390625,-1.758162495330721,-0.9342201473675668,-2.6165853511750696
1725631021842263300,9.97326318359375,-1.743447449018806,-1.1078755363788455,-2.1227321589291095
1725631021852297200,9.983297119140625,-1.324341746982187,-0.9281301599293946,-1.5378659858494996
1725631021862331100,9.9933310546875,-0.8045264304839074,-0.5866565636277199,-0.6142576872587203
1725631021872366000,10.003365966796874,-0.46487508117333054,-0.322258023700118,0.8175801194548606
1725631021882400300,10.013400146484376,-0.35992753688096996,-0.11907723759752697,2.479847560998797
1725631021892434400,10.023434326171875,-0.4661547457203269,0.013563460557418874,4.042710625460743
1725631021902468000,10.033468017578125,-0.3805518072366714,-0.03551466410136781,4.647691365808249
1725631021912502300,10.043502197265624,-0.03280366071015596,0.02767959569469094,4.153452973636985
1725631021922537200,10.053537109375,0.4696864269778132,-0.005134878670424223,3.057951400336623
1725631021932571100,10.063571044921876,1.1391080753147602,-0.2830246222034097,1.5552029050976037
1725631021942605300,10.073605224609375,2.028961988341808,-0.34891660578399897,0.03439268346726894
1725631021952639200,10.08363916015625,2.916101089452207,-0.18046382691711185,-1.2627969988256693
1725631021962673200,10.093673095703124,3.417008291862905,-0.11089333748687058,-1.797951338753104
1725631021972708400,10.103708251953124,3.168741971568763,-0.3284186286890879,-1.632583081898093
1725631021982742500,10.113742431640626,2.1110288616538044,-0.6864585617251694,-0.9502040445715189
1725631021992776700,10.123776611328125,0.6356769073843955,-0.699413612627238,0.026306407645344733
1725631022002810400,10.133810302734375,-0.21036840518489477,-0.2464877297816798,-0.49914077726006506
1725631022012844500,10.143844482421875,-0.47395942812189457,0.16019227898921817,-1.3365391113847493
1725631022022879500,10.15387939453125,-0.7981915283739567,0.35275154430437833,-1.502529299530387
1725631022032913400,10.163913330078126,-1.0849966920293868,0.43212691351007665,-1.4838643465489147
1725631022042947600,10.173947509765625,-1.3984559077240526,0.3493766975764185,-1.6227403177976607
1725631022052981500,10.1839814453125,-1.4221347433447837,0.36681313167624174,-1.444058990383148
1725631022063015400,10.194015380859375,-1.409307848867029,0.3671253028979525,-0.9671019878804683
1725631022073050600,10.204050537109374,-1.30281380578503,0.3069120956061408,-0.6254127030014991
1725631022083084500,10.21408447265625,-1.1269615643166004,0.2928049155268818,-0.3337444633543491
1725631022093118500,10.224118408203125,-1.108620436462015,0.3264397663641721,0.4314133949458599
1725631022103152600,10.234152587890625,0.026946459114551544,0.8020829097893089,1.534963250145316
1725631022113186600,10.2441865234375,1.4450713822960852,1.3829884356096387,1.7491455145299433
1725631022123221800,10.2542216796875,0.3961106108963489,1.0307768799334764,1.0125181696653365
1725631022133255400,10.26425537109375,-0.24453502481132744,0.6716172586850822,0.17498247289657592
1725631022143289600,10.27428955078125,-0.1698481787480414,0.42487566374018787,-0.030303952848911284
1725631022153323800,10.28432373046875,0.026954496290534733,-0.23315847527235745,0.16986498375236986
1725631022163357400,10.294357421875,0.7389443896353244,-0.9201512900047004,0.6231126093655824
1725631022173392600,10.304392578125,1.2816799784719943,-1.3042898696869611,1.4808715944737194
1725631022183426600,10.314426513671876,1.53312843593359,-1.4959731558851896,1.5801882932722568
1725631022193460500,10.32446044921875,1.9120412437915801,-0.9727927468679844,-0.01127250464260578
1725631022203494700,10.33449462890625,2.249303652139008,-0.4290506113372743,-0.34977322261333466
1725631022213528600,10.344528564453125,1.4121478945985435,-0.6861706846944987,0.45030221981108187
1725631022223563500,10.3545634765625,0.6447524865046144,-0.5742066857688128,0.07370879481136798
1725631022233597400,10.364597412109376,0.5382581511616706,-0.31362507378086446,-0.8135685457259416
1725631022243631600,10.374631591796875,0.6332952729448675,-0.2746801338367164,-1.2217740835636854
1725631022253665500,10.38466552734375,0.3723240771174431,-0.29405951869785785,-1.7081150004833936
1725631022263700500,10.394700439453125,-0.16156301935315132,-0.07055076917186379,-2.1587544894248247
1725631022273734700,10.404734619140624,-0.9987575014688074,-0.09059387863874435,-1.947368577760458
1725631022283768600,10.4147685546875,-1.7690157516479492,0.007161708322912454,-1.9600696539014577
1725631022293802500,10.424802490234375,-1.9671667725555597,0.7127636541962623,-1.8869751915961503
1725631022303836700,10.434836669921875,-2.364906592088938,0.8760035207204521,-1.60478146725893
1725631022313871600,10.44487158203125,-2.1755543791867793,1.0522542599871754,-2.1354607075989245
1725631022323905500,10.454905517578124,-1.9364120071992277,1.0028491546966134,-2.237026646628976
1725631022333939500,10.464939453125,-2.2621464748382567,0.691802553101629,-1.9404595290243625
1725631022343973600,10.4749736328125,-2.1995462262794376,0.563754849859327,-1.0691086564153431
1725631022354007600,10.485007568359375,-1.855239890769869,0.44848537964746354,-0.10991934135556221
1725631022364042500,10.49504248046875,-1.7045979322731495,0.3613436872892081,0.48306350268423554
1725631022374076700,10.50507666015625,-1.6371788852557538,0.29241891188398,0.27408172955214977
1725631022384110300,10.5151103515625,-1.3110489885583518,0.09016513183265924,-0.8589829739451408
1725631022394144500,10.52514453125,-0.8731111602798104,-0.28021351030543445,-1.8138129247516392
1725631022404178700,10.5351787109375,-0.38085108244419097,-0.6096180447593331,-1.663400829488039
1725631022414213400,10.54521337890625,0.324486805665493,-0.8720807943187654,-1.325357207635045
1725631022424247600,10.55524755859375,1.0744918107584118,-0.9202423292890191,-0.9204115483760833
1725631022434281500,10.565281494140624,1.7483596248492597,-1.181553278464824,0.1464665725082159
1725631022444315400,10.5753154296875,2.496604634532332,-1.490067292842269,1.194642331010103
1725631022454349600,10.585349609375,3.138366999310255,-1.3492492476150393,2.1305688439041375
1725631022464384500,10.595384521484375,3.383719185723364,-0.8215329487338662,3.451777115166187
1725631022474418700,10.605418701171875,3.0225913331419227,-0.14595453133285044,4.358401545730233
1725631022484452600,10.61545263671875,2.5839704910352825,0.28932299169525505,3.780072665464878
1725631022494486500,10.625486572265626,1.8508615295551716,-0.09626542146913707,1.1672966434448957
1725631022504520700,10.635520751953125,0.14755173739641905,-0.33693763337247074,-0.5810135893046856
1725631022514555400,10.645555419921875,-1.1740928794562815,-0.1777968727301806,-1.3323352299541233
1725631022524589600,10.655589599609375,-1.274328738926351,0.1248245764773339,-1.676063911706209
1725631022534623700,10.665623779296874,-0.6788681065961718,0.5526015146169811,-1.8833102393478154
1725631022544657400,10.675657470703126,-0.25845921300649644,1.0197695290330797,-1.7837649924904107
1725631022554691600,10.685691650390625,-0.5230512296795845,1.4961686784572898,-0.8038204741716385
1725631022564726500,10.6957265625,-1.2933981810554862,1.584630075111985,0.4148994825184345
1725631022574760400,10.705760498046875,-1.5594728375017641,1.3662424679920075,0.18717559951543808
1725631022584794600,10.715794677734374,-1.4395574411801992,1.0328103585224597,-0.28937106862068174
1725631022594828500,10.72582861328125,-1.3777214549921453,0.949932753349468,-0.27226562004089355
1725631022604862500,10.735862548828125,-1.0876327396214007,0.937254108235985,-0.4126946659505367
1725631022614897400,10.7458974609375,-0.6729308255016804,0.8097761677056551,-0.3018430121809244
1725631022624931600,10.755931640625,-0.37733226066827774,0.5684807093374431,-0.056228667700290676
1725631022634965500,10.765965576171874,-0.10020824081078171,0.041204263178259135,0.08720072906911372
1725631022644999400,10.77599951171875,0.12491145104318857,-0.43972478476054966,0.2270937684059143
1725631022655033600,10.78603369140625,-0.11902297752648591,-0.7610371981736272,1.1023626912415028
1725631022665068500,10.796068603515625,-0.34206542471498247,-1.106359140466526,1.7494179017305374
1725631022675102500,10.8061025390625,-0.2588344760596752,-1.4823361140683293,0.9873457344859838
1725631022685136600,10.81613671875,0.22472411666512487,-1.368323365919292,0.29543606774806974
1725631022695170600,10.826170654296876,0.8417445466354488,-0.9575989771284162,0.40897710673213
1725631022705204500,10.83620458984375,0.8654691210940479,-1.0992207399539649,0.6654056906938552
1725631022715239400,10.846239501953125,0.5501446960493922,-1.283201635081321,0.6083943481832742
1725631022725273600,10.856273681640625,0.48424014524817466,-1.1384135171793401,0.5009066178888082
1725631022735307500,10.8663076171875,0.7768810293197631,-0.9087186263643204,0.2833294503688812
1725631022745341400,10.876341552734376,1.2797766290687025,-0.5490334468718617,0.1316051034629345
1725631022755376600,10.886376708984375,1.3796967005878686,-0.5814048536445945,0.5814572414189577
1725631022765410300,10.896410400390625,0.9465253560587763,-0.9315530470501631,0.7555956647068262
1725631022775444500,10.906444580078125,0.6176105048179626,-0.6724529788568615,0.8038006004273891
1725631022785478700,10.916478759765624,0.42908027582317587,-0.0016038184674456715,0.5955313594788313
1725631022795512300,10.92651220703125,0.23221534920334816,0.3763130006231367,-0.25745500440001484
1725631022805546500,10.93654638671875,-0.28973712545409797,0.36428412465527654,-0.6121726976782084
1725631022815581400,10.94658154296875,-0.17672873204201459,0.7475725172489881,-0.9484943180441856
1725631022825615600,10.95661572265625,0.3012146511495113,1.0124131018556655,-1.3403262287080286
1725631022835649500,10.9666494140625,0.6563897328063846,1.0758717938747255,-1.8132944538354872
1725631022845683500,10.976683349609376,0.589987169355154,1.2578168723255396,-2.345982111388445
1725631022855718700,10.98671875,-0.16670798102617262,0.9340008055284619,-2.0899019024729726
1725631022865752600,10.996752685546875,-1.0534729881271718,0.17929549552379176,-1.9928098939865826
1725631022875786500,11.006786376953125,-1.1661999342493712,0.1748682353997603,-2.4868892962038514
1725631022885820700,11.016820556640624,-1.1548306912340223,-0.19732065276438368,-1.8561404928714036
1725631022895854600,11.0268544921875,-1.1459525343820451,-0.46867827284857627,-1.3752449818760155
1725631022905889500,11.0368896484375,-1.1003203717589378,-0.4041383249314502,-1.4169593865334986
1725631022915923700,11.046923828125,-0.903722279381752,-0.3984320030486211,-1.2307687064021826
1725631022925957400,11.056957275390625,-0.32320319559574123,-0.40514476202763616,-1.2121955233573913
1725631022935991600,11.066991455078124,0.34907997965216636,0.062169181931484484,-1.4649690919429064
1725631022946025700,11.077025634765626,0.8004945446193218,0.7334509067855775,-1.679374643689394
1725631022956060700,11.087060791015626,1.045432597273588,1.2442946890600024,-1.3995283592611552
1725631022966094600,11.097094482421875,1.093348486919701,1.404635034750402,-0.42745910436213014
1725631022976128500,11.10712841796875,0.8515712363839149,1.3183140111252665,0.937236426448822
1725631022986162400,11.117162353515624,-0.008678981018066407,0.8689053060878068,2.3237317011356353
1725631022996196600,11.127196533203126,-1.0731155539691448,0.2611087046019733,3.0801778451919555
1725631023006231600,11.1372314453125,-1.5117510091230273,-0.2579961255393922,3.159688019758463
1725631023016265500,11.147265380859375,-1.0462450827002525,-0.6299465470388531,2.690025265917182
1725631023026299400,11.15729931640625,-0.2460267246738076,-0.7264396397840232,2.221052832427621
1725631023036333600,11.16733349609375,0.13014642908722163,-0.5940426918236539,2.4111066177278757
1725631023046367500,11.177367431640626,0.3315089593872428,-0.22392617122046649,2.525419225606322
1725631023056402400,11.18740234375,0.8570283327460289,-0.07060129378270358,1.9260931500196457
1725631023066436600,11.1974365234375,1.1609539964199065,0.043684572219289834,1.186830195954442
1725631023076470300,11.20747021484375,1.0495943931281566,-0.022732969605363904,1.2298410701632498
1725631023086504400,11.21750439453125,1.005702644431591,-0.15417725648339836,0.6639473085790872
1725631023096538600,11.22753857421875,1.102410622036457,0.050528812090866265,-0.6433142703950405
1725631023106573600,11.237573486328126,1.0405693751513958,0.21153284585438667,-1.2427923216730354
1725631023116607500,11.247607421875,0.771980105535686,0.12853917655367403,-1.130036880108714
1725631023126641400,11.257641357421875,0.5789914358273148,0.10883793932702392,-0.8137327963769435
1725631023136675600,11.267675537109374,0.09857289469391108,0.10914379040580242,-0.42424248040318485
1725631023146709500,11.27770947265625,-0.6488119910284876,0.147695895107463,-0.02427402503490448
1725631023156744400,11.287744384765626,-1.0871204061850905,0.3489662901446223,-0.010842881053686141
1725631023166778600,11.297778564453125,-1.5093261200636625,0.517290328065306,-0.6556348227858543
1725631023176812300,11.307812255859375,-1.8701570355251431,0.5269974100220948,-1.418025554460287
1725631023186846500,11.317846435546874,-1.742452738893032,0.45487588440217075,-1.8579986879587171
1725631023196880600,11.327880615234376,-1.3324527188539503,0.42068887957483525,-1.9715981791317463
1725631023206915300,11.337915283203126,-0.32359687108844515,0.6573909457381815,-1.5846125394552946
1725631023216949500,11.347949462890625,0.5970473169997335,0.5649387989468873,-1.1990408582299947
1725631023226983400,11.3579833984375,1.6564283601269125,0.8587055452432483,0.02489829441308975
1725631023237017300,11.368017333984374,0.6510337587311863,0.7231143678188323,2.124415581971407
1725631023247051500,11.378051513671876,0.15948416725248096,0.37240780987814065,2.229547104528546
1725631023257086500,11.38808642578125,0.7285004447713493,0.5099636384390295,1.5650632048547266
1725631023267120600,11.39812060546875,1.2219514859572052,0.6696630558773875,0.8608668879956006
1725631023277154600,11.408154541015625,1.6731719896569848,0.6502360324822366,-0.08267126894593238
1725631023287188500,11.4181884765625,1.657119265000522,0.28225422235280273,-0.45160570362508295
1725631023297222400,11.428222412109376,1.2054440032705664,-0.2940666790910065,-0.39771220087409015
1725631023307257300,11.43825732421875,0.6015405367657541,-0.8797456298582256,-0.49095980889201163
1725631023317291500,11.44829150390625,0.23694442355185746,-1.5001315907388926,0.04537468073070049
1725631023327325700,11.45832568359375,-0.12313304319381713,-1.2761986244514585,1.4391454993784427
1725631023337359400,11.468359375,0.06008388182371854,-0.771638744752109,1.9952385824382304
1725631023347393500,11.4783935546875,0.5562897746756672,-0.6862187616199255,0.30713118171691894
1725631023357428500,11.488428466796876,0.3731973528206348,-0.7880543113715947,-0.44482524970471854
1725631023367462400,11.49846240234375,-0.18844313523322342,-0.9939737743236124,-0.7084960598796606
1725631023377496600,11.50849658203125,-0.5289107693627476,-0.9109859867744147,-1.468882465994358
1725631023387530500,11.518530517578125,-0.8658940685078501,-0.48345074843615293,-1.4970318711578845
1725631023397564400,11.528564453125,-1.1353151127725838,0.08677943491712212,-1.1287363189041615
1725631023407599400,11.538599365234376,-1.4532134799584746,0.2874346937306225,-0.9574813420981169
1725631023417633500,11.548633544921875,-1.8882360053122043,0.3274928556136787,-0.701583504012227
1725631023427667500,11.55866748046875,-1.8915294938996432,0.3556327622964978,-1.2537363250136375
1725631023437701400,11.568701416015625,-1.7137182273179292,0.5682859174177051,-2.028759159246087
1725631023447735600,11.578735595703124,-1.9664052866637705,0.9976086236946284,-1.7199731960594653
1725631023457770500,11.5887705078125,-2.110047157140076,0.7013999641388654,-1.6358745246589184
1725631023467804400,11.598804443359375,-1.9971128518775105,0.3220600169099867,-2.263447620564699
1725631023477838600,11.608838623046875,-1.7522414347186683,0.2482841482117772,-2.4025480482190846
1725631023487872500,11.61887255859375,-1.3972425864115356,0.49856940711289643,-1.7564678202420472
1725631023497907500,11.628907470703124,-0.9769231246709823,0.501247540280968,-0.9800742821782826
1725631023507941400,11.63894140625,-1.088329781974852,0.49850394066125153,0.9821388134926557
1725631023517975600,11.6489755859375,-1.2627879387363792,0.5627579477764666,1.9989070418179034
1725631023528009500,11.659009521484375,-1.0757231061190367,0.5780610231094062,1.2064502577036618
1725631023538043400,11.66904345703125,-0.8321621870368718,0.6203126033835112,0.8859317711472511
1725631023548078600,11.67907861328125,-0.4817155952066183,0.5132917599484325,0.4805073884606361
1725631023558112300,11.6891123046875,0.2510439683139324,-0.05866583171933889,-0.5290618682712316
1725631023568146400,11.699146484375,0.9753530988752841,-0.6859741392090917,-1.1860539508849381
1725631023578180600,11.7091806640625,1.5245666515544056,-1.0774028758995233,-0.8869570225417613
1725631023588214300,11.71921435546875,2.099133256676793,-1.1588444569200276,0.30176059459447857
1725631023598249500,11.72924951171875,2.7016373777776956,-0.7686970652770251,1.689600269627571
1725631023608283400,11.739283447265626,2.9619267288208007,-0.30971330716460943,3.0178263106971976
1725631023618317600,11.749317626953125,2.9706887119472025,-0.03770984519124031,3.9410663604974743
1725631023628351500,11.7593515625,3.063147799935937,0.23571626999638973,3.067203797328472
1725631023638385400,11.769385498046875,1.719640018582344,0.5417644787821918,1.198681961789727
1725631023648420600,11.779420654296874,0.17758125721812248,0.15169292885437607,0.6471405506849288
1725631023658454500,11.78945458984375,-0.6523448413297533,-0.2178389602612704,0.015898995399475098
1725631023668488400,11.799488525390625,-1.0628618709802626,-0.2809010541781783,-0.5718681598186492
1725631023678522600,11.809522705078125,-1.058075513486564,-0.19803974255286155,-0.6132610774368047
1725631023688556500,11.819556640625,-0.9624097384110093,-0.021136640324629842,-0.21664017893075943
1725631023698591500,11.829591552734374,-1.0281339642092584,0.23772815780807285,0.43043373625874515
1725631023708625700,11.839625732421876,-0.9905930458441377,0.26410496380850673,0.5614379512190818
1725631023718659300,11.849659423828125,-0.7720093316301703,0.12025051002744584,0.028857845693826673
1725631023728693500,11.859693603515625,-0.8300771974563598,0.11700235841907561,-0.45766485753357405
1725631023738727700,11.869727783203125,-0.8356006370529532,0.0017668635420501231,-1.011219362026453
1725631023748762600,11.8797626953125,-0.7212316228121519,-0.1034310387821868,-1.7565175046026706
1725631023758796500,11.889796630859376,-0.4202969576478004,-0.06909384836181998,-2.24809632217586
1725631023768830500,11.89983056640625,-0.09721563486605882,-0.02116937355045229,-2.3075322614848615
1725631023778864400,11.909864501953125,0.0763897044584155,-0.24586430065371095,-1.8612749331504106
1725631023788898600,11.919898681640625,-0.3397156467184424,-0.6818326554901898,-0.35042145738899705
1725631023798932500,11.929932373046874,-1.1843582528829575,-1.205667436762899,1.1686316914409398
1725631023808966400,11.93996630859375,-1.2336661814093588,-1.6062506630286573,1.1751228070259094
1725631023819000600,11.95000048828125,0.0464481551811099,-1.1501202485207467,0.2271580658137798
1725631023829034500,11.960034423828125,0.983229239077866,-0.4823468788474798,-0.10371171888709067
1725631023839069700,11.970069580078125,0.7046729944601655,-0.32918782296329735,-0.051149172478914255
1725631023849103400,11.980103271484374,0.42903877476900815,-0.3710030211141333,0.12401333315968513
1725631023859137500,11.990137451171876,0.850556506383419,0.030508772972319274,0.44250937397778034
1725631023869171500,12.00017138671875,1.2752172121986747,0.22434651552438734,1.267445116892457
1725631023879205400,12.010205322265625,1.5120935389503836,0.2754141837323084,1.7962568097949028
1725631023889240600,12.020240478515625,1.4645152106955646,0.644219694802165,1.4970394699424505
1725631023899274500,12.0302744140625,1.0639622334375978,0.8280836855515837,1.040733041280508
1725631023909308400,12.040308349609376,0.5883347259730101,0.8126334568329155,0.43381987156569957
1725631023919342600,12.050342529296875,0.5471987057253718,0.8869043425064533,0.13660393466353415
1725631023929376500,12.06037646484375,0.43352965644747016,0.5884153899937867,0.22611586328446864
1725631023939411500,12.070411376953125,0.15377543421685694,0.24906108740102498,0.18053718441426753
1725631023949445400,12.0804453125,-0.008993746055662631,0.04228559214156121,0.03753507314622402
1725631023959479600,12.0904794921875,0.042108956933021545,-0.18179551391229032,-0.21565935119986532
1725631023969513500,12.100513427734375,0.3613520167261362,-0.2839160180851817,-0.39282559787631033
1725631023979547000,12.110546875,0.8146750456631183,-0.15145108292251824,-0.23640754019618032
1725631023989581800,12.120581787109375,0.2681438639357686,-0.32699440457224843,-0.02447568508684635
1725631023999615700,12.13061572265625,-0.35376229224950073,-0.2507635439373553,-0.9966811335861683
1725631024009649700,12.140649658203126,-0.3520803305119276,-0.08876485484698787,-1.6799018824338912
1725631024019683800,12.150683837890625,-0.4936059394866228,-0.04080068734604865,-1.9999030671179294
1725631024029717800,12.1607177734375,-0.7667606173217296,0.13969355297563596,-2.4534791940331457
1725631024039752700,12.170752685546875,-1.0120677955493331,0.09944746730504557,-2.4120097040474415
1725631024049787000,12.180786865234374,-0.9779165196225047,0.05720148108808789,-1.8465438124865292
1725631024059820500,12.190820556640626,-0.6261138370081782,-0.0329857872278546,-1.0463234086334705
1725631024069854700,12.200854736328125,-0.17485270903706548,-0.2249834251884371,-0.34421266587674615
1725631024079889000,12.210888916015625,0.3574830663383007,-0.24546923692151904,-0.2674135038346052
1725631024089923800,12.220923828125,0.8925932748630643,-0.08320585074666886,-0.4953618432432413
1725631024099957800,12.230957763671874,1.1279866695806384,-0.003556779166124761,-0.23469196844995022
1725631024109991700,12.24099169921875,0.9683210082814097,-0.12124889168133958,0.5864122334778309
1725631024120025600,12.251025634765625,0.44844782411605116,-0.37067181639838964,1.5378063646167517
1725631024130059800,12.261059814453125,-0.19064327562600372,-0.7277380820967256,2.354685057803988
1725631024140094700,12.2710947265625,-0.7919742612943053,-0.8632891467064618,2.6693092256247994
1725631024150129000,12.28112890625,-0.5806698904335499,0.038257396071404215,1.4777683677613733
1725631024160162600,12.29116259765625,0.5428738282635808,1.0712442071393131,-0.1773141307145357
1725631024170197800,12.30119775390625,0.9946016969636082,1.1478224199071525,-0.16515549088716505
1725631024180232000,12.31123193359375,0.7045981756582855,0.5549719335427508,0.9826958628535271
1725631024190265600,12.321265625,0.31362229730188845,0.11687917043082416,0.6646721157222986
1725631024200300800,12.33130078125,-0.09105945032387971,-0.008895655976049601,0.2775865228027105
1725631024210334700,12.341334716796876,-0.29603900207728145,-0.08302424710206686,0.2914005286216736
1725631024220369000,12.351368896484376,-0.17453005295395851,-0.10781615853123366,0.2509060211479664
1725631024230402800,12.36140283203125,-0.0817383720099926,-0.1313709293808788,0.35444238346815105
1725631024240436700,12.371436767578125,0.03030453737080097,-0.17870332005061207,0.5990706395208836
1725631024250472000,12.381471923828125,-0.1032663132071495,-0.1988495610984042,1.0549731635570525
1725631024260505600,12.391505615234376,-0.7136322537243366,-0.05989690788425505,1.1732196037530898
1725631024270539800,12.401539794921876,-0.7966025056168436,0.07906308838613331,0.2725812618613243
1725631024280574000,12.411573974609375,-0.3047062926575541,0.30506233955360945,-0.5881535241872072
1725631024290607600,12.421607666015625,0.017305939587950705,0.31069369650408624,-0.8214391329705715
1725631024300642800,12.431642822265625,0.2601166248247027,0.18783494020700453,-1.050966266003251
1725631024310676700,12.4416767578125,0.4794020575672388,0.07389635327272116,-1.2310673970878123
1725631024320710700,12.451710693359376,0.7004688207685947,-0.09017996407561003,-1.38463649507761
1725631024330744800,12.461744873046875,1.3994813052490354,0.39165224324800074,-0.8602870422810316
1725631024340778800,12.47177880859375,3.257057676142454,1.3784320874795317,-0.22420155409574508
1725631024350813700,12.481813720703125,2.1984648607835173,1.1191120198599993,-0.09915244814753532
1725631024360847600,12.49184765625,0.09907295317053794,0.39788974939808247,1.081888058489561
1725631024370881800,12.5018818359375,-0.5691185688495636,0.44417299634106455,0.5140057534366845
1725631024380915700,12.511915771484375,-0.3464969774216413,0.569856235474348,0.017853636598587037
1725631024390950700,12.52195068359375,-0.618077830068767,0.599597586004436,1.7153905444443225
1725631024400984800,12.53198486328125,-0.38889848756045103,0.6463505693510174,1.6465514014959335
1725631024411018800,12.542018798828124,0.09638765960931778,0.21743483643978834,-0.6208288823425769
1725631024421052700,12.552052734375,-0.46335897752195593,-0.8865683154851197,-0.4641606492936611
1725631024431086800,12.5620869140625,-1.1208619322672486,-1.1778430257700383,0.630709640365839
1725631024441121800,12.572121826171875,-0.9659674308925866,-0.889273044399172,0.5488146164894103
