time,seconds_elapsed,z,y,x
1725631020259626200,0.019626220703125,-0.7150175706028938,-0.16578911261558532,-0.8761920290298759
1725631020269580000,0.029580078125,-0.39388650510609147,1.447248141813278,-0.8665170227117835
1725631020279533000,0.039532958984375,-0.4363175336003303,2.824530766996741,0.28452260567620397
1725631020289486000,0.049486083984375,-0.8726876741707325,2.85120191630125,1.9461554025784134
1725631020299439000,0.059439208984375,-0.8432669338971376,3.3438071543127297,1.582010686393827
1725631020309392100,0.06939208984375,-0.33139410083591936,4.196033639734983,0.9675896252669394
1725631020319345200,0.07934521484375,0.2110766995847225,4.200457885918021,1.4991639147505162
1725631020329298000,0.0892978515625,0.6656985361605883,3.874876270753145,1.2571525631979108
1725631020339251000,0.0992509765625,0.5998644202470779,3.5395641196906564,0.18405805201679468
1725631020349204000,0.109203857421875,-0.05264321042895317,2.974519668412208,-0.6816100987806916
1725631020359157000,0.119156982421875,-0.7279314127117394,2.2417080824434756,-2.066781869778782
1725631020369110000,0.129110107421875,-1.599015158817172,2.0862205836117265,-3.4340666864305733
1725631020379063000,0.13906298828125,-2.412096213287115,2.0283365499198434,-4.265964085051417
1725631020389016000,0.14901611328125,-2.9651497825205326,0.7484960618346929,-3.991751130335033
1725631020398969000,0.158968994140625,-2.991128273385763,-0.18818682238459586,-4.127865235655009
1725631020408922000,0.168922119140625,-2.211577732595801,0.24437106642127035,-4.95205775898695
1725631020418875100,0.178875244140625,-0.46876375917494295,0.2416243980616331,-4.6160298608705395
1725631020428828000,0.188827880859375,1.4121423416405916,-0.1499643514961004,-3.7462759020641445
1725631020438781000,0.198781005859375,1.9164935470253228,-0.5978934124350548,-3.847431214466691
1725631020448734000,0.20873388671875,2.5058283899515867,0.2411632102906704,-3.8900264936119315
1725631020458687000,0.21868701171875,2.1526357142835852,-0.16166589520573615,-2.136144305948913
1725631020468640000,0.228639892578125,2.649198165488243,-0.4106505929023027,-0.8207347840934991
1725631020478593000,0.238593017578125,1.1963865443289279,-2.4791151550710198,-0.0636453736975789
1725631020488546000,0.248546142578125,1.5860241598188876,-2.382785947650671,-2.0525199740618465
1725631020498499000,0.2584990234375,0.5405424627065658,-2.4206559518396853,-2.6125316918700934
1725631020508452000,0.2684521484375,-0.02446399464905262,-3.7009219718605277,-1.688830162037909
1725631020518405000,0.278405029296875,-0.5468389325022697,-3.5647084978193044,-1.3305804952412843
1725631020528358100,0.288358154296875,-1.121344455087185,-3.3817923093140125,-1.457268162176758
1725631020538312200,0.298312255859375,-1.964655228126049,-2.214448904117942,-1.601191333812475
1725631020548265200,0.30826513671875,-1.9475573783308266,1.8706752141803502,-1.0419866946034133
1725631020558218000,0.318218017578125,-3.2806513176977634,2.1839900529682637,-0.7577864527493715
1725631020568171000,0.3281708984375,-5.619260854491591,1.488254105940461,-0.8437091247066855
1725631020578124000,0.3381240234375,-8.18903301656544,2.0450416010051966,-1.6408999516054987
1725631020588077000,0.3480771484375,-10.399935041856764,3.2093665351629257,-2.584774500894546
1725631020598030000,0.358030029296875,-12.377103714597224,4.319743606033921,-3.076512308421731
1725631020607983000,0.367983154296875,-14.034981981271505,5.384526215943694,-2.7958915324896574
1725631020617936100,0.37793603515625,-13.095115206319093,7.017214511781931,-1.7210282580703495
1725631020627889200,0.38788916015625,-9.903974063676594,7.351034962981939,1.4611886966213583
1725631020637842200,0.39784228515625,-4.610379580023885,8.170192707017064,4.89886802059114
1725631020647795200,0.407795166015625,0.8162813118159771,11.271494588780403,6.879115954646468
1725631020657748200,0.417748291015625,2.3116315134972334,9.68486369524002,6.63610097900927
1725631020667701000,0.427700927734375,4.0670173837214705,9.016226183018087,4.330311761799455
1725631020677654000,0.437654052734375,5.256774865299463,8.487726624804734,1.494520765119791
1725631020687607000,0.44760693359375,4.16569520009458,9.349700012737513,2.572318923947215
1725631020697560000,0.45756005859375,2.981706365045905,5.93935380911231,2.4549907676398752
1725631020707513000,0.46751318359375,4.606046519255638,3.2655876040786502,0.7598200044035911
1725631020717466000,0.477466064453125,6.63598875080645,5.696295578855276,-1.632410063418746
1725631020727419100,0.487419189453125,7.64818426438868,7.8478177789390084,-3.18575681925565
1725631020737372200,0.4973720703125,7.239469607985019,5.48334139496088,3.417828376074135
1725631020747325200,0.5073251953125,6.062478668999671,5.979175531890988,3.9206180312305685
1725631020757278200,0.5172783203125,4.42895976755619,5.689771145522594,3.439923595765233
1725631020767231200,0.527231201171875,2.6790666495293376,5.66070287194848,2.5807164576753974
1725631020777184000,0.53718408203125,0.4709779280930757,4.440857710620761,0.7295747960045933
1725631020787137000,0.547136962890625,0.253467396068573,3.151067490929365,-0.9149006760001182
1725631020797090000,0.557090087890625,0.7768734305351972,1.4218828144103288,-1.018009752818942
1725631020807043000,0.56704296875,1.9230027827888727,1.4026046979665756,-0.9636065469801426
1725631020816997000,0.5769970703125,2.5440350787490607,1.0656637766584753,-0.9626496846467256
1725631020826950100,0.5869501953125,2.9973230363726615,2.008877816212177,-0.9447025245457887
1725631020836903200,0.596903076171875,4.272379212790727,4.165546439273655,0.37026013032495975
1725631020846856200,0.606856201171875,6.515847875165939,-0.7637731259435415,-2.9932214462727305
1725631020856809200,0.616809326171875,9.092206429892778,-2.7592718206226823,-6.826848591792583
1725631020866762200,0.62676220703125,9.878765972661972,-0.8309028346255422,-5.665404766029119
1725631020876715300,0.63671533203125,9.837114111846684,0.8408601650163531,-1.3884183517038822
1725631020886668300,0.646668212890625,9.34461174968779,1.694714251640439,-0.8028454916596413
1725631020896621300,0.656621337890625,6.324438583603501,2.598013044913113,-1.2704080583512782
1725631020906574000,0.666573974609375,3.6342929061770435,3.439380282668769,-0.8092828312307596
1725631020916527000,0.676527099609375,2.7301746132150293,3.871276784956455,-0.9131202223241328
1725631020926480100,0.686480224609375,3.4807980424672365,3.9598338970705864,-2.1472341475009915
1725631020936433200,0.69643310546875,5.862204518458247,3.4350320243313908,-3.1126176410257815
1725631020946386200,0.70638623046875,6.833499866375327,2.603852418591082,-2.6209400392532345
1725631020956339200,0.716339111328125,5.808364207199215,2.2511427041344345,-2.2606840010702607
1725631020966292200,0.726292236328125,4.109266625908017,2.464898121409118,-3.145863492545485
1725631020976245200,0.736245361328125,1.842683629927039,1.862413874052465,-3.8192087440669535
1725631020986198300,0.7461982421875,0.5894962075004354,1.01745387250185,-6.345094418141246
1725631020996151300,0.7561513671875,-0.013434651112556456,-0.40934257904365656,-9.439701186180114
1725631021006104300,0.766104248046875,0.6111433911630884,-2.0079481341466305,-9.695022685682773
1725631021016057000,0.77605712890625,2.7695781105816364,-2.1031179423987862,-8.283693998512625
1725631021026010000,0.786010009765625,4.301957189452648,-3.464020510667562,-10.555509049928189
1725631021035963100,0.795963134765625,1.3041864093124866,-1.85680947817415,-5.548192929577827
1725631021045916200,0.805916259765625,-5.303326188594102,0.15055997930169104,-3.0994115379720926
1725631021055869200,0.815869140625,-4.506363909754157,0.5762435984238982,-5.014668236678839
1725631021065822200,0.825822265625,-5.544067958602309,1.341700439670682,-1.8777298088669776
1725631021075775200,0.835775146484375,-6.211909936532378,1.491111833459139,-2.231359706908464
1725631021085728300,0.845728271484375,-4.4163013615131375,1.7574188373565673,-1.9689304212272165
1725631021095682000,0.85568212890625,-5.711169322860241,1.3668486171916125,-1.8025690616816281
1725631021105635000,0.865635009765625,-7.665311924800276,-0.9364920378223061,-0.718916916128993
1725631021115588000,0.875588134765625,-8.251797223514318,-0.3163818251430988,-9.977826066350936
1725631021125541000,0.885541015625,-7.596183443516493,4.032271064510941,-13.447660231733321
1725631021135494100,0.895494140625,-13.330519706952572,7.728133414894342,-5.246200279793143
1725631021145447000,0.905447021484375,-16.817681439232825,4.779053892686963,0.19567104066014288
1725631021155400400,0.915400390625,-15.646421152853964,2.9349796851843593,-1.8913333868056534
1725631021165353500,0.925353515625,-14.277501282346249,5.393399258229136,0.0867874720931053
1725631021175306500,0.935306396484375,0.12019523617625236,2.9607646993041037,-4.619015890944004
1725631021185259500,0.945259521484375,16.141317132151126,-3.6094910578757524,-12.788857300305366
1725631021195212500,0.955212646484375,-3.3124358644932506,-3.937070568859577,-6.014373686522245
1725631021205165600,0.96516552734375,-6.33040772114098,0.30325930871963497,-12.740083624786138
1725631021215118600,0.97511865234375,-4.182396159526705,-1.6264812578916548,-12.86501699540019
1725631021225071600,0.985071533203125,-1.1124188058316706,-2.7247300840735433,-9.648692311662435
1725631021235024600,0.995024658203125,0.41713703231215477,-1.0081722494155168,-8.414503567683695
1725631021244977700,1.004977783203125,-0.9033072688400745,0.1531190161347389,-6.349426894387602
1725631021254930700,1.0149306640625,-2.399005845567584,1.2306757674217224,-4.0869998490422965
1725631021264883500,1.024883544921875,-3.592156476715207,1.1538117234498262,-2.6213977198928595
1725631021274836500,1.03483642578125,-4.043081212338805,0.7014806281596422,-1.1484500502862036
1725631021284789500,1.04478955078125,-3.3610768535435196,0.07518003640770912,0.34726474692374465
1725631021294742500,1.054742431640625,-3.3937826068371533,-0.7984884654939174,1.266389470359683
1725631021304695600,1.064695556640625,-3.592308452406525,-1.73827866807878,1.9860516518980265
1725631021314648600,1.074648681640625,-3.7177427582800386,-2.4786820243507623,2.363530043038726
1725631021324601600,1.0846015625,-2.6721926721066236,-3.466544476187229,2.399127864512056
1725631021334554600,1.0945546875,-1.2696370739787817,-3.8736253939092156,2.2759610651791093
1725631021344507600,1.104507568359375,0.6402028603762387,-4.863624273252487,0.5782485450381413
1725631021354460700,1.114460693359375,0.6468295850396156,-4.724252042919397,0.6268449277617036
1725631021364413700,1.12441357421875,0.8851946890443563,-3.8075580537617206,2.5250220429822803
1725631021374366500,1.134366455078125,-1.8179899181753396,-2.9388661712288853,2.722569691169262
1725631021384320800,1.14432080078125,-2.654008196118474,-3.583120352822542,1.1020833628434688
1725631021394273500,1.1542734375,3.198416102081537,-5.556925102087855,-2.1032751787871122
1725631021404226600,1.1642265625,4.343775054484605,-5.222996514338255,-3.5186139783814547
1725631021414179600,1.1741796875,5.841212583833933,-4.808640052655339,-4.959325119641423
1725631021424132600,1.184132568359375,3.0361633468985554,-2.3405098174571988,-4.036913921880722
1725631021434085600,1.194085693359375,3.3541976154237982,-2.1212638399422166,-4.223503245940805
1725631021444038700,1.20403857421875,3.2355741586089133,-2.0300679037570952,-5.300023055395483
1725631021453991700,1.21399169921875,4.243981970345974,-4.353554105699062,-7.863113547748327
1725631021463944700,1.22394482421875,3.735622113841772,-5.365648496994376,-9.372938264983892
1725631021473897700,1.233897705078125,1.872645052948594,-4.847110945346952,-9.131134418702125
1725631021483850800,1.243850830078125,-0.5163473481267691,-2.683271700003743,-6.439986286234856
1725631021493803500,1.253803466796875,-0.6048053837805986,-0.9834761995762586,-2.573257081580162
1725631021503756500,1.263756591796875,1.932056442338228,-1.3452712838947771,0.7460979877170175
1725631021513709600,1.27370947265625,4.646987601453065,-2.5680671117216347,2.3170453552395105
1725631021523662600,1.28366259765625,5.764701591083407,-3.563331364247203,2.5533058881804345
1725631021533615600,1.29361572265625,7.178958732920885,-5.384744242608547,2.450301879171282
1725631021543568600,1.303568603515625,7.032130925884842,-6.489091970187426,0.05215294269397854
1725631021553521700,1.313521728515625,4.442961989423632,-3.7809780898720025,-1.3730021713852882
1725631021563474700,1.323474609375,0.029315526333451268,-0.1829606121689081,-2.1774378548458215
1725631021573427700,1.333427734375,-2.9749948847085235,-0.06399521004855632,-4.0631989944770925
1725631021583380700,1.343380615234375,-3.709183604249358,1.0394546919077634,-3.435376307724416
1725631021593333800,1.353333740234375,-9.476566397240758,4.032959631296992,-2.4803660319149494
1725631021603286500,1.36328662109375,-7.890264589524269,3.787161162421107,-2.8198849870175122
1725631021613239600,1.373239501953125,-2.406255086043477,2.9007413154959676,-1.7173906322203576
1725631021623192600,1.383192626953125,2.1935189288139343,1.1291308711797,-1.669313414532691
1725631021633145600,1.3931455078125,4.915026543709636,0.08280863159000873,-1.0866580493703484
1725631021643098600,1.4030986328125,4.194803805679083,0.5551461575984955,-0.36925095328241586
1725631021653051600,1.4130517578125,0.6233209914192557,2.656312381407618,0.3562032556608319
1725631021663004700,1.423004638671875,-0.47732817390263077,2.627963654279709,-0.10394231277257203
1725631021672958700,1.432958740234375,-0.8658397079721093,1.728129614508152,-1.7747800142630934
1725631021682911700,1.442911865234375,-2.008719703041017,1.2450737106084824,-2.633162391966581
1725631021692864800,1.45286474609375,-1.5975374874800443,0.37049919977784157,-2.7176486013799903
1725631021702817800,1.46281787109375,-0.6272355345144868,0.3682312548458576,-2.382111117129028
1725631021712770800,1.472770751953125,0.2992816372603178,0.25162498307228087,-2.100342486336082
1725631021722723800,1.482723876953125,0.20118074399232863,-0.23478549195230006,-2.0052913360275326
1725631021732676600,1.492676513671875,-0.7938786336109042,0.9035586132526398,-1.8409468692623079
1725631021742629600,1.502629638671875,0.21715952662974594,-1.077367366194725,-0.2645623521871865
1725631021752582700,1.512582763671875,4.514430604092777,-6.0108536957025525,-0.5652969647347926
1725631021762535700,1.52253564453125,-1.2400918305426836,-1.4405015901625156,-0.09921952203437685
1725631021772488700,1.53248876953125,-1.1053288475707173,-4.608044999596476,-0.6434659538254142
1725631021782441700,1.542441650390625,0.7965241796836257,-4.964923085778952,-2.5609230851858853
1725631021792394800,1.552394775390625,-0.2992997574388981,-4.306042412939667,-1.1555609052047133
1725631021802347800,1.56234765625,-1.132715159407258,-1.1357079114824533,-0.19529723891168832
1725631021812300800,1.57230078125,0.06110124217271804,-2.6262685407996176,-0.028547172309458253
1725631021822253800,1.58225390625,-0.19476970790624618,-1.9399784675091505,-0.8548737850606442
1725631021832206800,1.592206787109375,0.29948271279037,-1.7066496041059493,-1.0393372030079364
1725631021842159600,1.60215966796875,-0.9964170758225023,0.545105825099349,-0.3731593588978052
1725631021852112600,1.612112548828125,-0.03553074758648872,0.35859541149437424,0.1056473631247878
1725631021862065700,1.622065673828125,0.46509354622960086,1.3124638237923383,-0.790999278782308
1725631021872018700,1.632018798828125,0.35583719882741566,2.794354824441671,-0.7869798140078783
1725631021881971700,1.6419716796875,-0.11548457426726817,4.085776444727182,-0.8832134520992636
1725631021891924700,1.6519248046875,-0.2006026518434286,3.284749985188246,-2.1418267354995013
1725631021901877800,1.661877685546875,-0.7156639056824148,2.908593782562017,-2.518630588379502
1725631021911830800,1.671830810546875,-0.5445340896259993,1.996595257744193,-1.276436524860561
1725631021921784600,1.68178466796875,-0.930561113403365,5.532943337997794,-0.860401900832355
1725631021931737600,1.691737548828125,-1.1775259226448833,4.373530725800991,-0.8044476661592721
1725631021941690600,1.701690673828125,-0.9643149875104426,6.1910746537745,-1.3815712622880936
1725631021951643600,1.7116435546875,-0.6284785203129053,1.8335960681080816,-1.7791911087036132
1725631021961596700,1.7215966796875,-0.20727745343223214,1.1323504177480936,-1.8195882932826875
1725631021971549400,1.731549560546875,-0.7522603828042745,1.1091425606399774,-1.7183777435615657
1725631021981502500,1.74150244140625,-1.3300351363182068,1.175231528097391,-1.73425014321506
1725631021991455500,1.75145556640625,-1.6122095714330673,0.38326632689237594,-1.8910908102214334
1725631022001408500,1.761408447265625,-1.129731248225644,0.048560325029492375,-1.788913753555715
1725631022011361500,1.771361572265625,-0.9928642056465148,-0.610990794417262,-1.6420304169401525
1725631022021314600,1.781314453125,0.1766518674135208,-0.770165457329154,-0.7123287699103354
1725631022031267600,1.791267578125,0.6150403620690107,-0.18221300867199897,-0.8909925616681575
1725631022041220600,1.801220703125,-0.5063111072808504,-1.5766583655804394,-1.6839093645095824
1725631022051173600,1.811173583984375,-0.54406300151553,-1.4957991144925356,-1.4194355673886834
1725631022061126700,1.821126708984375,-0.5585608979454264,-0.9277876301020384,-0.8995831337504089
1725631022071079700,1.83107958984375,0.5020481526067481,-0.4785732055276632,-0.14781287255063652
1725631022081032400,1.841032470703125,0.8541869718402624,0.8091174115359783,-0.26093437094837424
1725631022090985500,1.8509853515625,0.40873219206035133,0.47132922574877734,-0.6087815939351916
1725631022100938500,1.8609384765625,0.39069384654462336,-0.5179664737612009,0.1459115689739585
1725631022110891500,1.8708916015625,1.0211264235347508,-0.6853893250584602,0.6520015808500349
1725631022120844500,1.880844482421875,1.5625930153489112,-0.5385094955742359,0.6972557039409876
1725631022130797600,1.890797607421875,1.3801298313081263,-1.2272931392461062,0.5604806504942477
1725631022140751600,1.900751708984375,-0.2590086635828018,-1.39429688834846,0.8630708277806639
1725631022150704600,1.91070458984375,-0.4502414295345545,-1.5062117874354124,0.5533103204734623
1725631022160658400,1.920658447265625,0.45225978361964225,-1.2740145584106444,-0.0440488389544189
1725631022170611200,1.930611083984375,0.4489157338887453,-0.45704818693995475,-0.4084859622143209
1725631022180564200,1.940564208984375,0.5110995106011629,-0.9475082296162843,-0.8301683828711509
1725631022190517200,1.950517333984375,-0.06864329158272593,-1.2840543063879013,-0.39123862094581124
1725631022200470300,1.96047021484375,-0.1511246274471283,-1.6126467938065527,0.05645166280120611
1725631022210423300,1.97042333984375,-0.6348299351662398,-1.513597806033492,-0.014468378074467181
1725631022220376300,1.980376220703125,-0.9468751924097537,-1.520045082476735,-0.18718202925622462
1725631022230329300,1.990329345703125,-1.1598591138552874,-0.5795090299606322,-0.2592258134648204
1725631022240282400,2.000282470703125,-0.40234508483912795,0.7450041280657053,-0.35113837348669763
1725631022250235400,2.0102353515625,0.7341694303184747,2.0156588546544314,-0.6927138227276504
1725631022260188400,2.0201884765625,1.3564239615499973,0.9973621015876531,-0.4798649989038706
1725631022270141400,2.030141357421875,1.8896096317529678,1.0216846419394017,-0.7987550074756145
1725631022280094200,2.04009423828125,1.239175300219655,1.8518413343727587,-0.7492021642774344
1725631022290047200,2.050047119140625,0.04969363990835845,1.0023720387041568,0.43496553446948527
1725631022300000300,2.060000244140625,0.03861994577348232,0.7371686121344566,1.2855197027653456
1725631022309953300,2.069953369140625,0.9233329887807369,1.4613099849134683,1.1342135812714695
1725631022319906300,2.07990625,1.7426719346016644,2.193277521273494,0.2271343926772475
1725631022329860000,2.089860107421875,0.6605605887502431,1.434036778062582,-0.7105619063682854
1725631022339813000,2.099813232421875,-0.14599950298573822,1.279882573661208,-0.2890717934131622
1725631022349766100,2.10976611328125,0.35338089171648024,0.3302770795047283,-0.21771175368502735
1725631022359719200,2.11971923828125,0.15976565107498317,0.05931494327783584,-0.5814781380765139
1725631022369672200,2.129672119140625,0.245628994060494,-0.2597761408239603,-0.7571592607617378
1725631022379625200,2.139625244140625,0.5417657939564436,-1.7208377039343117,-0.2672938229776919
1725631022389578200,2.149578125,0.7192214520335197,-1.0391355429559945,-0.2587609724320471
1725631022399531000,2.159531005859375,0.16852409053742884,-0.22812428049743175,-0.05500234077572822
1725631022409484000,2.169484130859375,-0.3062789488017559,-0.8822147964507341,0.37564883762598034
1725631022419437000,2.17943701171875,-0.3970306483507156,-1.423212017187476,1.0903127724856139
1725631022429390000,2.18939013671875,0.23571495482213795,-1.7093062560945749,1.4749261300727725
1725631022439343000,2.199343017578125,0.5110703210392966,-1.7248744121044872,0.9247121681794523
1725631022449296100,2.209296142578125,0.18240305135138332,-1.6115718580514191,0.4741507129102945
1725631022459249200,2.219249267578125,-0.1760550705641508,-1.3051935405284165,0.6146345577470957
1725631022469202200,2.2292021484375,-0.20279106526579707,-0.5739841290593147,0.9192027571082114
1725631022479155200,2.2391552734375,-0.27453531853854657,0.0021411036819219587,0.8293048979096114
1725631022489108200,2.249108154296875,0.31588856173343954,-0.7066963169813155,0.9547180148646235
1725631022499061200,2.259061279296875,0.994249522525072,-0.7140729832291602,0.7401216167211532
1725631022509015300,2.269015380859375,0.7283014150679111,-0.5176309581965208,0.11068652633577584
1725631022518968300,2.27896826171875,-0.1689659525534138,-0.5813999582737683,-0.2535999364070594
1725631022528921000,2.288921142578125,-0.7175824526548386,-0.3140121734023094,-0.2525574416168034
1725631022538874000,2.2988740234375,-0.3845914380162954,-0.19927111097872255,0.3738384272031486
1725631022548827100,2.3088271484375,-0.43247430217564103,0.7088415123164653,-0.5654195682011545
1725631022558780200,2.3187802734375,-1.1540829416066407,1.1265087059825658,-2.096549962185323
1725631022568733200,2.328733154296875,-1.0912626205563545,0.899078252968192,-1.5944748850390313
1725631022578686200,2.338686279296875,-0.34382571238577364,0.6793237414091825,-1.132460453993827
1725631022588639200,2.34863916015625,0.2910030902693048,0.3922942674785852,-0.895559869583696
1725631022598592300,2.35859228515625,-0.16085048716962336,-0.009637596917152404,-0.9414123969592153
1725631022608545300,2.368545166015625,-0.9429998122811317,-1.0534288567245005,-0.7153551319941878
1725631022618498300,2.378498291015625,-0.27475628607915714,-2.0446441261202097,-0.3712307289227843
1725631022628451300,2.388451416015625,0.46426761679947376,-0.7348316936194896,-0.5896322184376418
1725631022638404000,2.398404052734375,-0.3714332657575607,-0.00022328736186027524,-0.7277570790581405
1725631022648357000,2.408357177734375,-1.2197405319094656,-0.573964839836955,-0.7200552725091576
1725631022658310100,2.41831005859375,-1.1921896771609783,-1.044069492226839,-0.5150701677978039
1725631022668263200,2.42826318359375,-0.19313246209323406,-1.1147422803431748,-0.18741861449107527
1725631022678216200,2.43821630859375,-0.10655424883663654,-0.2058615952849388,-0.34643487197086215
1725631022688169200,2.448169189453125,-0.26089725380837914,0.047860652327537535,-0.7397941383324563
1725631022698123300,2.458123291015625,-0.8219985204190016,0.10851415073275565,-0.9539645661488175
1725631022708076300,2.468076171875,-0.8646873230665921,-0.01416296538710594,-0.7821778205536305
1725631022718029300,2.478029296875,-0.6635135933369398,0.07100830368101596,-0.6448037783004343
1725631022727982300,2.487982421875,-0.5715022491157055,-0.29979777008891106,-0.6282222074642777
1725631022737935400,2.497935302734375,-1.3465443725705146,-1.112460891407728,-0.8528926942460239
1725631022747888400,2.507888427734375,-1.7011609435617923,-2.076452638313174,-0.6265789703018962
1725631022757841400,2.51784130859375,-0.8897223956018686,-2.1545167057245966,-0.3480675877392292
1725631022767794200,2.527794189453125,-0.01120586914718151,-0.4011439288884401,-0.5523452748335897
1725631022777747200,2.537747314453125,-0.34483518168926236,0.9757961664676665,-0.8185054176062345
1725631022787700200,2.5477001953125,-1.0927765322506426,0.7188970423847436,-1.0916275083459912
1725631022797653200,2.5576533203125,-1.0888099667072295,-0.7273895609200001,-0.4826658816687762
1725631022807606300,2.567606201171875,-0.838642781227827,-2.5621418133258818,0.5922535799171775
1725631022817559300,2.577559326171875,-1.7145172687411308,-4.902390349498391,2.0313816167041656
1725631022827512300,2.58751220703125,-1.7989222296118734,-2.9817537113189694,-0.17569478588439524
1725631022837465300,2.59746533203125,0.3567974221616983,3.8242052371799944,-1.9133695697858928
1725631022847418400,2.60741845703125,1.586920816397667,5.662490339887142,-0.7652621954575181
1725631022857371400,2.617371337890625,0.46524259931147094,3.4989094532191753,0.15872967735705895
1725631022867324400,2.627324462890625,-0.587836713322997,1.6125257977753877,0.058001157265529034
1725631022877277200,2.637277099609375,-0.9246879105210304,-0.3889531403571367,0.31223025842159985
1725631022887231200,2.647231201171875,-0.16843464042199774,2.0192881510674954,0.7553663859955966
1725631022897184300,2.657184326171875,-0.6573942336738109,3.8321927288025615,1.2724927556708454
1725631022907137300,2.66713720703125,-0.7330009710609913,1.958153591147065,1.660567651888728
1725631022917090300,2.67709033203125,-0.5768050316989421,0.49824470520317554,1.0200796909607945
1725631022927043000,2.68704296875,-0.659527738571167,-0.722350397709012,0.37097105507329103
1725631022936996000,2.69699609375,-0.5701853212982416,-0.1101852988153696,0.0660256929628551
1725631022946949000,2.70694921875,0.36381110031604763,0.6741349405944347,0.009496581011265515
1725631022956902100,2.716902099609375,0.2512655021101236,0.20172727195918558,0.19428879252150655
1725631022966855200,2.726855224609375,-0.33520342999100683,0.1511024156153202,-0.1725445051599294
1725631022976808200,2.73680810546875,-0.6622200463950634,0.16061609389185905,-0.4872693568762392
1725631022986761200,2.74676123046875,-0.12569558715820311,0.28668694410324097,-0.24140553114656357
1725631022996714200,2.75671435546875,-0.1424012227654457,1.4407219549149275,0.08533463380313477
1725631023006667300,2.766667236328125,-0.936732495514676,1.535509778112173,-0.2911872694634832
1725631023016620000,2.7766201171875,-0.8946599250692874,1.9390309575259685,-0.312121829611063
1725631023026573000,2.786572998046875,-0.25383907892517743,2.544081255978346,-0.1299413167028688
1725631023036526000,2.796526123046875,0.2551882285118103,3.153896576875448,0.39062165809124705
1725631023046479000,2.80647900390625,0.7161250934533775,2.611028886091709,1.0625482749864459
1725631023056432000,2.81643212890625,0.5511989543426782,2.2148317659556866,0.8344932603329419
1725631023066385200,2.82638525390625,-0.5888238246642052,1.1556868696719407,-0.15474409658592195
1725631023076339200,2.836339111328125,-0.4105827883630991,-0.9256775060802698,0.2864746165268123
1725631023086292200,2.846292236328125,0.31539047601819037,-3.116695265728235,2.148612157855928
1725631023096245200,2.856245361328125,1.3996563695549964,-3.3976188239991663,2.494141751550138
1725631023106198300,2.8661982421875,0.6665930007822811,-1.6458324395716188,1.7185700512632727
1725631023116151300,2.8761513671875,0.3996962142981589,-1.2091548404872416,1.338701550115645
1725631023126104300,2.886104248046875,0.8864468810625373,-0.45181028628647324,0.9966899744797497
1725631023136057000,2.89605712890625,0.8493851245164871,-0.14649579860270023,0.4582246833734214
1725631023146010000,2.906010009765625,0.9463644664086401,-0.814921713900566,0.5962625963628292
1725631023155963100,2.915963134765625,0.6853823107957839,-1.430153799149394,-0.16404380331821738
1725631023165916200,2.925916259765625,0.891232215642929,-2.3156378265291453,0.7657455950602888
1725631023175869200,2.935869140625,1.2471803274989128,-2.29664261868,0.9101233055304735
1725631023185822200,2.945822265625,1.4088425694428384,-1.9151941548645495,0.9597606121417135
1725631023195775200,2.955775146484375,1.0558927626200019,-1.7117998264759777,0.15183657510876655
1725631023205728000,2.96572802734375,0.7136340072900056,-1.6106535741627215,0.11518727182112634
1725631023215681000,2.975680908203125,0.11214987688660621,-0.576018265235424,-0.02196618648394942
1725631023225634000,2.985634033203125,-0.17514058606773614,0.33470132568776606,0.18132716574817895
1725631023235587000,2.995587158203125,-0.4695306518942117,1.4309300442188977,0.46648726561032233
1725631023245540000,3.0055400390625,-0.5474477120503783,1.6801175710111855,0.12993746251165866
1725631023255493000,3.0154931640625,-0.2006101044975221,1.9327701435655353,0.09927359030917286
1725631023265447200,3.025447265625,0.21876506213024258,2.395416881164908,0.0769000651333481
1725631023275400200,3.035400146484375,0.005753595090657472,2.6686399480611085,-0.24615590401142834
1725631023285353200,3.045353271484375,-0.23620178849101064,1.546397667351365,-0.5690572671163827
1725631023295306200,3.05530615234375,-0.17585107242465017,1.007916228827834,-0.6488344220560044
1725631023305259300,3.06525927734375,-0.2923822331354022,1.0854980656802653,-0.4643159129206091
1725631023315212300,3.07521240234375,0.2847533456921577,1.3327081549197435,-0.2411754852503538
1725631023325165300,3.085165283203125,-0.16848960374593733,1.299762163129449,-0.021119068135321137
1725631023335118000,3.0951181640625,-0.1255064943268895,0.3272194454997778,0.9280203428793699
1725631023345071000,3.105071044921875,0.09542670562267302,-0.11765431952178478,1.2574307956174016
1725631023355024100,3.115024169921875,0.24787892841175196,-0.9562813186585902,1.2965940544873475
1725631023364977200,3.12497705078125,0.13353840961307287,-1.6923843473881481,0.7873677904121578
1725631023374930200,3.13493017578125,0.112847796022892,-2.3667431598663327,0.058103083270043134
1725631023384883200,3.14488330078125,1.317152419999987,-2.59946353598237,0.16689700079225003
1725631023394836200,3.154836181640625,0.6170202838398516,-1.9311264680117368,-0.13071494969017802
1725631023404789200,3.164789306640625,-0.4008697881221771,-1.4920336244791745,-0.7485423121292144
1725631023414742300,3.1747421875,-0.5423597412616015,-1.0659311954230068,-1.05029910733141
1725631023424695300,3.1846953125,-0.010135463436692952,-1.4549749366730451,-0.2840470240537077
1725631023434648300,3.1946484375,0.42570276221409437,-0.5958972701817751,-0.21030052758045492
1725631023444601000,3.20460107421875,-0.4575947149068117,-0.2929991959899664,-0.8815963722914457
1725631023454554000,3.21455419921875,-0.2935636980049312,-0.19467852249145506,-1.1576027862958609
1725631023464508200,3.224508056640625,0.315708163665235,-0.6112479840487242,-0.9450963461689651
1725631023474461200,3.234461181640625,0.8868591151252389,-0.870441356548667,-0.559996958630532
1725631023484414200,3.244414306640625,0.47315059595704073,-0.6215116039097309,-0.6722588445242494
1725631023494367200,3.2543671875,-0.6826091928206384,-0.10144903465211391,-1.5613222647607325
1725631023504320300,3.2643203125,-0.5146953431360424,-0.4294570001810789,-1.9197034489825366
1725631023514273300,3.274273193359375,0.20514087979495524,-0.11673252850174903,-1.6028116284906864
1725631023524226300,3.284226318359375,0.18014453183487056,0.30137890180051324,-1.2980178036801515
1725631023534179300,3.294179443359375,-0.979448843756318,0.07267419106662273,-1.3427313901536166
1725631023544132400,3.30413232421875,-1.5249122501216827,-0.6275187353700399,-1.7006170459434389
1725631023554085400,3.31408544921875,-0.35104382707104087,-0.03239771025776863,-1.4188681427642702
1725631023564038400,3.324038330078125,0.18885156990364194,0.5742518400847911,-0.6175921654436737
1725631023573991200,3.3339912109375,-0.14214447152540086,0.8690496099293231,-0.0669402596576605
1725631023583944200,3.343944091796875,-0.6940523778550326,0.5512625941634178,-0.16415952038606627
1725631023593897200,3.353897216796875,-0.41883273031413554,0.3825800981938839,-0.13353215340222233
1725631023603850200,3.363850341796875,-0.5138298123478889,0.6873205853819847,-0.23859756105374544
1725631023613803300,3.37380322265625,-0.3757971600554883,0.8296931665748357,0.01201064619142562
1725631023623756300,3.38375634765625,-0.3877067935578525,0.8194143491446971,0.6276080210886895
1725631023633709300,3.393709228515625,0.20381693771481513,1.3565367742747068,1.2325449222944675
1725631023643662300,3.403662353515625,0.32146891914904113,1.990733672234416,1.1919593755364417
1725631023653615400,3.413615478515625,-0.6316435602150857,1.6748580430477857,0.8515387954190373
1725631023663568400,3.423568359375,-0.260050866112113,1.5828087049037216,0.45341629671100525
1725631023673522200,3.433522216796875,-0.1505171630732715,0.6319973420888185,0.03615406711660325
1725631023683475200,3.44347509765625,-1.2643212857834993,-0.6193102944731712,-0.3283960880637169
1725631023693428200,3.45342822265625,-1.0719611232370136,-1.407176828187704,-0.6133755706619471
1725631023703381000,3.463381103515625,-0.18092194594815372,-1.1645610810011624,-0.2981942804150283
1725631023713334000,3.473333984375,-0.26850597524642944,-0.5129354938566685,-0.20366371991448104
1725631023723287000,3.483287109375,-0.35677404128611084,-0.3333709538668394,-0.34378011967837807
1725631023733240000,3.493239990234375,-0.6990342579208314,-0.45123511674702166,-0.4587113709118217
1725631023743193000,3.503193115234375,-0.6383358974605798,-1.1858031909942626,-0.13311726159155368
1725631023753146000,3.51314599609375,-0.3974228625386953,-1.1308026037842034,0.01983728469647467
1725631023763099100,3.52309912109375,-0.9389036290086805,-0.8586275846362114,0.0713967184767127
1725631023773052200,3.53305224609375,-0.7025561484366655,-0.7493295900493859,0.252137243443355
1725631023783005200,3.543005126953125,-0.4921546446997672,-0.7718184852331876,0.18878493440821767
1725631023792958200,3.552958251953125,0.246356102758646,-0.8844745580762624,-0.09315444984175264
1725631023802911000,3.562910888671875,-0.009700140759348868,-0.9503039978146552,0.2677732770577073
1725631023812864000,3.572864013671875,0.20691439227350056,-0.2313029105335474,0.44894905163645743
1725631023822817000,3.582817138671875,-0.6207546480625867,0.11779402025341987,0.16008067184090613
1725631023832770000,3.59277001953125,-0.9540734333507717,0.10318214205503463,0.11957812719121574
1725631023842723000,3.60272314453125,-0.24514789601266382,0.057608723881840705,0.5480388098113238
1725631023852676000,3.612676025390625,-0.10919928345270455,0.6034948857039213,0.8420916065074503
1725631023862629000,3.622629150390625,-0.37993162951171394,0.5881710598438978,0.4427599877379834
1725631023872582100,3.63258203125,-0.8028069132149219,0.38422786540091036,0.2991523117922246
1725631023882535200,3.64253515625,-0.13213351125121117,0.24563947892189025,0.021143618054687976
1725631023892489200,3.6524892578125,-1.0616245112050324,-0.07256897712647914,0.15289572877287863
1725631023902442200,3.662442138671875,-1.0286410369485617,-0.4606488417804241,0.002815788073092699
1725631023912395300,3.672395263671875,-0.11660035348944366,-0.9317004196316003,0.10952800395041704
1725631023922348300,3.682348388671875,0.21114391960203646,0.13056231641173363,0.4295921708680689
1725631023932301000,3.692301025390625,-0.2172638272544369,0.5179191274881363,0.30665275055021046
1725631023942254000,3.702254150390625,-0.5145610492318868,0.7322785020053386,0.2387574643231928
1725631023952207000,3.71220703125,0.07243219900429249,1.0266881493151188,0.5276818120896816
1725631023962160000,3.72216015625,0.8224076857417821,2.2284482033759354,0.43614334607720373
1725631023972113200,3.732113037109375,0.7478706964779644,2.728827582520246,0.5298799066558479
1725631023982066200,3.742066162109375,0.7373918994963169,3.1948189543724057,0.49753553402051326
1725631023992019200,3.752019287109375,0.5425076983649283,2.998673281937837,1.0441646231643855
1725631024001972200,3.76197216796875,0.888542830428481,2.449381695586443,0.7096444992624222
1725631024011925200,3.77192529296875,0.16505495312213897,2.620898538199067,-0.04029854651018977
1725631024021878300,3.781878173828125,-1.0868787794489412,1.5952935079455375,-0.09856778012737631
1725631024031831300,3.791831298828125,-0.8360345714908093,0.34285131439566613,-0.6576081686854363
1725631024041784000,3.8017841796875,0.12399236343689263,0.4117401417046785,-0.3887336523875594
1725631024051737000,3.811737060546875,0.4421184018988162,0.6312742885112762,-0.3718773562632501
1725631024061690000,3.821690185546875,0.09320559550710023,0.324691972848773,-0.9630082888260483
1725631024071643100,3.83164306640625,-0.007324570734426379,-0.14296236377954483,-1.0512691944725812
1725631024081596200,3.84159619140625,-0.3049105830579996,-0.36191549582779403,-0.9964389953933656
1725631024091549200,3.851549072265625,-0.4259901277881115,-0.632686493396759,-1.2321411637991666
1725631024101502200,3.861502197265625,-0.546778726747632,-0.7743418662309646,-1.0345241036377846
1725631024111456300,3.871456298828125,-0.0530815653136,-2.674952199947834,-1.6381085673213005
1725631024121409300,3.8814091796875,0.39066761612482365,-0.5190455011695623,-0.5129172275476157
1725631024131362300,3.8913623046875,1.2950164299070834,-1.394060156983137,-1.0955535957485436
1725631024141315300,3.9013154296875,0.5779021792858838,-2.0358190146297215,-1.0292943862907589
1725631024151268400,3.911268310546875,0.5608558039495721,-2.4085177702784537,-0.04534983855038881
1725631024161220600,3.921220703125,0.47713937333226203,-3.410529158976674,-0.2680613002188504
1725631024171173600,3.931173583984375,-0.008297945811226963,-2.4666005414128302,0.9890240429617464
1725631024181126700,3.941126708984375,0.6985866602838039,-3.1343764683693647,1.6256337011516093
1725631024191079700,3.95107958984375,0.6091080494105815,-3.7697055852293966,1.9406452608548104
1725631024201032700,3.96103271484375,1.4326532147496938,-3.4057132831275463,1.7077239553391932
1725631024210985700,3.97098583984375,2.191495898553729,-1.1432780544757843,1.2841310248859226
1725631024220938800,3.980938720703125,0.5328863219302147,0.11622983967661857,0.9161920309849083
1725631024230891800,3.990891845703125,-0.8555968386381864,-0.02429097616970539,0.5957990705043077
1725631024240844800,4.0008447265625,-0.5255735146988183,-0.7913993840157986,0.5897520454250276
1725631024250797600,4.010797607421875,-0.5737620107412338,0.04607961412966251,0.7477198167651892
1725631024260750600,4.02075048828125,-0.960931190291047,0.04422258808612823,0.598497223547101
1725631024270703600,4.03070361328125,-0.5906119501899928,0.0729582687050104,-0.16443360635340212
1725631024280656600,4.04065673828125,-0.39405835454165933,0.15361235260963438,-0.48079643453508614
1725631024290609700,4.050609619140625,-0.49634910071492194,0.2904378210693598,-1.1157216467693447
1725631024300562700,4.060562744140625,-1.4135539620041846,0.7473153276175261,-1.4285707677416501
1725631024310516500,4.0705166015625,-1.1285960336506367,0.058872460207343096,-0.8335087793402374
1725631024320469500,4.080469482421875,0.1246247430562973,-0.10104922167956829,-0.4023500898078084
1725631024330422500,4.090422607421875,0.015399813705682754,0.43236324301660056,-0.5294838930755853
1725631024340375600,4.10037548828125,-1.2284896555542946,0.9571908347189426,-0.4096055408287793
1725631024350328600,4.11032861328125,-1.5824299347192048,0.19628245055675506,-0.3575871842999011
1725631024360281600,4.120281494140625,-1.161993860861659,0.1428022047817707,-0.42754809781983494
1725631024370234600,4.130234619140625,-1.0178612842589616,0.6808382376253604,-0.12769720930419862
1725631024380187400,4.1401875,-0.9043278440594673,1.310750590133667,0.023798881803825497
1725631024390140400,4.150140380859375,-0.9474560610376298,1.0081997219443322,-0.00847344850860536
1725631024400093400,4.160093505859375,-0.41781281268186865,0.6430436367601156,-0.14297156999930738
1725631024410046500,4.17004638671875,-0.8788566451292484,1.1533107881903648,-0.660801411768794
1725631024419999500,4.17999951171875,-1.223598960903287,1.2278624635666608,-1.2783841517969965
1725631024429952500,4.189952392578125,-0.8248275332998484,1.2514753943443298,-1.6976131879523395
1725631024439905500,4.199905517578125,-0.08310914890654385,0.7313339146316051,-1.3697795560769737
1725631024449858600,4.209858642578125,-0.26532040401287377,1.7298241434663533,-1.016849111541733
1725631024459811600,4.2198115234375,-1.8261738091528414,2.2972107739567753,-0.8479257925536483
1725631024469764600,4.2297646484375,-2.0548960555434226,1.3493430633783339,-0.33986586884409187
1725631024479717600,4.239717529296875,-1.6579373033851383,0.30592882018983364,0.08302059384025633
1725631024489670400,4.24967041015625,-0.6489519840210676,-0.6034492929965257,-0.33799379136189817
1725631024499624700,4.259624755859375,-0.4068950397610664,-1.1502777041047811,-0.5273822446212172
1725631024509577500,4.269577392578125,0.14138941537439823,-1.4353057750850915,-0.47916116148345167
1725631024519530500,4.279530517578125,-0.07243278352618217,-0.738245885977149,-0.20659436653889715
1725631024529483500,4.2894833984375,-0.756320983306691,-0.5501163467377423,0.3203297590512782
1725631024539436500,4.2994365234375,-0.3126120973460376,-0.9409306047916411,0.9727453275296837
1725631024549389600,4.3093896484375,0.1012106958515942,-1.1817863565683364,1.06069417155236
1725631024559342600,4.319342529296875,-0.7883392657928169,-1.2776590523928404,0.9530576073717325
1725631024569295600,4.329295654296875,-0.7458021465755998,-1.0414449889421462,0.8448620941340923
1725631024579248600,4.33924853515625,-0.12671806207373737,-0.8156488591313361,0.7980238436568527
1725631024589201700,4.34920166015625,1.3856851273477078,0.17177870841920376,0.9171400524247437
1725631024599154700,4.35915478515625,1.2120652480412273,0.920617300081253,1.0030614822730421
1725631024609107700,4.369107666015625,-0.1240658670645207,1.3214210372298956,0.12402652143482118
1725631024619060500,4.379060546875,-1.0700888265591113,0.6127192256450653,-0.28526597138941284
1725631024629013500,4.389013427734375,-0.831749441517517,0.3789350196897983,-0.3166697752390057
1725631024638966500,4.398966552734375,-0.21873057533875107,0.9890162980467081,0.15040351009834557
1725631024648919600,4.40891943359375,-0.48476270781755443,1.8763181885033844,0.32309235563240946
1725631024658872600,4.41887255859375,-0.2623180803917348,1.456523335158825,0.30789467690270395
1725631024668826600,4.42882666015625,0.2573153036683798,1.4010995541006326,0.49675841216817496
1725631024678779600,4.438779541015625,-0.33728958861529823,1.010594508126378,0.1659233699871227
1725631024688732700,4.448732666015625,-0.9911918885201215,-0.39028468122184273,-0.610873305517435
1725631024698685700,4.458685791015625,0.2184001743406057,-1.2800883253663777,-0.46997138139903544
1725631024708638700,4.468638671875,1.0338169782817364,-0.27551030105054375,0.3953058338521048
1725631024718591700,4.478591796875,0.32306524842977524,-0.04946867204606533,0.02535039926187601
1725631024728544800,4.488544677734375,-0.031171529463678595,-0.7863549601078033,-0.1469871897156816
1725631024738497800,4.498497802734375,0.7424177648343145,-1.081211182141304,-0.11718536856947466
1725631024748450600,4.508450439453125,0.48132396554052825,-0.8463660689562559,-0.1841955790576525
1725631024758403600,4.518403564453125,0.5506435854822397,-0.522695840370655,-0.43185259008072313
1725631024768356600,4.528356689453125,0.4450293939746916,-0.2107148805350065,-0.633487434516102
1725631024778309600,4.5383095703125,0.4372100985258817,-0.2769119845420122,-0.8895474774263799
1725631024788262700,4.5482626953125,0.5398235007822513,-0.00452653751373291,-0.9278240165896713
1725631024798215700,4.558215576171875,-0.3870790170483291,0.558468580019474,-1.2412424618825315
1725631024808168700,4.568168701171875,-0.4352490275859833,0.630112843516469,-1.4397145314380526
1725631024818121700,4.578121826171875,0.49035365969240663,0.5035170926481485,-0.8861061778660864
1725631024828074800,4.58807470703125,0.14017960119321943,0.8676970262765884,-0.9529843229398131
1725631024838028500,4.598028564453125,-0.4932892747528851,0.5533657039225102,-0.846564002681151
1725631024847981600,4.607981689453125,0.1388482064589858,-0.2670522693067789,-0.20169512325525282
1725631024857934600,4.6179345703125,0.7154337501883506,-0.44490006850659847,0.26401677406840024
1725631024867887600,4.6278876953125,0.6832011673644185,-0.8341273496299981,0.3062289721801877
1725631024877840600,4.637840576171875,0.9300818785190582,-1.624151938161254,0.513007097788155
1725631024887793700,4.647793701171875,1.4126019219763577,-1.7901479715257882,0.8133890244405716
1725631024897746700,4.65774658203125,0.9425019457615912,-1.1846586971342563,0.6631267859764397
1725631024907699700,4.66769970703125,0.562813915747404,-1.556159182909131,0.02789623412005603
1725631024917652500,4.677652587890625,0.6910926512666046,-1.8727099348783491,-0.24330372945070267
1725631024927605500,4.68760546875,0.8563470724835991,-1.083280974152684,-0.6059778616260737
1725631024937558500,4.69755859375,1.0071259552329779,-0.4945978731334209,-0.8490822691123933
1725631024947511600,4.707511474609375,1.0157570054560898,-0.29391864892244335,-0.680220178792253
1725631024957464600,4.717464599609375,0.5490887572556734,-0.13964754014313221,-0.5832683094289154
1725631024967417600,4.72741748046875,0.6296820508837699,-0.5445885232269764,-0.3730330291043967
1725631024977370600,4.73737060546875,0.15761954242438078,-0.38714579867422577,-0.17997173255123197
1725631024987323600,4.74732373046875,-0.08446268240734935,-0.30827099940180774,-0.20405513038486242
1725631024997276700,4.757276611328125,0.16681158753111958,-0.031181904727220534,0.14477832716032862
1725631025007229400,4.7672294921875,-0.21130583216547966,0.16770517536997795,0.07268792733103037
1725631025017183500,4.77718359375,-0.3719850544214248,0.7207692659974098,-0.21448504672348498
1725631025027136500,4.787136474609375,-0.3119984954923391,0.9508972875326871,0.13481266733258962
1725631025037089500,4.797089599609375,-0.3662741294287145,1.2705366531670093,0.5922361903909593
1725631025047042600,4.80704248046875,-0.7629150478094816,1.024063646030426,0.4800578180622309
1725631025056995600,4.81699560546875,-0.6322282282352447,0.3989449575394392,0.730686848899722
1725631025066948600,4.826948486328125,-0.019936288091540334,-0.31438509836792944,1.1352158901818097
1725631025076901600,4.836901611328125,-0.015402736315131187,-0.2699585121423006,1.1278555174816398
1725631025086854700,4.846854736328125,-0.6083353114724159,-0.16684125201702116,0.5866861550483853
1725631025096807700,4.8568076171875,-0.400338457724452,-0.6104547878444194,0.7886321112595498
1725631025106760400,4.866760498046875,0.09368833752274512,-0.569600799408555,1.1220056224096566
1725631025116713500,4.87671337890625,-0.010157090746611357,0.12141864049136637,0.961575114217773
1725631025126666500,4.88666650390625,-0.19390666133612394,0.6957078899770974,0.5528023709513247
1725631025136619500,4.89661962890625,-0.09398030620664358,0.6896446444153785,0.3272599601732567
1725631025146572500,4.906572509765625,-0.09371960944384336,0.4673036234945059,0.25195162121076137
1725631025156525600,4.916525634765625,0.5072616860039532,0.30533260786235333,0.4176611657841131
1725631025166479000,4.92647900390625,-0.2471643504016101,0.5389280132472515,0.2753750572983175
1725631025176432000,4.93643212890625,-0.4044289419084787,0.041246202623844146,-0.09431361154792829
1725631025186386200,4.94638623046875,-0.0021159692406654356,-0.49870530845224853,-0.1538188714997843
1725631025196339200,4.956339111328125,0.5195649949990213,-0.5847609591394662,0.26713138069128617
1725631025206292200,4.966292236328125,0.2282043599963188,0.20306173543334005,-0.030309834600426255
1725631025216245000,4.976244873046875,0.4930274089463055,0.1631891592502594,-0.5212378966473042
1725631025226198000,4.986197998046875,0.7122925295531749,-0.05985153437256813,-0.28117026304099707
1725631025236151000,4.996151123046875,0.30533947599455713,-0.07228431496620177,-0.36994638820067044
1725631025246104000,5.00610400390625,-0.23192776443362234,-0.6599965251266956,-0.841199772234261
1725631025256057000,5.01605712890625,0.4828045594871044,-1.6136673690259455,-0.5043809429358691
1725631025266010000,5.026010009765625,0.2778464889131486,-1.386387722659111,-0.3680173198342323
1725631025275963100,5.035963134765625,-0.4598813645392656,-1.1374211451411247,-0.838231058621779
1725631025285916200,5.045916259765625,-0.7326942431993783,-1.3761118278384208,-0.9560438566409051
1725631025295869200,5.055869140625,-0.26491408823430534,-1.208703005066514,-0.9492039276182651
1725631025305822200,5.065822265625,-0.4806704700678587,-0.41082302685976024,-1.2170673671774566
1725631025315775000,5.07577490234375,-0.44430517135336994,0.35144963139295576,-1.1236340273290872
1725631025325728000,5.08572802734375,-0.4671135808151215,1.0348632724642752,-1.034246674935892
1725631025335681000,5.095680908203125,-0.4468990603040904,1.1018640940696,-0.7904837304756045
1725631025345634000,5.105634033203125,-0.8276227169763296,1.4370178396999835,-0.7507315658017992
1725631025355587000,5.115587158203125,-1.263185121360421,1.4949673398435115,-0.7893340489838272
1725631025365540000,5.1255400390625,-0.8752163158655166,0.9679162268728018,-0.6526073647234588
1725631025375494000,5.135493896484375,0.0592775338768959,0.901433876183629,0.004099398142844438
1725631025385447000,5.145447021484375,-0.04410677968673408,1.6995318810552358,0.4433290197975933
1725631025395400000,5.15539990234375,-0.4585216935586184,1.0396399853467941,0.3616289339713752
1725631025405353000,5.16535302734375,0.039712490250542756,0.5842021562129259,0.4464558465812355
1725631025415306000,5.175305908203125,0.12293657077364623,-0.17837679150998592,0.1570269102934748
1725631025425259000,5.185259033203125,-0.553446441008523,-0.761302936437726,-0.08526932261511683
1725631025435212000,5.1952119140625,-0.37403197701387103,-1.0509323637336492,-0.16826945818923414
1725631025445164800,5.205164794921875,-0.24979535649232565,-0.6693664110183716,-0.3751793934833258
1725631025455117800,5.215117919921875,-0.5128607481200248,-0.15574001228809356,-0.23162819696515796
1725631025465070800,5.22507080078125,-0.06156191848702729,-0.26791210100650786,-0.1564950684390962
1725631025475024000,5.23502392578125,0.691497578805685,0.2808826417386532,0.24520474076643584
1725631025484977000,5.244976806640625,0.6588199556279927,0.7692991958886385,0.1537759456735104
1725631025494930000,5.254929931640625,0.06430982895568013,0.8627578163087367,0.07442220377773046
1725631025504883000,5.264883056640625,-0.5196352106910198,-0.04135667726099491,-0.2229453434895724
1725631025514836000,5.2748359375,-0.6768366007685661,-0.7820861967474222,0.16771949615627527
1725631025524789000,5.2847890625,0.126018900828436,-0.8684440452516079,0.3791410636559129
1725631025534742000,5.294741943359375,-0.27767938871793446,0.4383797268271446,0.7225549803704023
1725631025544695000,5.304695068359375,-0.408639180014655,0.7418085468947887,0.5508185036577284
1725631025554649000,5.314649169921875,0.1541430984854698,0.4242214376151561,0.1649478394858539
1725631025564602000,5.32460205078125,0.39375272265858946,0.8603817348271607,-0.10764321311712265
1725631025574555000,5.334554931640625,-0.19735797083377837,1.238112054902315,-0.20577888543754816
1725631025584508000,5.3445078125,0.13128361642360686,1.160570550060272,-0.2776141414619982
1725631025594461000,5.3544609375,0.1634066013932228,1.25626788931787,-0.05513648854941129
1725631025604414000,5.3644140625,-0.32260164950601755,0.2193991222500801,-0.0667791416786611
1725631025614367000,5.374366943359375,0.3493524399179965,-0.6699561936050653,0.01270882105603814
1725631025624320000,5.384320068359375,0.33720724409408864,-0.4842892450869083,0.016381810480356217
1725631025634273000,5.39427294921875,-0.0012625672817230223,-0.6998895595759153,-0.1228850597821176
1725631025644226000,5.40422607421875,0.32533501999266445,-1.3254606680095196,0.22559549267217516
1725631025654179000,5.414178955078125,1.1757184348315,-0.37471184903681276,0.5646009452946483
1725631025664132000,5.424132080078125,1.117618128040433,0.04447977771759033,0.4906013508431613
1725631025674085000,5.434085205078125,0.6356961966067552,0.2197556806027889,0.2929042111828923
1725631025684038000,5.444037841796875,0.16786131577976046,-0.41056233009696,0.08554068690240382
1725631025693991000,5.453990966796875,0.3667705346435308,-0.5938391686081886,-0.286767023602128
1725631025703944000,5.46394384765625,-0.32398411684036255,0.63566872407794,-0.3226090290948748
1725631025713897000,5.47389697265625,-0.677938351465389,0.24170681564807892,-0.01403597800657153
1725631025723850000,5.48385009765625,0.11835106961429119,-0.4513064284175634,0.06943316331878303
1725631025733803000,5.493802978515625,0.5334966358482838,-0.6848609172701835,-0.07566840444654226
1725631025743757000,5.503757080078125,-0.12017419338822365,-0.07420213128626346,-0.29656141851618883
1725631025753710000,5.5137099609375,-0.04448379630558193,-0.19596271708309648,-0.235416921723634
1725631025763663000,5.5236630859375,0.6756764709480106,-0.4049976817071438,0.2777010890930891
1725631025773616000,5.5336162109375,1.0562421605795622,-0.3588946867018938,0.486361302120611
1725631025783569200,5.543569091796875,1.4517758483707903,-0.40391339360177514,0.19162885259725151
1725631025793522200,5.553522216796875,0.5957452214252204,1.0030097520858048,-0.24361959046684203
1725631025803475200,5.56347509765625,-0.7229536973644047,1.2314449982285498,-0.5828164740081876
1725631025813428000,5.573427978515625,-0.4925433517564088,1.027622215294838,-0.18287191097214817
1725631025823381000,5.583381103515625,0.6573826893664896,1.917112555706501,0.7034564582772552
1725631025833334000,5.593333984375,0.5446108081240206,3.4282717364162205,0.9741520525224506
1725631025843287000,5.603287109375,-1.0167746580660342,2.6132056456089017,0.46556598604694005
1725631025853240000,5.613239990234375,-1.2342699925214051,1.230999008026719,-0.07171849777698516
1725631025863193000,5.623193115234375,-0.7081324141990393,0.1164595567792654,-0.9171437787517904
1725631025873146000,5.63314599609375,-1.8401690167576072,-0.6976993560552597,-2.2038465538218617
1725631025883099100,5.64309912109375,-2.1710405550241467,-2.1666788526833054,-2.138932475362718
1725631025893052200,5.65305224609375,0.04889233346283436,-2.535080203399062,-0.9046752692576497
1725631025903005200,5.663005126953125,0.6706068395335227,-1.6248709000855683,-0.18803228941000996
1725631025912958200,5.672958251953125,-0.36750805513784285,-1.4400146834284067,-0.0010747165594249962
1725631025922911000,5.682910888671875,-0.15095913468711078,-2.384947509598732,0.6076158380914479
1725631025932864000,5.692864013671875,0.9463380167931318,-2.4451304678827523,1.3452606163702905
1725631025942818000,5.702818115234375,0.7965298057068139,-1.3704688535153866,1.3077085920892655
1725631025952771000,5.71277099609375,-0.06437339571118354,-1.1927017183363438,0.9330150093615055
1725631025962724000,5.72272412109375,-0.5700555574387312,-1.3871446785062551,0.5572938371516764
1725631025972677000,5.732677001953125,-0.6688005938291549,-1.1669476838767527,0.7689055203959345
1725631025982630000,5.7426298828125,-1.3806915568441152,-0.3841472013801336,0.8668694894112646
1725631025992583000,5.7525830078125,-0.8212053242146968,-0.372997446334362,0.6683223087929189
1725631026002536000,5.762535888671875,0.2718845117688179,0.0434615405857563,-0.0687193159610033
1725631026012489000,5.772489013671875,-0.46009588407278057,1.2731769385427236,-0.8846417313367128
1725631026022442000,5.78244189453125,-1.5135089587062596,1.468332430896163,-1.1976229542560874
1725631026032395000,5.79239501953125,-1.6091835016101599,0.9663701664745807,-1.2047181732140482
1725631026042348000,5.80234814453125,-1.603244759210944,0.07572013463377952,-1.5228550253309308
1725631026052301000,5.812301025390625,-2.0983920829206704,-0.6798819598138331,-1.4863224072255192
1725631026062254000,5.822254150390625,-1.3130366552442312,-1.0335650493472814,-0.4937596687436104
1725631026072206800,5.832206787109375,-1.3646635282374917,-0.14050269566774368,0.388328724848479
1725631026082159900,5.842159912109375,-1.5021704030901193,0.05515957716405391,0.9527543135762214
1725631026092113000,5.85211279296875,0.41779388878569007,0.046829555714130396,1.3692235296294093
1725631026102066000,5.86206591796875,0.25259704297482966,0.9369242917597294,1.6109152938388287
1725631026112019000,5.87201904296875,-0.12263313084766268,1.5421967085301875,0.7177915653608739
1725631026121973000,5.881972900390625,-0.497691747495532,1.3341034086704253,-0.034191242611035705
1725631026131926000,5.891926025390625,0.856886293926835,1.2380343134909868,0.017278677121689543
1725631026141879000,5.901879150390625,-0.6607914748966693,2.6702497213453054,-0.20646663023969158
1725631026151832000,5.91183203125,-2.8042069408923385,2.908126749572158,-1.185902778911218
1725631026161784800,5.921784912109375,-1.8070410925291478,2.2997055133819577,-0.17044187032487243
1725631026171737600,5.931737548828125,0.05672346547991037,3.0531635815382003,1.1542154819451271
1725631026181690600,5.941690673828125,-1.2956301778912545,3.8288714754253625,0.042342765688896174
1725631026191643600,5.9516435546875,-2.641584767875075,2.4383920995384454,-1.3084233162298797
1725631026201596700,5.9615966796875,-0.41942251290082927,1.0038438648223877,-0.9066513185709715
1725631026211549700,5.9715498046875,0.7153000408060848,0.6149480076104402,-0.5064344413995743
1725631026221502700,5.981502685546875,-0.04006254579722881,-0.22664134846329687,-0.22592742804028093
1725631026231455700,5.991455810546875,1.1560394825018943,-1.8428391127496957,0.8950725244581699
1725631026241408800,6.00140869140625,1.0569032548367976,-1.769864477431774,1.9178540217235682
1725631026251361800,6.01136181640625,-0.0809101044923067,-1.5930273165792226,1.6940569567754864
1725631026261314800,6.021314697265625,0.4223714258342981,-2.0219751981943843,1.6651494267210363
1725631026271267800,6.031267822265625,1.1891659454256296,-1.5575357319593428,1.8798864023789763
1725631026281222000,6.041221923828125,0.7334989837110042,-1.0201578707635401,1.5678598498359322
1725631026291175000,6.0511748046875,0.4470703982830047,-1.1122656610965729,1.7123327643088995
1725631026301127700,6.061127685546875,0.787176213362813,-1.077835568228364,1.8628442282937465
1725631026311080700,6.071080810546875,1.249775166297704,-0.8269950135320424,2.3311853781424463
1725631026321033700,6.08103369140625,0.5426410424210131,-0.7407078921765089,1.6297531191691754
1725631026330986800,6.09098681640625,0.2988473374962807,-1.572578402790427,1.4551923788160084
1725631026340939800,6.100939697265625,1.2250783858060836,-1.9541443555057048,1.855817690657824
1725631026350892800,6.110892822265625,0.3600342121258378,-2.003164114740491,1.1636832752533257
1725631026360845800,6.120845703125,0.20984832683354615,-1.9754484248191118,0.7192725976988673
1725631026370798800,6.130798828125,1.3941737003602086,-1.5151894591391086,0.7411081435404717
1725631026380752000,6.140751953125,2.0655127266258,-0.9105079939991235,0.5042367852248251
1725631026390705000,6.150704833984375,1.1555227651514113,-1.061926635956764,0.10366334970071911
1725631026400658000,6.160657958984375,0.9328338075757027,-1.1434475658237933,-0.009112696260213852
1725631026410610700,6.170610595703125,0.5980784136131405,-1.0142840102940798,0.09250789556652307
1725631026420563700,6.180563720703125,0.23092881652414798,-0.4234843555122614,-0.5234498736083507
1725631026430516700,6.190516845703125,0.15670213531851768,0.13158172258734702,-1.0063261831574142
1725631026440469800,6.2004697265625,0.3042928895510733,1.1179606578677892,-0.8627404267825186
1725631026450423800,6.210423828125,0.13203238896429537,1.8565689474165439,-0.5360049654074013
1725631026460376800,6.220376953125,-0.17853168981075285,2.038559253248572,-0.5702773834958672
1725631026470329900,6.230329833984375,-0.5785238183155655,1.4587024327635765,-0.6128400755457579
1725631026480283000,6.240282958984375,-0.518820460242033,0.4345177907019853,-0.0695287326477468
1725631026490236000,6.25023583984375,-0.4150283695951104,-0.3390571828097105,-0.2074060482479632
1725631026500189000,6.26018896484375,-0.1363794782578945,-0.7842378218233584,-0.12456044564843177
1725631026510142000,6.270141845703125,0.09472001865804194,-0.5842611929237842,-0.24668643069155513
1725631026520095000,6.280094970703125,0.4868161332160234,-0.27019115185439585,-0.3248009131159633
1725631026530048000,6.290048095703125,0.40628655247390266,0.566801524078846,0.029094284798204896
1725631026540000800,6.300000732421875,-0.104748076197505,1.0276309831231831,0.2240174297004938
1725631026549953800,6.309953857421875,-0.7377756381168961,1.1311088932543993,0.09716163965649902
1725631026559906800,6.31990673828125,-1.0117346180722118,0.4437649269968271,-0.09370864965841173
1725631026569859800,6.32985986328125,-0.5737909445747733,-0.09907821386754512,-0.1043808503203094
1725631026579812900,6.339812744140625,-0.20094518167078493,0.33105507813990115,-0.017175225880369543
1725631026589766000,6.349765869140625,-0.18809329888224602,0.3427612980246544,-0.3744276983331889
1725631026599719700,6.3597197265625,0.2544058459624648,-0.1534557007431984,-0.42750820420086383
1725631026609672700,6.369672607421875,0.9101225018128752,-0.6455927367210388,0.13967954271659255
1725631026619625700,6.379625732421875,0.34461043302267785,-0.4591360991299152,0.13993475958667695
1725631026629578800,6.389578857421875,-0.00772854842543602,-1.0190402649104595,-0.17541377698592842
1725631026639531800,6.39953173828125,0.7879618107825517,-1.5532412496358154,0.08747077818214893
1725631026649484800,6.40948486328125,0.6327718335926532,-1.447343418881297,0.4450745482906699
1725631026659437800,6.419437744140625,0.4358383717812597,-1.6000363185584545,0.5443589522548019
1725631026669390600,6.429390625,0.013684241959452628,-1.5800971078574657,0.3731546827226877
1725631026679343600,6.439343505859375,-0.11298998097255826,-1.9301164141863583,0.22948351308666168
1725631026689296600,6.449296630859375,-0.2683060687601566,-1.6405495307326317,0.2729727453969419
1725631026699249700,6.459249755859375,-0.4098439526945352,-1.0741063185721635,0.07396028535440563
1725631026709202700,6.46920263671875,-0.805844673475623,-0.4579781612664461,-0.30416710774693634
1725631026719155700,6.47915576171875,-0.5469406393110752,0.03517418923377991,-0.13980223751449958
1725631026729108700,6.489108642578125,-0.6715653093021363,0.5255705190241337,0.1538340508026071
1725631026739061800,6.499061767578125,-0.49169981360435483,0.5749953519284725,0.21326003497317433
1725631026749014800,6.509014892578125,-0.27967925729826093,1.0313795220017432,0.09400268243523315
1725631026758968800,6.51896875,-1.2598225130595266,1.854123892351985,-0.3148371164517477
1725631026768921900,6.528921875,-1.595417426586151,1.734276446700096,-0.5719684053227305
1725631026778875000,6.538875,-1.2433131306767462,1.3461264394193886,-0.2843096205126494
1725631026788828000,6.548827880859375,-0.8781002007387578,1.6494938846886158,-0.2717431305367499
1725631026798780700,6.55878076171875,-0.6536907029807567,2.129732977601886,-0.06533993918839842
1725631026808733700,6.568733642578125,0.3623153818655759,2.2518641502767798,0.4712697871791199
1725631026818686700,6.578686767578125,0.7506576237827539,2.0637696823507548,0.7504976109154522
1725631026828639700,6.5886396484375,0.07696224364936351,2.136650209644437,0.4386481319723651
1725631026838592800,6.5985927734375,-0.8661999926518649,1.5311504138588905,-0.16433865807894615
1725631026848545800,6.6085458984375,-0.480731917931512,0.546349687680602,-0.6003842428700998
1725631026858498800,6.618498779296875,0.45574002695083615,0.5868342582821846,-0.1890059567477554
1725631026868451800,6.628451904296875,0.37208157359845934,1.5294441944628954,0.19650727228857576
1725631026878404900,6.63840478515625,-0.3195755796831101,1.483172272631526,0.13985972158908844
1725631026888358000,6.64835791015625,-0.40676366846635936,0.5349018264710903,0.051450201252102847
1725631026898311000,6.658310791015625,-0.52747956751585,-0.8082114026069641,-0.5835243300165981
1725631026908263700,6.668263671875,-0.9034598290532827,-1.5325807389229535,-0.7841117112256586
1725631026918218000,6.678218017578125,-0.5192284565210342,-1.8149802149653433,-0.383427508803457
1725631026928170800,6.688170654296875,-0.15344744437150656,-1.9748060352623462,-0.24266323959007857
1725631026938123800,6.698123779296875,0.4935556706041097,-1.8771090466201303,-0.45846981724090874
1725631026948076800,6.708076904296875,0.444535326847434,-1.2741753019303084,-0.5376579202461987
1725631026958029800,6.71802978515625,0.05432962914593518,-1.3639783224523068,-0.7690944670967758
1725631026967982800,6.72798291015625,0.43084063655920324,-1.8218875101357697,-0.7998209562066942
1725631026977936000,6.737935791015625,0.7237409752845764,-1.5881968276828526,-0.48149449980184433
1725631026987889000,6.747888916015625,0.18241883344240487,-1.7821897059977054,-1.0003863447796553
1725631026997842000,6.757842041015625,0.26603125569596886,-1.7228712555885315,-0.7197030980706215
1725631027007795000,6.767794921875,0.9684047410421073,-1.606490024742484,-0.9089768389090895
1725631027017748000,6.777748046875,0.7295459352362901,-0.949640565469861,-0.6914394919428974
1725631027027701000,6.787700927734375,0.7676024749733508,-0.24290274743437765,-0.42816191886924204
1725631027037653800,6.79765380859375,0.6600894641071557,0.1391997963756323,-0.6591807517644017
1725631027047606800,6.807606689453125,0.44058103626370426,0.3277104438871145,-0.3762415428221226
1725631027057559800,6.817559814453125,0.2768780822724104,0.26766893990039825,-0.21973047309629617
1725631027067512800,6.827512939453125,-0.40085393296591937,-0.2533452309936285,-0.4550541635785252
1725631027077466600,6.837466552734375,-0.5769716204375028,-1.4383943887501953,-0.7064308709781616
1725631027087419600,6.847419677734375,0.690610712968558,-1.308333592119813,-0.272486203989014
1725631027097372700,6.85737255859375,0.426329223549366,0.4295908556938171,-0.29384419544674456
1725631027107325700,6.86732568359375,-0.18689605192169545,1.058247070661187,-0.3984428532361984
1725631027117278700,6.87727880859375,0.06273205824494361,1.408609491339326,-0.02798924616575241
1725631027127231700,6.887231689453125,0.1625749728746712,2.5110335573792457,0.03252937381342053
1725631027137184800,6.897184814453125,-0.44527518542930483,3.0792391030371187,0.04656768990755081
1725631027147137800,6.9071376953125,-0.4345359108805656,3.1432465880453586,0.29478191468827425
1725631027157090800,6.9170908203125,-1.0583072764158248,3.639842356997728,0.4270254621852189
1725631027167043300,6.927043212890625,-1.3310107033520937,3.048033232912421,0.4718379789885133
1725631027176996400,6.936996337890625,-0.08934300179481505,2.5130776304274796,0.7062297954481095
1725631027186950100,6.9469501953125,0.5533339936099946,3.0633927146077156,1.1942522357139735
1725631027196903200,6.956903076171875,-0.11346899666115641,3.423492685446143,1.5647262279853225
1725631027206856200,6.966856201171875,-0.4064716997824609,2.2120400894105434,1.436050748233497
1725631027216809200,6.976809326171875,-0.2672941152386367,0.8730179290384054,1.3947493082910776
1725631027226762200,6.98676220703125,0.4616887062221765,-0.06871697787344455,0.8974158727139234
1725631027236715300,6.99671533203125,0.07154489477574826,-0.41011283276379107,-0.2651593682322651
1725631027246668300,7.006668212890625,-0.29982758070528504,-0.8445786010175943,-0.5723399420488625
1725631027256621300,7.016621337890625,-0.032050065863877535,-1.2197107212930918,-0.29798867484033104
1725631027266574000,7.026573974609375,-0.053015550872683524,-1.458151228621602,0.01124934296272695
1725631027276527000,7.036527099609375,0.5774151264213025,-1.6241501845955848,0.4965701961196959
1725631027286480100,7.046480224609375,0.21193550837114453,-1.1282125872910023,0.9159324302006512
1725631027296433200,7.05643310546875,0.27546514673456546,-1.5258891323298216,1.1818330452542751
1725631027306386200,7.06638623046875,0.2680758402008563,-1.6414117005199194,0.8790350704360753
1725631027316339200,7.076339111328125,0.5889705396585166,-2.392624035575986,0.7383943545371293
1725631027326292200,7.086292236328125,0.8429464697711169,-2.32680044105649,0.7843895052537322
1725631027336246300,7.096246337890625,-0.1510403832297772,-1.2344874346643686,0.6482144635267555
1725631027346199300,7.10619921875,-0.4665436719726771,-1.017739119184017,0.6568417143575846
1725631027356152300,7.11615234375,-0.3503185815364122,-0.8389192600816487,0.8057610868453979
1725631027366105300,7.126105224609375,-0.16184358986020086,-0.21149171012639997,0.6665959964569658
1725631027376058400,7.136058349609375,-0.31335224818885327,-0.026953473377227782,0.6844104700889438
1725631027386011400,7.146011474609375,0.03819039524979889,0.02219604971706867,0.36032084704749284
1725631027395964200,7.155964111328125,-0.28991715819612146,0.09976794969737529,0.10250197777114808
1725631027405917200,7.165917236328125,-0.600324365909025,-0.17771569725275038,-0.24397329927533865
1725631027415870200,7.1758701171875,-0.2516150462001562,-0.12572948942780493,-0.5232887647625059
1725631027425823200,7.1858232421875,-1.0064460832100361,0.6528051523178815,-0.7298514940541238
1725631027435776300,7.1957763671875,-1.1243757125418632,0.5582768568396568,-0.6848743612736463
1725631027445729300,7.205729248046875,0.11841719365306198,1.2826479467213152,-0.3485322095762938
1725631027455682300,7.215682373046875,-0.08006547036170959,1.9530577293127773,-0.4659203889751807
1725631027465635300,7.22563525390625,-0.3866832226637751,1.8291209685206413,-0.7765878185268491
1725631027475588400,7.23558837890625,-0.8945848870716988,0.9167512723028659,-1.0949003925368188
1725631027485541400,7.245541259765625,-0.2827789768792689,-0.2710913155645132,-1.1868022119689732
1725631027495495400,7.255495361328125,-0.010192162059992552,-0.2664420284539461,-0.6999003732308745
1725631027505448400,7.265448486328125,-0.3677338267177343,0.16474691008627415,-0.5787286201726645
1725631027515401500,7.2754013671875,-0.5030952139742673,0.45482525019347664,-0.32982652272563423
1725631027525354200,7.285354248046875,0.3398537400148809,0.3271773599237203,0.2888208325930871
1725631027535307300,7.295307373046875,0.34228067490085956,0.8810007444858551,0.5385440919635817
1725631027545260300,7.30526025390625,-0.0852488643489778,0.7486041983842849,0.5114602702049538
1725631027555213300,7.31521337890625,-0.0574824671536684,0.5097381591200828,0.40829803842678664
1725631027565166300,7.325166259765625,-0.02780044559538364,-0.21576398061811922,0.44979310124516486
1725631027575119400,7.335119384765625,0.706337420541048,-0.7389344527631998,0.8062042275030166
1725631027585072400,7.345072265625,0.0807967072457075,-0.48778351694345473,0.4434868041751906
1725631027595025400,7.355025390625,-0.7201942425884306,-0.586719691991806,-0.08406031215153634
1725631027604978400,7.364978515625,-0.45709027251601214,-0.7936971395641564,0.3337846492342651
1725631027614931500,7.374931396484375,-0.09864566766917705,-0.27126608760952947,0.8597126033939421
1725631027624884200,7.38488427734375,-0.5122270533263683,0.27998598515987394,1.017671899166703
1725631027634838300,7.39483837890625,-0.3594030746154487,0.30862112801373004,1.1922910186436027
1725631027644791000,7.404791015625,0.2935685203105211,0.19973872849047183,1.3841022420704363
1725631027654744000,7.414744140625,0.5434253246665001,0.02480593995451927,1.423915197020769
1725631027664697000,7.424697021484375,0.39831440455093975,-0.37207390174865723,1.0686850241757928
1725631027674650000,7.434650146484375,0.055249155143648386,-0.6094032329648733,1.1495119804292917
1725631027684603100,7.44460302734375,0.1253876902528107,-1.0362859987437725,1.2032204820021986
1725631027694556200,7.45455615234375,0.38802842672765253,-1.0641191775649785,0.9212634890303015
1725631027704509200,7.46450927734375,0.7637469685889781,-1.4118933353155851,0.46491789740175005
1725631027714462200,7.474462158203125,1.8051603933490812,-1.1971201193004846,0.7060401180949062
1725631027724415200,7.484415283203125,1.2280176541283725,-0.6338134516000747,0.1699886101320386
1725631027734368300,7.4943681640625,0.6586413111254572,-0.23389701867997645,-0.007784004939720034
1725631027744321300,7.5043212890625,-0.1012619876474142,0.07516717692613602,0.22769750645272432
1725631027754274000,7.514274169921875,-0.12086276017427444,0.2895908488512039,0.20257548628635702
1725631027764227000,7.52422705078125,0.3231158095732331,0.745552994120121,0.06965067852698266
1725631027774180000,7.53418017578125,-0.1718310231283307,1.4077362156361342,-0.5557669198453427
1725631027784134100,7.544134033203125,-0.17326602436751126,1.225051497799158,-0.8909090481031685
1725631027794087200,7.554087158203125,1.0690320840477943,1.205634849667549,-0.3385076591681689
1725631027804040200,7.564040283203125,0.9788093768090009,0.2914689176827669,-0.6526672782171518
1725631027813993200,7.5739931640625,0.7996051945641637,-0.1589484529405832,-0.5646090555358678
1725631027823946200,7.5839462890625,0.7533189519464969,-1.085756424355507,-0.46393151671290395
1725631027833899300,7.593899169921875,0.5366910479754209,-1.4465139823198319,-0.30723529967851937
1725631027843852300,7.603852294921875,0.477221498657763,-1.2202128255963325,-0.15312814928926527
1725631027853805300,7.613805419921875,0.2882411878079176,-1.0724076979607342,0.015434885019063949
1725631027863758300,7.62375830078125,-0.2178235434964299,-0.7774328179836273,-0.4705693472921848
1725631027873711400,7.63371142578125,0.018852876769006252,-0.1438742179274559,-0.6174008806552738
1725631027883664100,7.6436640625,0.7780246463969349,0.6871499049901962,-0.04822188685536384
1725631027893617200,7.6536171875,0.2420449615612626,0.3630740182131529,-0.1771500261940062
1725631027903570200,7.663570068359375,0.08322261921837926,-0.8159720997363329,-0.5333181374762207
1725631027913523200,7.673523193359375,-0.11219605411589145,-1.1939835748404264,-0.3788781749360263
1725631027923476200,7.683476318359375,-0.23122151586040854,-0.837488350495696,-0.29392924338169396
1725631027933429200,7.69342919921875,0.13376023567020892,-0.4308119219213724,-0.4351363609917462
1725631027943383300,7.70338330078125,0.07357566995099186,0.07740005054473877,-0.5620842132333665
1725631027953336300,7.71333642578125,0.07849851330593229,0.6219441501080989,-0.4602174646258354
1725631027963289300,7.723289306640625,0.5047238380894065,1.188601881802082,-0.2393069148994982
1725631027973242400,7.733242431640625,0.8749392524898052,0.9623077393412589,-0.41325010787621136
1725631027983195400,7.7431953125,0.48112055192291736,0.17403788552284238,-0.7060898755207657
1725631027993148400,7.7531484375,-0.07656535328626632,-0.11623042419850825,-0.39626689743660387
1725631028003101400,7.763101318359375,-0.43978827845081686,-0.2583803025513887,-0.24061880121566354
1725631028013054200,7.77305419921875,0.20181553476452826,-0.49952539266347884,-0.36448271596729753
1725631028023007200,7.78300732421875,0.6874750452913343,-0.13002104914188384,0.22936313811000436
1725631028032960300,7.792960205078125,0.7920799136258662,0.47450376413166523,0.4304730818884447
1725631028042913300,7.802913330078125,0.8053690187878906,0.11983867782354354,0.3571294305950403
1725631028052866300,7.8128662109375,0.5521335317790508,-0.7017880866736174,-0.04943593882024288
1725631028062819300,7.8228193359375,-0.01523965470790863,-1.8196739257395267,-0.2103003449173644
1725631028072772400,7.8327724609375,-0.13528028484433888,-2.229891972443461,-0.04292429190389812
1725631028082725400,7.842725341796875,-0.3618525135941803,-1.961085552945733,-0.2829930397550575
1725631028092679200,7.85267919921875,-0.3303540902636945,-1.6090671817541122,-0.445247859030962
1725631028102632200,7.862632080078125,-0.10630641155540943,-1.1339876635611057,-0.233758231263794
1725631028112585200,7.872585205078125,-0.3531342234790325,-0.2996335194379091,-0.26311303016170856
1725631028122538200,7.882538330078125,-0.5819686980724335,-0.34123160423934457,-0.4999412434553727
1725631028132491300,7.8924912109375,-0.532955368578434,-0.6104056880056857,-0.5502681762985885
1725631028142444000,7.902444091796875,-0.684167235917598,-1.059681487378478,-0.560197266975604
1725631028152397000,7.91239697265625,-0.6859054578870535,-1.6248627167791128,-0.6995914534121751
1725631028162350600,7.9223505859375,0.004359510383754968,-1.307397188052535,-0.6815288502380251
1725631028172303600,7.9323037109375,-0.09987886272594332,-0.21623276717364787,-0.5681863295007497
1725631028182256600,7.942256591796875,-0.22941125156804917,0.46864685479700563,-0.659840019390732
1725631028192209700,7.952209716796875,-0.35930019876286384,1.0337836605340243,-0.5954511703820898
1725631028202162700,7.96216259765625,-0.8779016094267368,1.7229045733362436,-0.6728617057882249
1725631028212115700,7.97211572265625,-0.9248930777043104,2.0166858596146104,-0.5983969049777835
1725631028222068500,7.982068359375,-0.6471230150282382,1.8792600871741771,-0.3011394670214504
1725631028232021500,7.992021484375,0.09969378848262131,1.8681968413680792,-0.13748144815042615
1725631028241974500,8.001974609375,-0.5561117877602577,2.3391572338044644,-0.06528356935866177
1725631028251927600,8.011927490234376,-0.8206471058100462,1.6429636061370372,-0.14736870897971094
1725631028261881600,8.021881591796875,-0.3020125235289335,0.9669108492225408,-0.11660166866369545
1725631028271834600,8.031834716796874,-1.2737806035242973,0.516767034843564,-0.6057612232007086
1725631028281787600,8.04178759765625,-2.470239774698019,-0.21007658263146875,-1.1705830447044223
1725631028291740700,8.05174072265625,-0.6628392012067139,0.30078268947303294,0.7174301116373389
1725631028301693700,8.061693603515625,3.2339749067187307,1.9705437016427516,2.3715714568056163
1725631028311646700,8.071646728515624,4.3207039754986765,3.9494852292746305,2.293052046842128
1725631028321599700,8.081599853515625,0.8309113832581788,4.159077243259549,0.28880517836622893
1725631028331552800,8.091552734375,-1.7864339194387195,1.2050643563032148,-2.0541449449151754
1725631028341505800,8.101505859375,-1.287743808555603,0.2621580675244331,-1.2625851096406577
1725631028351458600,8.11145849609375,-0.3013151158493012,1.7431114950627087,1.1924688594285398
1725631028361411600,8.12141162109375,-0.42511809419393537,1.8144447929143905,1.6626266302451491
1725631028371364600,8.131364501953126,0.2842740377426147,0.8639829741895199,1.7080857743889093
1725631028381317600,8.141317626953125,0.8574322373718023,-0.13785831863880157,1.1077580474790185
1725631028391270700,8.151270751953126,0.8155518284976482,-0.5868260749757289,0.5628987444866448
1725631028401223700,8.1612236328125,-0.5639507377576083,-0.8778051633149385,0.15593904199153183
1725631028411176700,8.1711767578125,-0.38594460619091986,-2.1219582519471643,-0.09773147543370724
1725631028421130800,8.181130859375,0.7937463124681263,-2.6050579949885604,0.0588616465523839
1725631028431083800,8.191083740234374,1.0873504886139183,-2.8233284054696557,-0.6375096757695079
1725631028441036800,8.201036865234375,0.05946881866529584,-2.4554940409868955,-0.5685045286044478
1725631028450989800,8.21098974609375,0.6602782646775245,-2.481805124807358,-0.6608022885516286
1725631028460942800,8.22094287109375,1.2473679590255022,-2.7170558961838482,-0.3993129140689969
1725631028470895900,8.230895751953126,0.9069539547793567,-2.271366138604283,0.004078355354815722
1725631028480848600,8.2408486328125,1.124791453735903,-3.0263048007071016,-0.38089989002197977
1725631028490801700,8.2508017578125,0.7483984466791153,-2.5070126313000918,-0.5100744784023612
1725631028500754700,8.260754638671875,0.6972511008311063,-1.8772902484059333,0.1518098332323134
1725631028510707700,8.270707763671876,1.2870021964080631,-0.7308610364228486,0.8423259997852146
1725631028520660700,8.28066064453125,1.5630723232984542,-0.4384235659688711,0.9784647280897945
1725631028530613800,8.29061376953125,1.1686441125310956,-0.703804687193036,0.9500234273076057
1725631028540566800,8.30056689453125,0.2561509360641241,-1.2148586050868033,0.45069092686772344
1725631028550519800,8.310519775390626,-0.657149245936796,-1.5302835678964852,-0.3470403635833412
1725631028560472800,8.320472900390625,-0.6411269894838333,-1.4616718039631842,-0.433432552748546
1725631028570425900,8.33042578125,-0.5372655599277466,-0.01849953328669071,-0.21128164757229387
1725631028580379000,8.34037890625,-0.6073316873878241,1.0749351706117392,-0.2600839646641165
1725631028590332700,8.350332763671876,-0.5843932218056171,1.8370055842906237,0.20781360613554714
1725631028600285700,8.36028564453125,-0.3328083515480161,2.6852795326948162,0.9660947105340659
1725631028610238500,8.370238525390626,0.06294263225570321,2.9891964285403487,1.4313427166730164
1725631028620191500,8.38019140625,-0.3665219667099416,2.5719576894193885,1.5314654711574316
1725631028630144500,8.39014453125,-0.3279102042429149,1.7766952002346514,1.6290918787814677
1725631028640097500,8.40009765625,-0.13564648780822752,2.5747417671799657,0.5053188083078712
1725631028650050600,8.410050537109376,-0.7902129507102071,2.484294603535533,-0.6219135357741266
1725631028660003600,8.420003662109375,0.3794968913562596,2.4296897376447917,-0.9497653608933091
1725631028669956600,8.42995654296875,1.2316267845362423,3.4869910518884657,-1.3207279403991996
1725631028679909600,8.43990966796875,-0.7243512161374092,3.871224177986383,-0.8553808577999472
1725631028689862700,8.449862548828126,-2.068401433804631,2.0053665932208298,0.4221422201883048
1725631028699815700,8.459815673828125,-1.1769905005939305,-0.2429360651820898,0.7811044191684573
1725631028709768700,8.469768798828126,-1.285271427092701,-1.4847230092048644,0.9206906575784086
1725631028719721500,8.479721435546875,-0.7450421219885349,-2.5381325767070053,0.15731617556363342
1725631028729674500,8.489674560546876,0.7295085989005863,-3.3994022002846003,-0.46092407852523026
1725631028739627500,8.49962744140625,1.7300760724008082,-2.630377729684114,-0.7256264967702328
1725631028749580500,8.50958056640625,1.0398482212699949,-2.4304952088087797,-1.7293009963750838
1725631028759533600,8.519533447265625,1.7169969567276537,-2.643017431026697,-1.4701985170289873
1725631028769487600,8.529487548828126,1.711093577902764,-1.4553601365983486,-1.1092178178332746
1725631028779440600,8.539440673828125,1.3275304600208997,-0.2796083840191364,-1.1069968538481743
1725631028789393700,8.5493935546875,1.0046719862096012,-0.013491349735856055,-0.48191389425769443
1725631028799346700,8.5593466796875,-0.3210270206004381,1.0949041919291018,-0.23678521440215408
1725631028809299700,8.5692998046875,-2.210760717124492,1.6119687484145164,-0.5104107976846397
1725631028819252700,8.579252685546875,-1.983020759769529,1.3161743687480687,-0.07771974748577923
1725631028829205800,8.589205810546876,-1.1391612668067217,2.0659762524843215,-0.05984020926095545
1725631028839158800,8.59915869140625,-1.865620707269758,2.16083304926455,-0.6830097364455461
1725631028849111600,8.609111572265626,-0.9288618352048098,1.3521592898428438,-1.302182668274641
1725631028859064600,8.619064697265625,0.040619595158100125,0.5217892469197511,-1.1141571008663624
1725631028869017600,8.629017578125,0.5659019448906183,-0.22834990594685076,-1.631808444263786
1725631028878970600,8.638970703125,0.9458515484504401,-1.2664759795993565,-1.2688278034225104
1725631028888923600,8.648923583984375,1.2555999269284308,-0.8334533958911895,-0.5309333246989175
1725631028898876700,8.658876708984375,0.3975849212326109,-0.3367500749111175,-0.6750600926153362
1725631028908829700,8.66882958984375,0.6159539697825909,-0.7823387102037668,-0.09374386710226536
1725631028918782700,8.67878271484375,1.1643071062400936,0.26876959461867805,0.577531044418551
1725631028928735700,8.68873583984375,0.3073170596778393,1.4080997882515192,0.8449363284140825
1725631028938689800,8.698689697265625,0.2443646366804838,1.794592675974965,1.01248821291849
1725631028948642800,8.708642822265626,0.8912569116927683,2.0339444529294965,1.053825454826653
1725631028958595800,8.718595947265625,-0.6369865286782384,2.3317560176372525,0.12968706794716417
1725631028968548900,8.728548828125,-1.4768687885731457,1.982540428906679,-0.7703807075150311
1725631028978501600,8.738501708984375,-0.6801103617422283,1.863659197938442,-0.47723165472559625
1725631028988454700,8.74845458984375,-0.3091150490105152,2.3576316326498983,-0.28644780158512295
1725631028998407700,8.75840771484375,-0.6792880855739116,2.082992853736877,-0.38106362921632825
1725631029008360700,8.768360595703125,-0.09051642948836087,1.1230009901225566,0.15950338340960443
1725631029018313700,8.778313720703125,0.6002358839079738,-0.11531097126603126,0.6864158185619861
1725631029028266800,8.788266845703125,0.6279366685211658,-1.2270166603922843,0.9144078509818762
1725631029038219800,8.7982197265625,1.449415256719291,-2.3823779513716694,1.2769573338642715
1725631029048172800,8.8081728515625,1.654094071960449,-2.614956873190403,1.6649724627189337
1725631029058125800,8.818125732421874,1.2858365136295555,-2.420566519990563,1.657460625784099
1725631029068078800,8.828078857421875,1.2049591423630714,-2.5625229215979575,1.2166358438923954
1725631029078032000,8.838031982421874,1.0976876851677895,-2.2469787163227797,1.1874841298185288
1725631029087984600,8.847984619140625,1.121804766075313,-1.5847919876754284,0.9490255023114382
1725631029097937700,8.857937744140624,1.3603294445559382,-0.8211760981202125,1.0061144401028752
1725631029107890700,8.867890625,1.4661252762407064,-0.8948673572748899,1.012321478049457
1725631029117844500,8.877844482421875,1.4427812255322932,-0.559339517635107,0.9389948144234717
1725631029127797500,8.887797607421875,0.3013333090931177,-0.25915362501144407,0.25691490617394447
1725631029137750500,8.89775048828125,-0.026886545620858668,-0.3605331015586853,0.048132455006241796
1725631029147703600,8.90770361328125,0.548362196546793,-0.029196283867955208,0.6892519918359815
1725631029157656600,8.917656494140624,-0.4752691955462098,-0.3675643153697252,0.24086802673637867
1725631029167609000,8.927609130859375,-0.3046288435071707,-0.2988368161022663,-0.08571969673112034
1725631029177562000,8.93756201171875,1.0047527963608502,0.02664952199459076,0.1350353701725602
1725631029187515100,8.94751513671875,1.2443109095424414,0.6682119802862405,0.3889518251828849
1725631029197468200,8.95746826171875,1.1622767694562672,0.27686171565949913,0.9122641900166869
1725631029207421200,8.967421142578125,1.0575208022132516,-0.011055062499642372,1.0663355384401976
1725631029217374200,8.977374267578124,0.028356325912475583,0.3274170138984918,0.9473121955875307
1725631029227327200,8.9873271484375,1.0063187305033205,1.0383616359740495,0.9294478183992206
1725631029237280300,8.9972802734375,0.9448869412019848,2.0890672052145005,1.228574411228299
1725631029247233300,9.0072333984375,0.053607671546936034,2.3564859697461125,0.39804515915550287
1725631029257186000,9.01718603515625,-0.5021142401129007,1.6980460264116524,-0.387128189952299
1725631029267139000,9.02713916015625,-0.5490300128057599,0.05637538269460201,-0.4273189652390778
1725631029277092000,9.037092041015624,-0.6843263720020651,-0.04103752830922603,-0.43531997393034394
1725631029287045000,9.047045166015625,-0.7801374007672071,0.511436779731512,-0.6429187682714312
1725631029296998100,9.056998046875,-0.14888590860962866,0.8415461014539003,-0.6408353130608797
1725631029306952000,9.066951904296875,0.005607903009653091,0.5166325948089361,-0.5094957286663353
1725631029316905000,9.076905029296874,0.21221184109449384,-0.566068533629179,-0.5310206741888076
1725631029326858000,9.08685791015625,-0.6313897315844893,-2.0126327848315237,-0.7482132263053208
1725631029336811000,9.09681103515625,0.3374637761384249,-2.7160879279345274,-0.45832010657191274
1725631029346764000,9.106763916015625,1.9200141223669052,-1.563626450049877,-0.5014757960788905
1725631029356717000,9.116717041015624,2.4578151774108408,-0.20683950040638446,0.05187829047106206
1725631029366670000,9.126670166015625,1.9877451579429208,-1.1035749896407128,0.7840167994838207
1725631029376623000,9.136623046875,1.1697139337196945,-2.503854459530115,1.2110274294260888
1725631029386576000,9.146575927734375,0.04080079694390297,-2.646882289761305,0.8748032050199807
1725631029396529000,9.15652880859375,0.5296648026004434,-2.445961073487997,0.3456705000022426
1725631029406482000,9.16648193359375,1.3654711913585662,-1.3110533724725246,0.4496827362058684
1725631029416435000,9.17643505859375,1.0125666849821806,0.1497948401480913,0.09662716745361685
1725631029426388000,9.186387939453125,-0.2089899564385414,0.18119944771528243,-0.7160040974222123
1725631029436341000,9.196341064453126,-0.8061923178695142,-0.1037847841233015,-1.2979112745657562
1725631029446294000,9.2062939453125,-0.5421070816747844,0.22220307375490664,-1.195990457683429
1725631029456247000,9.2162470703125,-0.5251566775262355,1.0075924037009476,-0.8151589567225426
1725631029466200000,9.226199951171875,-0.5785996600307524,1.4663532397776842,-0.9002665129046886
1725631029476153000,9.236153076171876,-1.1669424231797456,1.2370762821137904,-0.7687574171621352
1725631029486105900,9.24610595703125,-1.0301021955423058,1.1869137825846672,-0.43793658616952597
1725631029496060200,9.25606005859375,-0.5458328241996466,1.4025643659561873,-0.37666780541017647
1725631029506013200,9.26601318359375,-0.466125665756315,1.4221084398597479,-0.21013803049512206
1725631029515966000,9.275966064453126,-0.6760818368785083,0.924500278994441,-0.31260647132284936
1725631029525919000,9.2859189453125,-0.1742775394976139,0.6095645610064268,-0.709316874743253
1725631029535872000,9.2958720703125,-0.502014871391654,0.6245370892107487,-0.7973859110794961
1725631029545825000,9.305824951171875,-0.4657306750893593,0.49346331614553923,-0.8792392877712846
1725631029555778000,9.315778076171876,0.2600678172469139,0.47046413335204124,-0.7853402301073074
1725631029565731000,9.32573095703125,0.511563620981574,1.0257938308238983,-0.3093065529946238
1725631029575684000,9.33568408203125,-0.4052956417404115,0.7403647778272628,-0.005635375538468361
1725631029585637000,9.34563720703125,-0.011539046624302864,-0.043320086288452145,0.17695523427426815
1725631029595590100,9.355590087890626,0.33812647783085703,-0.4921668465942144,0.18330372651815413
1725631029605543200,9.365543212890625,-0.300810088936612,-1.422827986305952,-0.2888960715200752
1725631029615496000,9.375495849609376,0.07041969013810158,-2.7418483921349046,-0.5421242520052939
1725631029625449000,9.385448974609375,0.7061047808289528,-2.6807231845647097,-0.4626735525410622
1725631029635402000,9.395402099609376,0.35209903521239755,-2.025071995165944,-0.466948088055104
1725631029645355000,9.40535498046875,0.6364677655011415,-1.4486439800858497,-0.8234666932754218
1725631029655308000,9.41530810546875,0.5234696012221276,-0.4301671942770481,-0.885998625838384
1725631029665261000,9.425260986328125,0.21723171508312225,-0.0845657043904066,-1.2418529949963093
1725631029675214000,9.435214111328126,-0.09653422847315668,-0.4838631286293268,-1.3768383885473012
1725631029685168000,9.445168212890625,0.5613040957063437,-0.7037222696065902,-1.3017264489397407
1725631029695121200,9.45512109375,0.08395838614702224,0.6305459742367268,-1.0390595551103352
1725631029705074200,9.46507421875,-0.820595083361864,1.5697709441542624,-1.0455980169683694
1725631029715027200,9.475027099609376,-0.22162805034592747,1.7739906174510716,-0.8409005700919777
1725631029724980200,9.484980224609375,-0.29840500055626035,2.5784984893649816,-0.41470162185877557
1725631029734933200,9.494933349609376,-0.44279988135695453,2.9544132844507693,0.240470624916628
1725631029744886000,9.504885986328125,0.3401240813888609,2.3915841711342334,0.7351124833222478
1725631029754839000,9.514839111328126,0.9149778328895568,1.8358061453729866,0.9308727366358042
1725631029764792000,9.5247919921875,0.7035637180440127,1.542467926687002,0.6595788842365146
1725631029774745000,9.5347451171875,-0.060562751381844276,1.2227753695607184,0.22517850936911998
1725631029784698000,9.544697998046875,-0.38961408848389983,0.6435077471405267,-0.23770371748656033
1725631029794651100,9.554651123046876,-0.28610885195434094,0.3499380577862263,-0.47937202775515614
1725631029804604200,9.564604248046875,0.14091303003430367,1.1399351737886667,-0.38172728075683116
1725631029814557200,9.57455712890625,0.3641701428867876,1.6861790630072355,-0.07989230575188994
1725631029824510200,9.58451025390625,1.170755843988061,1.2443342904180288,0.37281741359233855
1725631029834463200,9.594463134765626,1.3122886133559046,0.8140297334969043,0.5448929130010306
1725631029844416300,9.604416259765625,0.589461099654436,-0.10432897400259972,0.2464905427932739
1725631029854369000,9.614369140625,0.22332579417452214,-0.972249872162938,-0.2732673444293439
1725631029864322000,9.624322021484375,0.47649245373085136,-1.2288222485095261,-0.6272905526373534
1725631029874275800,9.63427587890625,0.5874025596894323,-1.1208598864406347,-0.7441011148113756
1725631029884228900,9.644228759765625,0.4061130956031382,-0.884120922333002,-0.6929585912689566
1725631029894182000,9.654181884765626,0.5530364719681441,-0.7679173861414194,-0.15159567902497947
1725631029904135000,9.664135009765625,1.123881426218897,-1.0136433743029831,0.6401539066679776
1725631029914088000,9.674087890625,1.6802596098303795,-0.95169399086833,0.827742763159424
1725631029924041000,9.684041015625,1.181150250621885,-1.1555401546776294,0.39215675870403643
1725631029933994000,9.693993896484375,0.7799396862380206,-1.456136966189742,-0.27648035165909673
1725631029943947000,9.703947021484375,0.20475670278295874,-1.0332716193586586,-0.7654859212107956
1725631029953900000,9.713900146484375,-0.16914426826238632,-1.277797584080696,-0.6619016280956566
1725631029963853000,9.72385302734375,0.2806657841175794,-0.6016735154956578,-0.14448610274810342
1725631029973806000,9.73380615234375,0.2980180470652878,0.5074707987099886,0.45402061927970494
1725631029983758800,9.7437587890625,0.260856994863227,0.8705500776201486,0.9431967230927198
1725631029993711900,9.7537119140625,-0.00834105430059135,0.7034761858910322,0.6899430428400636
1725631030003665000,9.763664794921874,-1.4252134201377629,-0.3035942397624254,-0.03993132063299417
1725631030013618000,9.773617919921875,-2.0358838965594765,-1.8113538411617278,-0.06856376007311046
1725631030023571000,9.783571044921874,-1.1074738967753945,-2.0494676007539034,0.4921296929216012
1725631030033524000,9.79352392578125,-0.9481587294142693,-1.2675146749973296,0.6083042587470263
1725631030043477000,9.80347705078125,-0.008089782953262329,-0.9518073881149292,0.46896750158611683
1725631030053430000,9.813429931640625,0.8134534679789096,-0.1702379087179899,0.49819918556101617
1725631030063384000,9.823384033203125,-0.028296120157837865,0.3593406769037247,0.7399119925584644
1725631030073337000,9.833337158203125,-0.0016167875468730926,0.1482785903662443,0.7942818075843155
1725631030083290000,9.8432900390625,-0.7397850782431662,-0.13753566255569458,0.7545498819809406
1725631030093243100,9.8532431640625,-1.32275550070405,-0.5829547865003347,0.507307022983022
1725631030103196200,9.863196044921875,-0.9064997812710702,-0.23546645995378493,0.28797294705947857
1725631030113149000,9.87314892578125,-0.792138804206252,0.44310909343659877,-0.016918639037106185
1725631030123102000,9.88310205078125,-0.537504117923975,1.0497387700349092,0.3580604278348386
1725631030133055000,9.893054931640625,0.3073142831988632,1.9253999070584773,0.4640823964256793
1725631030143008000,9.903008056640624,-0.23498189130723476,2.259182948857546,0.5240217552121729
1725631030152961000,9.9129609375,-0.5331329171024263,2.0548557235330343,0.5263979828242212
1725631030162914600,9.92291455078125,-1.3464347747161984,1.1623042419850826,0.08049129455834626
1725631030172867600,9.93286767578125,-0.8363724982082843,-0.06297521935105324,-0.5231886653888971
1725631030182820600,9.942820556640624,-0.5005404149249196,-0.13884265350103378,-0.7193113953392952
1725631030192773600,9.952773681640625,-1.352767192608118,-0.10739011513888835,-0.7285292324744165
1725631030202726700,9.9627265625,-0.2724471140876412,-0.2593576231509447,-0.23705020374758168
1725631030212679700,9.9726796875,1.1804618299663066,0.9801017547070979,0.45467809680774807
1725631030222632700,9.9826328125,0.562321748316288,1.9973843622952698,0.7521222895078361
1725631030232585700,9.992585693359375,-0.06480038895159959,1.6653654075592754,0.5131279111562297
1725631030242538800,10.002538818359374,0.14611951263621448,0.5357581510394811,0.12647910221870987
1725631030252492500,10.012492431640625,0.8605424783468246,-0.2837006217688322,-0.03485478455368429
1725631030262445600,10.022445556640625,0.08974778320342301,0.08124854266643523,-0.034331016407907006
1725631030272398600,10.032398681640625,-0.6149439159572124,0.05104921923577785,0.05477759210914373
1725631030282351600,10.0423515625,0.06932254255115985,0.12661913174390793,0.8054822699040174
1725631030292304600,10.0523046875,0.41517128519713875,0.8641443022310733,1.0868350864376872
1725631030302257700,10.062257568359374,-0.3916109613895416,1.0847317574828863,0.9979081180978566
1725631030312210400,10.07221044921875,-0.16012275741696358,0.866375422284007,0.951950815173611
1725631030322163500,10.08216357421875,0.19836451752781867,0.19458850612044334,0.7985184222407639
1725631030332116500,10.092116455078125,0.3525616842880845,-0.6523609156817197,1.0404079009793699
1725631030342069500,10.102069580078124,0.5958014085918665,-0.7302402741760015,1.2117029906000942
1725631030352022500,10.1120224609375,0.4063625403195619,-0.614237813514471,1.317120563556999
1725631030361975600,10.1219755859375,0.5411608868658543,-0.6501976001679897,1.264397419759631
1725631030371928600,10.131928466796875,1.2804539438083766,-0.45208851870596406,1.275525839756429
1725631030381881600,10.141881591796874,1.4022846722319722,0.6342658715426921,1.6757203589655458
1725631030391834600,10.151834716796875,1.0376154937818647,0.4043897789418697,1.141418982605636
1725631030401787400,10.161787353515624,1.0548206033438443,0.3000748334646225,1.6020704547345637
1725631030411740400,10.171740478515625,1.153795356836915,-0.09700023854970931,1.4923622719116507
1725631030421693400,10.181693359375,0.19178981531262396,-1.1734013900607823,0.37461408775076266
1725631030431646500,10.191646484375,-0.10011077178567647,-1.0900859779924155,-0.054571986534446476
1725631030441599500,10.201599609375,0.40656332358866926,-0.48259588517248625,0.31894539202079175
1725631030451553500,10.211553466796875,-0.27675211780518294,0.04771335281133651,-0.019343875156342984
1725631030461506600,10.221506591796874,-1.7263424388304351,-0.7243050389081239,-0.38978053109198807
1725631030471459600,10.23145947265625,-0.8243398228481411,-1.2464303859144448,0.3438685286141932
1725631030481412600,10.24141259765625,2.09011233035326,1.8921476257979868,2.2963161632046103
1725631030491365600,10.25136572265625,3.336366775178909,4.225197190377116,2.7718174139410254
1725631030501318700,10.261318603515624,1.4503417239144443,2.6545535550415513,1.876070935744047
1725631030511271700,10.271271728515625,-1.388928054791689,-0.4951256963998079,0.598920417395234
1725631030521224700,10.281224609375,0.06748509799093008,-1.5475713873058556,0.3344545113198459
1725631030531177500,10.291177490234375,2.5009891332268714,-0.24547405922710894,0.6435334661036729
1725631030541130500,10.301130615234374,1.5664467681676149,0.49224926418066023,-0.1716711563915014
1725631030551083500,10.31108349609375,-0.4608189376503229,1.0008277318716048,-0.6062941610336303
1725631030561036500,10.32103662109375,-1.9780960167184471,-1.0786100597321986,-0.8326742282122374
1725631030570989600,10.330989501953125,-1.5663035603046416,-2.535054484435916,-0.07087006425410508
1725631030580942600,10.340942626953124,-0.3701908644810319,-2.0489017835646868,0.8681851020544766
1725631030590895600,10.3508955078125,0.1263610653296113,-1.0961264272004365,0.37877573747485876
1725631030600848600,10.3608486328125,0.18762889624089002,-1.001681718352437,-0.22602774660959837
1725631030610801700,10.3708017578125,0.5798308092609048,-1.911297147426009,0.1741148962818086
1725631030620754700,10.380754638671876,0.7774059299767017,-2.7848095819830894,0.35128435782864686
1725631030630707500,10.39070751953125,0.4215571868419647,-3.9243455273211,0.06686053635179996
1725631030640660500,10.400660400390626,0.8058972804456949,-4.5886721906065935,-0.06423778663277625
1725631030650613500,10.410613525390625,2.125679318296909,-3.8601176775604484,0.2709603826612234
1725631030660567600,10.420567626953124,3.4806191787689924,-2.0999732146322727,0.6014058044701814
1725631030670520600,10.4305205078125,3.9636087394341826,-1.8929577731370926,0.5567316732242703
1725631030680473600,10.4404736328125,2.012416219471395,-2.273099246007204,0.47643728947751224
1725631030690426600,10.450426513671875,-0.5299468344122171,-1.0710931082308293,-0.5930946338512003
1725631030700379600,10.460379638671874,-0.5661655642628669,0.7220733343333006,-0.5995519932970405
1725631030710332700,10.470332763671875,0.17984277240931987,3.2042876244634386,-0.006623290597274899
1725631030720285700,10.48028564453125,-0.9296890798091888,4.692457559251785,-0.5417866175487637
1725631030730238700,10.49023876953125,-2.8349498696804045,3.00471080853641,-1.7833473516002296
1725631030740191700,10.500191650390626,-1.7521014417260885,1.3216717971205711,-1.9673316077284513
1725631030750144800,10.510144775390625,0.6614305034525693,2.0787194142013785,-1.8708628457069396
1725631030760097500,10.52009765625,-0.1611915556922555,4.1768490467935795,-1.6711024899065494
1725631030770050600,10.530050537109375,-2.0928186667025086,4.885366733983159,-1.5422737192891538
1725631030780003600,10.540003662109376,-2.634930570682883,4.478765124210715,-1.225968174252659
1725631030789956600,10.54995654296875,-2.9612054288089276,4.328078888180852,-1.0131579288735986
1725631030799909600,10.55990966796875,-1.2579955898933113,5.625487766182422,-0.559187724606879
1725631030809862700,10.569862548828125,0.45462198270633813,6.675633363452554,0.5289151898095384
1725631030819815700,10.579815673828126,0.2992458352945745,5.303745875310898,0.37205585463531315
1725631030829768700,10.589768798828125,-0.2367044773161411,2.382045358416438,0.0953652486258652
1725631030839721700,10.5997216796875,-0.24807795811519026,-0.03505494676828384,-0.19810298051480202
1725631030849674800,10.6096748046875,0.16885653736218809,-1.544099911803007,-0.30080897469175977
1725631030859627800,10.619627685546876,0.9661967096038162,-2.0948820289731023,-0.02484642266195733
1725631030869580500,10.62958056640625,2.5099574525803328,-1.8834236365944146,0.582663073544763
1725631030879533600,10.639533447265626,2.5673551640599963,-1.2448662053376436,0.7815116117298603
1725631030889486600,10.649486572265625,0.6152082659818232,-1.550823667100072,0.5140596755810082
1725631030899439600,10.659439697265626,-0.6723562404841185,-3.084376465925574,-0.24830800401140002
1725631030909393700,10.6693935546875,-1.387952487757802,-4.253191112717986,-0.4154030481263995
1725631030919346700,10.6793466796875,-0.9030677609957755,-5.055102538397908,-0.23511267808005212
1725631030929299700,10.6892998046875,0.0011339724659919738,-4.7204117341041565,0.3560589518193155
1725631030939252700,10.699252685546876,0.5208231783665717,-3.9646103176921605,0.6288593363240361
1725631030949205800,10.709205810546875,0.47873818683102726,-3.0218419760793447,0.7528807066597044
1725631030959158800,10.71915869140625,0.6826742939461022,-2.499637134096026,0.5223909756725653
1725631030969111800,10.72911181640625,1.1857488304585218,-1.9534329923659561,0.7987303114257752
1725631030979064600,10.739064697265626,1.4372158464901148,-1.4029752848446368,0.4001921811215579
1725631030989017600,10.749017578125,0.5955068095594644,-1.0473246946305035,-0.81886358339414
1725631030998970600,10.758970703125,-0.18942425522506237,-1.0077285973012446,-1.4714683908343313
1725631031008923600,10.768923583984375,-0.29314415741860866,-0.44509705238342284,-1.181401887295395
1725631031018876700,10.778876708984376,-0.8043417215667664,0.3827934486836195,-0.9643287237748503
1725631031028829700,10.78882958984375,-1.0458545490127056,0.34025486816167827,-1.0879401250701397
1725631031038782700,10.79878271484375,-1.0118897355686873,0.451969276240468,-0.8595316208038478
1725631031048735700,10.80873583984375,-0.8261959721088409,0.7052998941868543,-0.18309008376747368
1725631031058688800,10.818688720703125,-0.20434943715631962,1.1005863292187452,0.38870720277205106
1725631031068641500,10.8286416015625,0.07161796001195907,1.1560633017688988,0.4832993572667241
1725631031078594600,10.838594482421875,0.10064064087867736,1.0787427462011574,0.4041135192837566
1725631031088547600,10.848547607421875,-0.3694816932983696,1.2363298476606606,0.4379999337293207
1725631031098500600,10.85850048828125,0.023615268865227697,1.1133943728655575,0.3735461662583053
1725631031108453600,10.86845361328125,0.21706994865015147,1.313805301529169,0.19932985542863607
1725631031118407700,10.87840771484375,-0.0808972450107336,2.2697148642659184,0.11629084914885461
1725631031128360400,10.8883603515625,0.05911503679156303,3.0865877122342584,0.1930213298689574
1725631031138313500,10.8983134765625,0.9297381796479225,3.229925339066982,0.5759961264688521
1725631031148266500,10.9082666015625,0.9852541690342128,3.2652292921602726,1.1247044330395757
1725631031158219500,10.918219482421875,0.536672343274951,2.6747955480813976,0.7348197839859872
1725631031168173000,10.928173095703125,-0.39496713994964955,1.6366940243482588,-0.4054425759304315
1725631031178126000,10.9381259765625,-0.35641748293340203,0.32948739043176173,-1.1958878010265528
1725631031188079000,10.9480791015625,0.17999533262252806,-0.24961013611853122,-1.3488827523902058
1725631031198032100,10.9580322265625,0.499199667840451,-0.07944003193974494,-1.210522475578636
1725631031207985200,10.967985107421875,0.3382195629417896,0.12550561754405498,-0.21830898892581463
1725631031217938200,10.977938232421875,0.8394903379678725,-0.7721230211377144,0.8946874706633389
1725631031227891200,10.98789111328125,1.6477566856324672,-1.2131629070848227,1.2779901840433479
1725631031237845200,10.99784521484375,1.2294482714533805,-1.6703128008335828,1.066911292501539
1725631031247798300,11.00779833984375,1.0548838778384029,-2.5940847655534744,-0.0017773118708282708
1725631031257751300,11.017751220703126,-0.253467396068573,-3.1405583718746897,0.08613631470799446
1725631031267704000,11.0277041015625,-0.6795907217822968,-3.7525574665516612,0.6094091512490064
1725631031277657000,11.037656982421876,-0.2685784559607506,-3.888753989458084,1.0549852923862635
1725631031287610000,11.047610107421875,1.3798720571547747,-3.153784933194518,0.6930700157541781
1725631031297563100,11.057563232421876,2.085714972177148,-1.4596213011741637,-0.05709120281375944
1725631031307516200,11.06751611328125,1.4043389744132757,-0.03896189107894897,-0.7574491836190224
1725631031317469200,11.07746923828125,1.3293613287098704,0.7279483638465404,-1.0661115934912115
1725631031327422200,11.087422119140625,0.3622434126079082,2.396051087415218,-1.686293337036669
1725631031337375200,11.097375244140625,-1.7033550926052032,1.941158032682538,-1.111734769090265
1725631031347328300,11.107328369140625,-0.8721868850417435,0.3989613241523504,-0.49062663141489027
1725631031357281300,11.11728125,-0.06271057706549764,1.2371774044007062,0.20405352294966578
1725631031367234300,11.127234375,-1.6861382926054298,2.7862551046162842,0.49286863818801935
1725631031377187000,11.13718701171875,-1.9057615790002047,1.2735761669933796,0.3003680442575365
1725631031387140000,11.14714013671875,-0.3517430613815784,-0.3632201486855745,1.0881018184378743
1725631031397093000,11.157093017578125,0.5444277797073126,-0.10226093555688857,0.7715314119201153
1725631031407046100,11.167046142578124,-0.9635802434951066,-0.8683183730453252,-0.8738573024719953
1725631031416999200,11.176999267578125,0.039827421867102385,-3.020239217057824,-0.9380190281938761
1725631031426953000,11.186952880859375,2.392250526088476,-2.0670283918857573,-1.0831579322949052
1725631031436906000,11.196906005859375,0.9440918453015387,0.39444647707641123,-1.4966890490695832
1725631031446859000,11.20685888671875,0.05308817771747708,0.9725760353773831,-0.6090243897151202
1725631031456812000,11.21681201171875,1.071818061504513,1.3328455175638199,0.38987441992051897
1725631031466765000,11.22676513671875,0.1572429641969502,2.742569107624888,0.14322119737882166
1725631031476718000,11.236718017578125,-2.5624784979343413,2.719332024422288,0.04267649115528911
1725631031486671000,11.246671142578125,-2.3912210369102653,1.7256103251636028,0.06434723835662007
1725631031496624000,11.2566240234375,-1.9872353087246417,1.834716596570611,0.39182792860846966
1725631031506577000,11.266576904296874,-1.6702764143459499,2.0630495513826608,0.5819916405566037
1725631031516530000,11.276530029296875,-1.653690605726093,1.7966987083435058,0.509613436761871
1725631031526483000,11.28648291015625,-0.22681451307311654,1.1085562851846218,0.33417810553126037
1725631031536436000,11.29643603515625,0.7396538530789315,1.199196925574541,-0.47976658003069456
1725631031546389000,11.306388916015624,0.5126759661376477,1.051089600121975,-0.9618213440638035
1725631031556342000,11.316342041015625,0.3827098620533943,0.997476083356142,-1.0193222967222333
1725631031566295000,11.326294921875,0.16938231480196117,0.3750543788641691,-1.150737211375311
1725631031576248000,11.336248046875,0.8532238258965313,-0.2595791569471359,-0.47097522467933595
1725631031586201000,11.346201171875,0.04194879793524742,-0.3345896820068359,0.2542444448556751
1725631031596155100,11.356155029296875,0.07367869193404912,-0.7694079169601201,0.5455211644345894
1725631031606108200,11.366108154296874,0.5021645089954138,-0.9894973595619201,0.9997994117371737
1725631031616061200,11.376061279296875,0.23926117606163025,-0.8243535591125488,0.9328886065028608
1725631031626014200,11.38601416015625,0.9432698613941669,-0.5416992315262555,0.6129137253038585
1725631031635967000,11.395967041015625,1.5562106208354234,0.05616378577053546,0.5679298339890316
1725631031645920000,11.405919921875,1.0242860566094516,0.05956804125607013,0.44150907436143605
1725631031655873000,11.415873046875,1.0806228608593345,-0.7393278359949589,0.660033057744801
1725631031665826000,11.425825927734374,0.06375584833472966,-1.018962523499131,0.2807888990405947
1725631031675779000,11.435779052734375,-0.5480078301511705,-1.4257137708753347,-0.13798523295409976
1725631031685732000,11.445732177734374,0.3757214644707739,-1.5103221453636884,0.1889141868110746
1725631031695685000,11.45568505859375,0.05745163362398743,-0.7169073298722505,-0.02535707103125751
1725631031705638100,11.46563818359375,-0.5031779238216578,-0.3927998789131641,-0.7163285070709884
1725631031715591200,11.475591064453125,0.3878760126449167,-0.2604945182263851,-0.5532698423326016
1725631031725544200,11.485544189453124,1.1186626686573027,0.1599602603316307,0.24445056139826774
1725631031735497200,11.495497314453125,0.8226470474556088,0.7473866392880678,0.5229354943454265
1725631031745450000,11.505449951171874,-0.014378946225345133,0.8742670523166656,0.026218729361891745
1725631031755403000,11.515403076171875,0.1539458223477006,0.3660387132376432,0.24875088894069194
1725631031765356000,11.52535595703125,0.5334931287169457,0.14080021730959413,0.7380237676590681
1725631031775309000,11.53530908203125,-0.06442629494220017,0.738657973909378,0.6620578415706754
1725631031785263000,11.54526318359375,0.07179448562264441,1.1322241610199213,0.5763492507554591
1725631031795216100,11.555216064453125,0.5697314400508999,0.9100772013664246,1.0598827090390026
1725631031805169200,11.565169189453124,0.7165916880518197,0.49796881087124345,1.382294754257053
1725631031815122200,11.5751220703125,0.7743760607615113,-0.2525157944321632,1.0901998136304318
1725631031825075200,11.5850751953125,0.9302437910825013,-0.6275362710267305,0.8325820198841393
1725631031835028200,11.5950283203125,0.8998866467416285,-0.8903957648187876,0.7562206647373736
1725631031844981200,11.604981201171874,0.7982458889096975,-1.0831541329026222,0.6167191089361905
1725631031854934300,11.614934326171875,0.7367173612356186,-1.4483838678449392,0.653962505659461
1725631031864887300,11.62488720703125,0.8602928874999284,-1.088587263867259,0.6521938885517418
1725631031874840000,11.634840087890625,0.8807961618244647,-0.3361491864085197,0.3135781658992171
1725631031884793000,11.64479296875,0.38544776258468627,-0.331530878958106,-0.01482420577481389
1725631031894746000,11.65474609375,0.3377724036961794,-1.0254799425691365,-0.18541969575881956
1725631031904699100,11.66469921875,1.0547551368921995,-1.2994874378412962,-0.002308715333789587
1725631031914652200,11.674652099609375,0.8130220177590847,-0.5450315908193588,0.17153160179033874
1725631031924605200,11.684605224609374,0.4621116078093648,-0.005405073913931847,0.053850248131155964
1725631031934558200,11.69455810546875,0.45123453222513193,-0.08669277954697609,-0.1564019833281636
1725631031944511200,11.70451123046875,0.02397942600250244,-0.06484452035427093,-0.23192776443362234
1725631031954464300,11.71446435546875,-0.26855682865083214,0.46120004592239855,-0.5368760491535067
1725631031964418000,11.72441796875,0.005480477237701416,0.9910743996202945,-0.9945226403780281
1725631031974371000,11.73437109375,-0.13306056296825408,1.3088549856454132,-1.1330578353650866
1725631031984324000,11.744323974609374,0.1559273515537381,0.5267319640189408,-0.9274927388086914
1725631031994277000,11.754277099609375,0.9118027099847793,-0.07664134113192558,-0.8152518226377665
1725631032004230100,11.764230224609374,0.9029095016941427,-0.39646658472716806,-0.8907141831181943
1725631032014183200,11.77418310546875,0.795550073954463,-0.6542413226008414,-0.8159792601294815
1725631032024136200,11.78413623046875,0.8773805081620812,-1.1044891818761824,-0.8205592813961208
1725631032034089200,11.794089111328125,0.5465709292158484,-1.1033774212419987,-0.8162916140142827
1725631032044042000,11.8040419921875,0.6130654087342321,-0.8500304366827011,-0.4959839206643402
1725631032053995000,11.8139951171875,0.43547523755729195,-0.25490648896098134,-0.3381660791888833
1725631032063948000,11.823947998046876,0.305537336654216,-0.35676235084831714,-0.5802068029664457
1725631032073901000,11.833901123046875,0.026332126608490942,-0.2806646150738001,-0.7134092586234212
1725631032083854000,11.84385400390625,-0.29749241575598717,-0.22262451403737066,-1.0733291967198253
1725631032093807000,11.85380712890625,-0.2522163730941713,-0.17044833659827707,-1.2169558696269989
1725631032103760100,11.863760009765626,-0.076912851549685,0.12129238376319408,-1.2429919358983634
1725631032113713200,11.873713134765625,-0.4711842643201351,0.6510907496154308,-0.9480797458939254
1725631032123666200,11.883666259765626,-0.3587316050946712,0.9437877477884292,-0.27759550982676445
1725631032133619000,11.893618896484375,0.22297814978063105,1.2299328400999308,-0.08952380172181874
1725631032143572000,11.903572021484376,0.028590719190239904,0.6881529445528983,-0.4144499121200293
1725631032153526000,11.913526123046875,0.2520139823898673,0.053288522595167157,-0.4443468550706282
1725631032163478800,11.923478759765626,0.007774579524248838,-0.20485797120034693,-0.5538533047763631
1725631032173431800,11.933431884765625,-0.635128771982342,-0.6618658261299133,-0.7830308571863919
1725631032183384800,11.943384765625,-0.3051088821090758,-1.0105804796010256,-0.523345646048896
1725631032193337900,11.953337890625,0.6934707785747944,-0.11670622501671314,0.15467992704221978
1725631032203291000,11.963290771484376,0.8307887067265808,1.228602468279004,0.6186904090091586
1725631032213244000,11.973243896484375,0.45846857513189315,1.430327402150631,0.25219726653490215
1725631032223197000,11.983197021484376,-0.4585071535766124,0.9253495893001555,0.009205487968557281
1725631032233150000,11.99314990234375,-1.5600556058257817,-0.004499649506807327,-0.015823473344696685
1725631032243103000,12.00310302734375,-1.2422229973524808,-1.3367770117938518,0.2718118483914062
1725631032253055700,12.0130556640625,-0.1834445962935686,-1.5282494317203759,0.6425432129573077
1725631032263008800,12.0230087890625,0.18191373346447945,-1.1531786862432956,0.2503871118403971
1725631032272961800,12.0329619140625,-0.22901969496719538,-1.1024690742254257,-0.2313211768426001
1725631032282914800,12.042914794921876,-0.9919291167534887,-1.6322832221686838,-0.8690849735036492
1725631032292867800,12.052867919921875,-1.4160991164423524,-1.9715520019024608,-1.0717204463489354
1725631032302820900,12.06282080078125,0.38514329974539574,-0.26310499298572537,0.5347013719955459
1725631032312774000,12.07277392578125,3.6418314849883315,2.872275099468231,1.7998107028841972
1725631032322727000,12.082726806640625,2.455509238556027,4.939390585115552,0.47702670673802494
1725631032332681000,12.092680908203125,-2.610086636805534,3.5725580422759053,-1.7171123998008668
1725631032342634000,12.102634033203126,-3.316629809051752,1.2264333075463771,-1.933197721327841
1725631032352587000,12.1125869140625,-0.7614712787419557,1.1903040095448494,1.0963296946875751
1725631032362540000,12.1225400390625,-0.12003208150379359,1.777524052274227,2.196742567035556
1725631032372493000,12.1324931640625,0.22945991301536559,0.7757201688468456,1.4799705539807677
1725631032382445800,12.14244580078125,0.4298380353879183,-0.5185702848732471,0.44321109250634905
1725631032392398800,12.15239892578125,0.43575880373902615,-1.6485177331328391,-0.7571666403505951
1725631032402351900,12.162351806640626,-0.6377081209510564,-2.2279180420219897,-1.2971423360198735
1725631032412305000,12.172304931640625,-0.09277421835251153,-4.295282533994317,-1.1264771418005228
1725631032422258000,12.1822578125,3.6055683314740654,-4.002049529248476,-0.6664981621056795
1725631032432211000,12.1922109375,0.9481412668228149,-0.26989363021254537,-1.0078227783907203
1725631032442164000,12.2021640625,-1.5624802026242017,-0.8764414737462997,-2.4530153759136795
1725631032452117000,12.212116943359375,-1.6557523605614899,-1.573966057756543,-0.6809162712976337
1725631032462070000,12.222070068359375,-0.1464483792643994,-1.2252531578511,1.2065600016884506
1725631032472023000,12.23202294921875,0.47032793975174425,-0.47245676847398277,1.8797936095289884
1725631032481975800,12.241975830078125,1.0464116714388132,0.5119844767421484,1.4600681681588292
1725631032491928800,12.2519287109375,0.9115609371181577,1.8704846600443124,0.012613324792310594
1725631032501881900,12.2618818359375,1.3773521832883358,2.4477467878609893,-1.325441086526215
1725631032511835000,12.2718349609375,1.7006499252997338,2.8801036011368035,-2.4490581627205015
1725631032521789000,12.281788818359376,0.7406592307291925,3.836616974985599,-2.1560729952558875
1725631032531742000,12.291741943359375,-1.3697292871944606,2.6626585355639456,-0.43643122310787436
1725631032541695000,12.301695068359376,-0.6533686314195394,0.8711176483750342,1.2054485333152114
1725631032551648000,12.31164794921875,-0.4851080141238868,0.2548988901764154,1.6625142559118569
1725631032561601000,12.32160107421875,-1.4108449953064321,-1.1232862368047236,0.8028746446888894
1725631032571554000,12.331553955078125,0.07359897776134312,-2.930412815660238,-0.37896161543577905
1725631032581507000,12.341507080078125,0.7392332165140658,-2.0779098513841627,0.11935403611175716
1725631032591460000,12.351460205078125,-0.47722471352815626,-1.5395739588111639,0.8944009818721562
1725631032601413000,12.3614130859375,-0.46158349228203294,-2.6015035173773766,1.338112059789896
1725631032611366000,12.371365966796875,0.9633633858740329,-2.9512703102499245,0.5049642957817763
1725631032621319000,12.38131884765625,1.305699005832523,-0.437334601688385,-0.12377506742440163
1725631032631272000,12.39127197265625,1.5969107338838278,1.6385206552535294,1.2138757315292954
1725631032641225000,12.401224853515625,2.01929268111214,2.0372943478792904,1.7606909908950328
1725631032651178000,12.411177978515624,0.3068623016476631,3.4101083032160995,0.2497829354021698
1725631032661131000,12.421131103515625,-1.8911903250731528,2.8486200831145045,-1.1865639462336897
1725631032671084000,12.431083984375,-0.9314728944860399,2.044396873360872,-1.6271929132923484
