time,seconds_elapsed,z,y,x
1725629615675190500,0.0161904296875,-0.4293535351753235,-1.4990599155426025,-1.446596622467041
1725629615685144300,0.026144287109375,-0.3364177346229553,-1.2255865335464478,-1.6309672594070435
1725629615695097300,0.036097412109375,-0.2228216975927353,-0.824532687664032,-1.551026463508606
1725629615705050400,0.04605029296875,-0.19768279790878296,-0.5274122953414917,-1.4273558855056763
1725629615715004400,0.05600439453125,-0.28925907611846924,-0.21799257397651672,-1.3809672594070435
1725629615724957400,0.06595751953125,-0.6338566541671753,0.03740883618593216,-1.388606309890747
1725629615734910500,0.075910400390625,-1.0327348709106445,0.5266428589820862,-1.5513147115707397
1725629615744864500,0.085864501953125,-1.3073786497116089,1.0898326635360718,-1.7706390619277954
1725629615754817500,0.095817626953125,-1.214002013206482,0.7208163142204285,-1.725247859954834
1725629615764771600,0.105771484375,-0.8923121690750122,-0.7823109030723572,-1.3731611967086792
1725629615774724600,0.115724609375,-0.6436148881912231,-2.1175599098205566,-1.117714524269104
1725629615784677600,0.125677734375,-0.48874008655548096,-2.622169017791748,-0.9494495987892151
1725629615794631400,0.13563134765625,-0.2683086395263672,-1.6375598907470703,-0.7342681884765625
1725629615804584400,0.14558447265625,-0.08308124542236328,-0.40738624334335327,-0.42787495255470276
1725629615814537200,0.155537109375,-0.08724832534790039,-0.05532916635274887,-0.1529356986284256
1725629615824491500,0.165491455078125,0.13948947191238403,0.30446627736091614,0.2621038556098938
1725629615834444300,0.1754443359375,0.8222492933273315,0.42212536931037903,0.8508282899856567
1725629615844397300,0.185397216796875,1.7277910709381104,0.3813462555408478,1.487021803855896
1725629615854351400,0.195351318359375,2.7290003299713135,0.3895692229270935,2.1296794414520264
1725629615864304400,0.205304443359375,3.4252257347106934,0.1402408927679062,2.572988510131836
1725629615874258200,0.215258056640625,3.1280300617218018,-0.9892243146896362,2.619854688644409
1725629615884211200,0.225211181640625,1.4743825197219849,-2.088141679763794,2.390962839126587
1725629615894164200,0.235164306640625,-0.4128335416316986,-3.170724868774414,1.9709241390228271
1725629615904118300,0.2451181640625,-1.0475029945373535,-4.131219387054443,1.727500557899475
1725629615914071300,0.2550712890625,-0.7920722365379333,-4.892307281494141,1.4672726392745972
1725629615924024300,0.2650244140625,0.3433057367801666,-4.807316303253174,0.7799245715141296
1725629615933978400,0.274978271484375,1.811527967453003,-2.808079957962036,-0.33206525444984436
1725629615943931400,0.284931396484375,2.068920612335205,-1.2934094667434692,-0.5557398796081543
1725629615953884400,0.294884521484375,1.6213483810424805,-0.553216278553009,-0.8879290819168091
1725629615963838500,0.30483837890625,1.4173558950424194,-1.029545783996582,-0.9842388033866882
1725629615973791500,0.31479150390625,1.4955202341079712,-1.4172512292861938,-1.0068254470825195
1725629615983745300,0.324745361328125,1.642869472503662,-2.281080484390259,-0.898443341255188
1725629615993698300,0.3346982421875,1.8417450189590454,-3.5192744731903076,-0.6040536761283875
1725629616003651300,0.3446513671875,2.072665214538574,-4.607105731964111,-0.17244075238704681
1725629616013605400,0.35460546875,2.40476655960083,-5.448370456695557,0.2197987288236618
1725629616023558400,0.364558349609375,2.8391919136047363,-6.111123561859131,0.4147956669330597
1725629616033511400,0.374511474609375,3.444260835647583,-6.2948408126831055,0.4406341314315796
1725629616043465500,0.384465576171875,3.9780380725860596,-6.261861324310303,0.3618040084838867
1725629616053418500,0.39441845703125,4.409878253936768,-6.167842388153076,0.30030691623687744
1725629616063371500,0.40437158203125,4.6835432052612305,-5.9026408195495605,0.21954388916492462
1725629616073325300,0.4143251953125,4.934223651885986,-5.2584452629089355,-0.06382007151842117
1725629616083278300,0.4242783203125,5.24092435836792,-4.119247913360596,-0.8344019651412964
1725629616093232400,0.434232421875,5.6014628410339355,-2.8935017585754395,-2.0096359252929688
1725629616103185400,0.444185302734375,5.878088474273682,-1.8357633352279663,-3.180922508239746
1725629616113138400,0.454138427734375,6.553215503692627,-0.8516253232955933,-4.248786926269531
1725629616123092500,0.464092529296875,6.612046718597412,-0.3321080803871155,-5.024080276489258
1725629616133045500,0.47404541015625,6.3655686378479,-0.21730609238147736,-5.183953762054443
1725629616142998500,0.48399853515625,6.082779407501221,-0.2424822747707367,-4.9764299392700195
1725629616152952300,0.493952392578125,5.845988750457764,-0.7146463394165039,-4.162868499755859
1725629616162905300,0.5039052734375,5.287748336791992,-1.8703842163085938,-2.8340439796447754
1725629616172858400,0.5138583984375,4.851130485534668,-2.742029905319214,-1.684730887413025
1725629616182812400,0.5238125,4.475810527801514,-2.8301596641540527,-0.9811412692070007
1725629616192765400,0.533765380859375,4.559394836425781,-2.70263409614563,-0.47596627473831177
1725629616202719500,0.543719482421875,4.552878379821777,-1.6873815059661865,-0.4627609848976135
1725629616212672500,0.553672607421875,4.86695671081543,-0.6220740675926208,-0.8493795990943909
1725629616222625500,0.56362548828125,5.33181095123291,0.5042513012886047,-1.2271567583084106
1725629616232579600,0.57357958984375,5.555327892303467,1.6779966354370117,-1.5588202476501465
1725629616242532600,0.58353271484375,5.923789024353027,2.9300453662872314,-2.050931215286255
1725629616252485400,0.5934853515625,5.87869930267334,3.655013084411621,-2.26202654838562
1725629616262439400,0.603439453125,5.405843257904053,5.164074897766113,-2.5482845306396484
1725629616272392400,0.613392333984375,5.318957805633545,4.846878528594971,-2.134526491165161
1725629616282345200,0.62334521484375,4.839564323425293,4.722843647003174,-1.6707178354263306
1725629616292299500,0.633299560546875,3.8425018787384033,3.952754020690918,-2.1780173778533936
1725629616302252300,0.643252197265625,3.5860390663146973,4.007740497589111,-2.2320165634155273
1725629616312206600,0.65320654296875,3.428018093109131,4.5065693855285645,-1.9063777923583984
1725629616322159400,0.663159423828125,3.186148166656494,4.165140628814697,-1.6181737184524536
1725629616332112400,0.6731123046875,2.9086151123046875,3.865119695663452,-1.179665446281433
1725629616342066200,0.683066162109375,2.6950554847717285,3.576366662979126,-0.6938811540603638
1725629616352019200,0.693019287109375,2.486858367919922,3.4220192432403564,-0.290200799703598
1725629616361972200,0.70297216796875,2.483133554458618,3.3212578296661377,0.06209864467382431
1725629616371926300,0.71292626953125,2.551781177520752,3.3726906776428223,0.2731252610683441
1725629616381879300,0.72287939453125,2.558365821838379,3.4967007637023926,0.5271439552307129
1725629616391833300,0.732833251953125,2.462358236312866,3.508204221725464,0.8506051898002625
1725629616401786400,0.742786376953125,2.3455183506011963,3.324066638946533,1.1347880363464355
1725629616411739400,0.752739501953125,2.1669955253601074,2.847045421600342,1.1390646696090698
1725629616421693400,0.762693359375,1.8796381950378418,2.393629550933838,1.1165646314620972
1725629616431646700,0.772646728515625,1.66837739944458,1.734250545501709,0.8457998037338257
1725629616441599700,0.782599853515625,1.783388376235962,1.8087596893310547,0.948742151260376
1725629616451553800,0.7925537109375,2.028571367263794,1.7137935161590576,2.043627977371216
1725629616461506800,0.8025068359375,1.9005118608474731,0.6110799908638,2.7590439319610596
1725629616471459800,0.8124599609375,1.7946072816848755,0.43762263655662537,2.1361546516418457
1725629616481414000,0.822413818359375,1.6519914865493774,0.5236214399337769,0.9011995792388916
1725629616491367000,0.832366943359375,1.157018780708313,0.2422185242176056,-0.12203221023082733
1725629616501320000,0.84231982421875,0.7313259840011597,0.19358760118484497,-0.12361492216587067
1725629616511274000,0.85227392578125,0.1950351446866989,-0.7653821110725403,0.2949216067790985
1725629616521227000,0.86222705078125,-0.4130851626396179,-1.4821110963821411,0.3797754943370819
1725629616531180800,0.872180908203125,-0.8976635932922363,-1.5948714017868042,0.32605746388435364
1725629616541133800,0.8821337890625,-1.1500822305679321,-1.4504345655441284,0.15878407657146454
1725629616551086800,0.8920869140625,-1.075753927230835,-1.093170166015625,-0.17380693554878235
1725629616561041000,0.902041015625,-1.1241353750228882,-0.8463625311851501,-0.509946346282959
1725629616570994000,0.911993896484375,-1.1641316413879395,-0.9196186065673828,-0.4343373477458954
1725629616580947000,0.921947021484375,-1.1649603843688965,-1.2630410194396973,-0.5659970641136169
1725629616590901000,0.93190087890625,-1.1681139469146729,-1.56051766872406,-1.1274135112762451
1725629616600854000,0.94185400390625,-1.320566177368164,-2.1251323223114014,-1.1673154830932617
1725629616610807000,0.95180712890625,-1.2715988159179688,-2.3610851764678955,-1.0306180715560913
1725629616620760800,0.9617607421875,-1.032781958580017,-1.667881965637207,-1.141918420791626
1725629616630713900,0.9717138671875,-0.7156327962875366,-0.488212525844574,-1.316227674484253
1725629616640668000,0.98166796875,-0.5819942951202393,0.3238436281681061,-1.2464743852615356
1725629616650621000,0.991620849609375,-0.2849958539009094,0.5717870593070984,-1.2248247861862183
1725629616660574000,1.001573974609375,-0.3177095949649811,0.19508375227451324,-1.2133382558822632
1725629616670528000,1.011528076171875,-0.41752415895462036,-0.7651020288467407,-0.9028984308242798
1725629616680481000,1.02148095703125,-0.49395236372947693,-1.0750430822372437,-0.7818915843963623
1725629616690434000,1.03143408203125,-0.6034365296363831,-1.2165641784667969,-0.7938877940177917
1725629616700387800,1.041387939453125,-0.597671627998352,-1.2915585041046143,-0.8486024141311646
1725629616710340900,1.0513408203125,-0.44140109419822693,-0.9695120453834534,-1.3101043701171875
1725629616720294000,1.0612939453125,-0.375564306974411,-0.6810099482536316,-1.7975661754608154
1725629616730248000,1.071248046875,-0.44692522287368774,-0.5423808693885803,-2.0701773166656494
1725629616740201000,1.081200927734375,-0.4870172441005707,-0.5610493421554565,-2.1619346141815186
1725629616750155000,1.091155029296875,-0.48787379264831543,-0.5891913175582886,-2.1343929767608643
1725629616760108000,1.10110791015625,-0.5480290055274963,-0.5105167627334595,-2.150846242904663
1725629616770060800,1.111060791015625,-0.5957995057106018,-0.2591939866542816,-2.3472187519073486
1725629616780015000,1.12101513671875,-0.536916196346283,0.053300514817237854,-2.504042625427246
1725629616789968000,1.1309677734375,-0.5565414428710938,0.18440359830856323,-2.779517650604248
1725629616799921000,1.1409208984375,-0.5951988101005554,0.13486641645431519,-2.710923194885254
1725629616809875000,1.150875,-0.5456275343894958,-0.014901714399456978,-2.6116232872009277
1725629616819827700,1.16082763671875,-0.46196219325065613,-0.10871875286102295,-2.4481568336486816
1725629616829782000,1.170781982421875,-0.33903446793556213,-0.15297944843769073,-2.360297918319702
1725629616839734800,1.18073486328125,-0.46371328830718994,-0.01728500984609127,-2.221761703491211
1725629616849687800,1.190687744140625,-0.5403567552566528,-0.07276212424039841,-2.01037859916687
1725629616859641900,1.200641845703125,-0.5350200533866882,0.005422159563750029,-1.3290135860443115
1725629616869595000,1.210594970703125,-0.8492943644523621,0.0714878961443901,-1.1304951906204224
1725629616879548000,1.2205478515625,-0.9752520322799683,-0.12385869771242142,-0.9176269769668579
1725629616889501700,1.230501708984375,-1.1085140705108643,-0.05585378780961037,-0.7478212714195251
1725629616899454700,1.240454833984375,-0.8140744566917419,0.10458488762378693,-0.32108351588249207
1725629616909408800,1.25040869140625,-0.8521872758865356,-0.008592871949076653,-0.2584110498428345
1725629616919361800,1.26036181640625,-0.967970073223114,0.40813830494880676,-0.4548726975917816
1725629616929314800,1.270314697265625,-0.585364580154419,0.3796400725841522,-0.26663172245025635
1725629616939268900,1.280268798828125,-0.48132532835006714,-0.08644957840442657,-0.29071229696273804
1725629616949222000,1.290221923828125,-0.35964515805244446,0.01578844152390957,-0.28802594542503357
1725629616959175000,1.3001748046875,-0.32515987753868103,-0.12027405202388763,-0.2520991265773773
1725629616969129000,1.31012890625,-0.3384876847267151,-0.14896082878112793,-0.2835845947265625
1725629616979082000,1.32008203125,-0.35594284534454346,-0.08339913189411163,-0.28952956199645996
1725629616989035800,1.330035888671875,-0.3213261663913727,-0.09410232305526733,-0.17193785309791565
1725629616998988800,1.33998876953125,-0.3206534683704376,-0.12850584089756012,-0.035408519208431244
1725629617008941800,1.34994189453125,-0.2970164120197296,-0.1729777455329895,0.026372205466032028
1725629617018896000,1.359895751953125,-0.3310531973838806,-0.22835658490657806,0.09572304785251617
1725629617028849000,1.369848876953125,-0.48188310861587524,-0.31726619601249695,0.008934320881962776
1725629617038802000,1.379802001953125,-0.6108871102333069,-0.6146230697631836,0.03458908572793007
1725629617048756000,1.389755859375,-0.6777448654174805,-0.7194673418998718,-0.02384749799966812
1725629617058709000,1.399708984375,-0.5916544198989868,-0.6232936978340149,-0.5693169832229614
1725629617068662800,1.409662841796875,-0.7854433655738831,-0.626491129398346,-0.9288099408149719
1725629617078615800,1.41961572265625,-0.9720995426177979,-0.6506534814834595,-1.0611845254898071
1725629617088568800,1.42956884765625,-1.2057040929794312,-0.3972853422164917,-1.0843193531036377
1725629617098523000,1.43952294921875,-1.3104829788208008,-0.29616138339042664,-0.9982340335845947
1725629617108476000,1.449475830078125,-1.4703738689422607,-0.11250875890254974,-0.8338580131530762
1725629617118429000,1.459428955078125,-1.4600509405136108,0.049298517405986786,-0.7377064228057861
1725629617128383000,1.469383056640625,-1.5999404191970825,0.27450063824653625,-0.54885333776474
1725629617138336000,1.4793359375,-1.7799557447433472,0.34287917613983154,-0.07490573078393936
1725629617148289800,1.489289794921875,-1.5330290794372559,-0.06420285254716873,0.09866073727607727
1725629617158242800,1.499242919921875,-1.1376585960388184,0.019399898126721382,0.16512525081634521
1725629617168195800,1.50919580078125,-0.7920159101486206,0.0301416777074337,0.31722375750541687
1725629617178150000,1.51914990234375,-0.33304888010025024,0.09413477033376694,0.3884473443031311
1725629617188103000,1.52910302734375,0.07784891128540039,0.09236209094524384,0.44955283403396606
1725629617198056000,1.539055908203125,0.3292473256587982,0.2018161565065384,0.5045998692512512
1725629617208010000,1.549010009765625,0.5663162469863892,0.09816994518041611,0.6052796840667725
1725629617217963000,1.558962890625,0.7239809632301331,0.10319399833679199,0.7275209426879883
1725629617227917000,1.5689169921875,0.9097867012023926,0.3259918987751007,0.8275637626647949
1725629617237870000,1.5788701171875,1.086411714553833,0.6747168302536011,0.9368739724159241
1725629617247823000,1.588822998046875,1.2478505373001099,0.8389927744865417,1.0284541845321655
1725629617257777000,1.59877685546875,1.342208981513977,0.717347264289856,1.1914845705032349
1725629617267730000,1.60872998046875,1.4581246376037598,0.6717712879180908,1.2358603477478027
1725629617277682700,1.6186826171875,1.4086884260177612,0.5287409424781799,1.2010483741760254
1725629617287637000,1.628636962890625,1.1157782077789307,0.6558733582496643,1.0828388929367065
1725629617297589800,1.63858984375,0.7919005155563354,0.3716432452201843,0.9641702771186829
1725629617307544000,1.6485439453125,0.46009305119514465,0.2544373571872711,0.769770622253418
1725629617317496800,1.658496826171875,0.14001785218715668,0.19475057721138,0.6162393689155579
1725629617327449900,1.668449951171875,-0.106222964823246,0.285491019487381,0.519429624080658
1725629617337403600,1.678403564453125,-0.19928045570850372,0.3033967912197113,0.5331971049308777
1725629617347356700,1.688356689453125,-0.21511390805244446,0.3985585868358612,0.5758084058761597
1725629617357311000,1.69831103515625,-0.25241467356681824,0.5075085163116455,0.6163366436958313
1725629617367263700,1.708263671875,-0.32924965023994446,0.25535866618156433,0.6049554347991943
1725629617377216800,1.718216796875,-0.7460492849349976,-0.1688205599784851,0.4261646866798401
1725629617387170800,1.7281708984375,-1.0663498640060425,-0.3183002471923828,0.5353229641914368
1725629617397123800,1.738123779296875,-1.2203223705291748,-0.10008455067873001,0.7051399946212769
1725629617407076900,1.748076904296875,-1.332952857017517,0.1429564505815506,0.8681713342666626
1725629617417031000,1.758031005859375,-1.6214443445205688,0.39424511790275574,1.1100894212722778
1725629617426984000,1.76798388671875,-1.5032111406326294,0.543764054775238,1.0477982759475708
1725629617436937700,1.777937744140625,-1.2462207078933716,0.5574180483818054,0.8336679935455322
1725629617446890800,1.787890869140625,-1.0856534242630005,0.3488391935825348,0.6151006817817688
1725629617456843800,1.79784375,-0.9740782380104065,0.3162176012992859,0.4965690076351166
1725629617466797800,1.8077978515625,-0.8365200757980347,0.37459367513656616,0.44781234860420227
1725629617476750800,1.817750732421875,-0.7077889442443848,0.41635364294052124,0.36325645446777344
1725629617486703900,1.827703857421875,-0.5802507400512695,0.4664607644081116,0.29672959446907043
1725629617496658000,1.837657958984375,-0.43973973393440247,0.5162674784660339,0.2841469645500183
1725629617506611000,1.84761083984375,-0.35626915097236633,0.48875388503074646,0.2690087556838989
1725629617516564700,1.857564697265625,-0.27212202548980713,0.48601242899894714,0.2937828004360199
1725629617526517800,1.867517822265625,-0.21408182382583618,0.4587964117527008,0.3111283779144287
1725629617536470800,1.877470703125,-0.18434390425682068,0.3842047452926636,0.3323122262954712
1725629617546424800,1.8874248046875,-0.17246675491333008,0.32698681950569153,0.3628830909729004
1725629617556377900,1.8973779296875,-0.17072823643684387,0.313580185174942,0.3826967477798462
1725629617566331000,1.907330810546875,-0.16755133867263794,0.25383633375167847,0.3927927315235138
1725629617576285000,1.917284912109375,-0.1567935049533844,0.19155162572860718,0.4054614007472992
1725629617586238000,1.927238037109375,-0.13403011858463287,0.17244841158390045,0.4191136360168457
1725629617596192000,1.93719189453125,-0.11581914871931076,0.12255596369504929,0.40768229961395264
1725629617606145000,1.94714501953125,-0.10501288622617722,0.04249435290694237,0.3846975862979889
1725629617616098000,1.95709814453125,-0.08618486672639847,-0.0204265546053648,0.36851808428764343
1725629617626051800,1.9670517578125,-0.05890195071697235,-0.0516558513045311,0.35946527123451233
1725629617636004900,1.9770048828125,-0.030893750488758087,-0.07450790703296661,0.3282013535499573
1725629617645959000,1.986958984375,-0.012965820729732513,-0.10949897021055222,0.28970450162887573
1725629617655912000,1.996911865234375,0.04152538627386093,-0.131230890750885,0.2619519531726837
1725629617665865000,2.006864990234375,0.10710060596466064,-0.12252980470657349,0.239515021443367
1725629617675819000,2.016819091796875,0.16718284785747528,-0.14027151465415955,0.227167546749115
1725629617685772000,2.02677197265625,0.21662284433841705,-0.16368895769119263,0.20744577050209045
1725629617695725000,2.03672509765625,0.25962620973587036,-0.18109723925590515,0.15457935631275177
1725629617705678800,2.046678955078125,0.30722036957740784,-0.23250974714756012,0.08877924084663391
1725629617715631900,2.0566318359375,0.34145209193229675,-0.25734850764274597,0.05429156869649887
1725629617725586000,2.0665859375,0.3959726095199585,-0.2791275382041931,0.009472289122641087
1725629617735539000,2.0765390625,0.42397788166999817,-0.31902116537094116,-0.010337634943425655
1725629617745492000,2.086491943359375,0.4936816990375519,-0.33040890097618103,-0.07424548268318176
1725629617755446000,2.096446044921875,0.5695114731788635,-0.3129604160785675,-0.11032998561859131
1725629617765399000,2.10639892578125,0.6047113537788391,-0.339766263961792,-0.17304739356040955
1725629617775352000,2.11635205078125,0.6114944815635681,-0.37578633427619934,-0.23516322672367096
1725629617785305900,2.126305908203125,0.6197224259376526,-0.3569701611995697,-0.298528254032135
1725629617795259000,2.1362587890625,0.5725938081741333,-0.38548144698143005,-0.387073814868927
1725629617805213000,2.146212890625,0.5826750993728638,-0.3789723515510559,-0.4403597116470337
1725629617815166000,2.156166015625,0.555245041847229,-0.4034031331539154,-0.4796929955482483
1725629617825118700,2.16611865234375,0.544451892375946,-0.3749624788761139,-0.5120917558670044
1725629617835073000,2.176072998046875,0.5257173776626587,-0.3688603937625885,-0.546717643737793
1725629617845025800,2.18602587890625,0.5011234879493713,-0.34427380561828613,-0.579529345035553
1725629617854978800,2.195978759765625,0.5187618732452393,-0.25465044379234314,-0.5421398878097534
1725629617864932900,2.205932861328125,0.5346934199333191,-0.19032104313373566,-0.5473552346229553
1725629617874886000,2.215885986328125,0.5516353845596313,-0.1407793164253235,-0.5383012890815735
1725629617884840000,2.22583984375,0.5797217488288879,-0.11821112781763077,-0.5410420894622803
1725629617894792700,2.235792724609375,0.6471407413482666,-0.10018445551395416,-0.5317082405090332
1725629617904745700,2.245745849609375,0.7008732557296753,-0.14620031416416168,-0.5498634576797485
1725629617914699800,2.25569970703125,0.7583341598510742,-0.14471693336963654,-0.5595116019248962
1725629617924652800,2.26565283203125,0.8206346035003662,-0.037636443972587585,-0.5296808481216431
1725629617934605800,2.275605712890625,0.872285783290863,0.009106025099754333,-0.5493669509887695
1725629617944559900,2.285559814453125,0.8950513005256653,-0.04295935109257698,-0.6206170320510864
1725629617954513000,2.295512939453125,0.9048709273338318,-0.07641051709651947,-0.6456677913665771
1725629617964466700,2.305466796875,0.8606194853782654,-0.12166539579629898,-0.6885870695114136
1725629617974419700,2.315419677734375,0.8024815917015076,-0.12662580609321594,-0.6955243349075317
1725629617984372700,2.325372802734375,0.7368499636650085,-0.0999579206109047,-0.6873864531517029
1725629617994326800,2.335326904296875,0.678317666053772,-0.1133807823061943,-0.6785498261451721
1725629618004279800,2.34527978515625,0.6552665829658508,-0.05812564864754677,-0.6269561648368835
1725629618014232800,2.35523291015625,0.6447974443435669,-0.08406776934862137,-0.6480571627616882
1725629618024187000,2.365186767578125,0.6617358922958374,-0.1527879238128662,-0.6633087396621704
1725629618034140000,2.375139892578125,0.6733916997909546,-0.22555826604366302,-0.6774584054946899
1725629618044094000,2.385093994140625,0.6587268114089966,-0.3047211170196533,-0.7344788312911987
1725629618054047000,2.395046875,0.6479436755180359,-0.2829822599887848,-0.7235952615737915
1725629618064000000,2.405,0.6257004737854004,-0.27273836731910706,-0.6563811302185059
1725629618073953800,2.414953857421875,0.574022114276886,-0.25078219175338745,-0.5940711498260498
1725629618083906800,2.42490673828125,0.5463691353797913,-0.1917734146118164,-0.46421903371810913
1725629618093859800,2.43485986328125,0.5251482725143433,-0.18645162880420685,-0.36484503746032715
1725629618103814000,2.44481396484375,0.5133106112480164,-0.24287046492099762,-0.3292403221130371
1725629618113767000,2.454766845703125,0.47129660844802856,-0.281270295381546,-0.2568196654319763
1725629618123721000,2.464720947265625,0.39425671100616455,-0.25742295384407043,-0.2620714008808136
1725629618133674000,2.474674072265625,0.3832818269729614,-0.27914345264434814,-0.2396012544631958
1725629618143627000,2.484626953125,0.30546459555625916,-0.22472535073757172,-0.21880193054676056
1725629618153580800,2.494580810546875,0.32342442870140076,-0.08486411720514297,-0.18898625671863556
1725629618163533800,2.504533935546875,0.2665559649467468,-0.11200827360153198,-0.10212982445955276
1725629618173486800,2.51448681640625,0.29935094714164734,-0.22807015478610992,-0.10416688024997711
1725629618183441000,2.52444091796875,0.28864189982414246,-0.28612321615219116,-0.08658093959093094
1725629618193394000,2.534393798828125,0.20447856187820435,-0.021260662004351616,-0.11891677230596542
1725629618203348000,2.544347900390625,0.28918129205703735,-0.20320701599121094,-0.16723453998565674
1725629618213301000,2.554301025390625,0.20702144503593445,-0.2234659492969513,-0.1335468888282776
1725629618223254000,2.56425390625,0.17294342815876007,0.0007750808726996183,-0.13027018308639526
1725629618233208000,2.5742080078125,0.1411663293838501,-0.058988384902477264,0.020470857620239258
1725629618243161000,2.5841611328125,0.044603995978832245,-0.041558608412742615,0.10331945866346359
1725629618253114000,2.594114013671875,0.014401882886886597,0.03590555489063263,0.14363572001457214
1725629618263068000,2.60406787109375,-0.011655237525701523,-0.08331954479217529,0.2422572374343872
1725629618273021000,2.61402099609375,-0.049876924604177475,-0.09219825267791748,0.24448657035827637
1725629618282975000,2.62397509765625,-0.1422262191772461,-0.0009659482166171074,0.22920963168144226
1725629618292928000,2.633927978515625,-0.10702135413885117,-0.09323675185441971,0.23196813464164734
1725629618302881000,2.643881103515625,-0.13363204896450043,-0.14578326046466827,0.2961662709712982
1725629618312835000,2.6538349609375,-0.15635068714618683,-0.1660861223936081,0.3352247178554535
1725629618322788000,2.6637880859375,-0.14478133618831635,-0.26454341411590576,0.30296531319618225
1725629618332740900,2.673740966796875,-0.19077838957309723,-0.1788782775402069,0.4522181749343872
1725629618342695000,2.68369482421875,-0.2464015781879425,-0.06377790868282318,0.46379274129867554
1725629618352647700,2.693647705078125,-0.22979198396205902,-0.22988830506801605,0.4757061004638672
1725629618362600700,2.7036005859375,-0.2839268147945404,-0.15882176160812378,0.5712186694145203
1725629618372554800,2.7135546875,-0.35763299465179443,-0.08135653287172318,0.5708333253860474
1725629618382507800,2.7235078125,-0.40445858240127563,-0.07067568600177765,0.512479841709137
1725629618392461800,2.7334619140625,-0.3987181484699249,-0.09004485607147217,0.4619886875152588
1725629618402414800,2.743414794921875,-0.38610291481018066,-0.19035391509532928,0.42751309275627136
1725629618412368000,2.753367919921875,-0.3912438750267029,-0.07922099530696869,0.4776412546634674
1725629618422322000,2.763322021484375,-0.3716394901275635,-0.06034095957875252,0.43936431407928467
1725629618432274200,2.773274169921875,-0.3477480113506317,-0.14327658712863922,0.34368786215782166
1725629618442227200,2.783227294921875,-0.3103799819946289,-0.18720665574073792,0.2934730052947998
1725629618452181000,2.793180908203125,-0.2759000360965729,-0.21014446020126343,0.27022868394851685
1725629618462134000,2.803134033203125,-0.2677813470363617,-0.22390195727348328,0.2625388503074646
1725629618472088000,2.813088134765625,-0.2387198805809021,-0.286196768283844,0.2573204040527344
1725629618482041000,2.823041015625,-0.22064121067523956,-0.3986729681491852,0.23513087630271912
1725629618491994000,2.832994140625,-0.18864892423152924,-0.5072833299636841,0.23029431700706482
1725629618501948200,2.8429482421875,-0.15888762474060059,-0.6118509769439697,0.21016301214694977
1725629618511901200,2.852901123046875,-0.14495475590229034,-0.6857214570045471,0.18829205632209778
1725629618521854200,2.862854248046875,-0.12956202030181885,-0.7239616513252258,0.16911374032497406
1725629618531808300,2.872808349609375,-0.11393113434314728,-0.6913408637046814,0.22209332883358002
1725629618541761300,2.88276123046875,-0.15238960087299347,-0.6810384392738342,0.2207072228193283
1725629618551714300,2.89271435546875,-0.1832287311553955,-0.6208823919296265,0.2473319172859192
1725629618561668000,2.902668212890625,-0.21079087257385254,-0.4989537298679352,0.33719784021377563
1725629618571621000,2.91262109375,-0.272915244102478,-0.49594011902809143,0.3293617367744446
1725629618581575200,2.9225751953125,-0.2959178686141968,-0.5242206454277039,0.29286572337150574
1725629618591528200,2.932528076171875,-0.3112073540687561,-0.5752766132354736,0.25109243392944336
1725629618601481200,2.942481201171875,-0.33832815289497375,-0.6709750294685364,0.16945160925388336
1725629618611435300,2.952435302734375,-0.3207739293575287,-0.8064447045326233,0.1607489287853241
1725629618621388300,2.96238818359375,-0.4027556777000427,-0.509753942489624,0.16459956765174866
1725629618631341300,2.97234130859375,-0.3812812864780426,-0.605628252029419,0.18523508310317993
1725629618641295000,2.982295166015625,-0.4443892240524292,-0.3957616686820984,0.20716266334056854
1725629618651248000,2.992248046875,-0.39550504088401794,-0.5332151055335999,0.24601870775222778
1725629618661202200,3.0022021484375,-0.40637505054473877,-0.5251609086990356,0.2613804042339325
1725629618671155200,3.0121552734375,-0.39124083518981934,-0.5195009112358093,0.23932331800460815
1725629618681108200,3.022108154296875,-0.40883806347846985,-0.5307692289352417,0.18581990897655487
1725629618691062300,3.032062255859375,-0.41023489832878113,-0.38468900322914124,0.19467519223690033
1725629618701015300,3.042015380859375,-0.38684824109077454,-0.26703962683677673,0.2239173799753189
1725629618710968300,3.05196826171875,-0.3953112065792084,-0.16229990124702454,0.28452613949775696
1725629618720922000,3.061922119140625,-0.37936636805534363,-0.03778713196516037,0.3621986210346222
1725629618730875100,3.071875244140625,-0.3771258592605591,-0.01967763528227806,0.40029460191726685
1725629618740829200,3.0818291015625,-0.3527300953865051,-0.02149970270693302,0.41977718472480774
1725629618750782200,3.0917822265625,-0.37333470582962036,-0.009446500800549984,0.42933952808380127
1725629618760735000,3.10173486328125,-0.3524758219718933,0.023388687521219254,0.4070911705493927
1725629618770689300,3.111689208984375,-0.3579041361808777,-0.06799475848674774,0.4184407591819763
1725629618780642000,3.12164208984375,-0.38160988688468933,0.1300855576992035,0.40461137890815735
1725629618790595000,3.131594970703125,-0.4266982674598694,0.19575591385364532,0.4043080508708954
1725629618800549000,3.141549072265625,-0.45934435725212097,0.25038886070251465,0.4722422659397125
1725629618810502100,3.151502197265625,-0.49600914120674133,0.35745567083358765,0.5074870586395264
1725629618820456000,3.1614560546875,-0.5411051511764526,0.3794378936290741,0.5164766907691956
1725629618830409000,3.171408935546875,-0.5690481066703796,0.3441731035709381,0.5398544669151306
1725629618840362000,3.181362060546875,-0.5988394618034363,0.3507070243358612,0.5258342623710632
1725629618850316000,3.19131591796875,-0.6040621995925903,0.35664987564086914,0.5516126155853271
1725629618860269000,3.20126904296875,-0.6047949194908142,0.3760097324848175,0.5721389055252075
1725629618870222000,3.21122216796875,-0.6018670797348022,0.41449853777885437,0.5978509187698364
1725629618880176000,3.221176025390625,-0.5990469455718994,0.3949745297431946,0.6138318181037903
1725629618890129200,3.231129150390625,-0.596777617931366,0.3748045563697815,0.6121519207954407
1725629618900083000,3.2410830078125,-0.5979217886924744,0.3795430064201355,0.6122555136680603
1725629618910036000,3.251035888671875,-0.5817644000053406,0.4211556911468506,0.6148491501808167
1725629618919989000,3.260989013671875,-0.5741519927978516,0.4418239891529083,0.5934233665466309
1725629618929943000,3.270943115234375,-0.5625579357147217,0.4322341978549957,0.5753586292266846
1725629618939896000,3.28089599609375,-0.5280769467353821,0.41003209352493286,0.561640739440918
1725629618949849000,3.29084912109375,-0.499397337436676,0.3621646761894226,0.5076904296875
1725629618959803100,3.30080322265625,-0.4582499861717224,0.32305485010147095,0.48559486865997314
1725629618969756200,3.310756103515625,-0.39730727672576904,0.33824607729911804,0.4671887159347534
1725629618979710200,3.320710205078125,-0.3530462384223938,0.37707504630088806,0.4429304301738739
1725629618989663200,3.330663330078125,-0.3100750744342804,0.3791126310825348,0.4218507409095764
1725629618999616300,3.3406162109375,-0.26785069704055786,0.3279810845851898,0.41412919759750366
1725629619009570000,3.350570068359375,-0.23692554235458374,0.33954691886901855,0.3566611111164093
1725629619019523000,3.360523193359375,-0.20861907303333282,0.27570900321006775,0.33780765533447266
1725629619029476000,3.37047607421875,-0.19542230665683746,0.22481387853622437,0.29989758133888245
1725629619039430100,3.38043017578125,-0.16041439771652222,0.1887236386537552,0.2597278654575348
1725629619049383200,3.390383056640625,-0.11796759068965912,0.13519462943077087,0.2384399026632309
1725629619059337200,3.400337158203125,-0.09097953140735626,0.12821894884109497,0.2165154665708542
1725629619069290200,3.410290283203125,-0.037559445947408676,0.17324207723140717,0.23662632703781128
1725629619079243300,3.4202431640625,-0.021527105942368507,0.13530823588371277,0.20622298121452332
1725629619089197000,3.430197021484375,0.017399786040186882,0.11651298403739929,0.18315227329730988
1725629619099150000,3.440150146484375,0.03502584621310234,0.049990251660346985,0.1401652991771698
1725629619109104000,3.450104248046875,0.0863737165927887,0.0011188527569174767,0.09356317669153214
1725629619119057200,3.46005712890625,0.1139419749379158,-0.013035144656896591,0.060881681740283966
1725629619129010200,3.47001025390625,0.13113534450531006,-0.05755121260881424,0.03389240801334381
1725629619138964200,3.479964111328125,0.17020079493522644,-0.1274721622467041,-0.007052730768918991
1725629619148917200,3.489917236328125,0.19432424008846283,-0.1252603977918625,-0.008600027300417423
1725629619158870300,3.499870361328125,0.20575876533985138,-0.12463825941085815,-0.022173121571540833
1725629619168824300,3.50982421875,0.22981776297092438,-0.12031648308038712,-0.02703871764242649
1725629619178777300,3.51977734375,0.2540445327758789,-0.15275971591472626,-0.055601317435503006
1725629619188731100,3.529731201171875,0.2650865316390991,-0.24063870310783386,-0.12628374993801117
1725629619198684200,3.53968408203125,0.2980141341686249,-0.2882923483848572,-0.17165279388427734
1725629619208637200,3.54963720703125,0.3258625566959381,-0.33857521414756775,-0.21018128097057343
1725629619218591200,3.55959130859375,0.35246121883392334,-0.3253692090511322,-0.23651660978794098
1725629619228544300,3.569544189453125,0.37430739402770996,-0.3061254918575287,-0.26872727274894714
1725629619238497300,3.579497314453125,0.38158541917800903,-0.310232549905777,-0.23522581160068512
1725629619248451300,3.589451416015625,0.4602711796760559,-0.2002144455909729,-0.24367709457874298
1725629619258404400,3.599404296875,0.48353147506713867,-0.16551025211811066,-0.28631481528282166
1725629619268358100,3.609358154296875,0.521837592124939,-0.2049250453710556,-0.3434465527534485
1725629619278311200,3.619311279296875,0.5671138763427734,-0.1765213906764984,-0.37745124101638794
1725629619288264000,3.629263916015625,0.6166249513626099,-0.08847807347774506,-0.4074954092502594
1725629619298218200,3.63921826171875,0.6113623976707458,-0.03464532271027565,-0.45668622851371765
1725629619308171000,3.6491708984375,0.6385338306427002,0.023478703573346138,-0.5051725506782532
1725629619318124000,3.6591240234375,0.6462314128875732,0.06737997382879257,-0.5201285481452942
1725629619328078000,3.669078125,0.6527108550071716,0.13110782206058502,-0.5182999968528748
1725629619338031000,3.679031005859375,0.6367698907852173,0.15918122231960297,-0.5186144113540649
1725629619347985200,3.688985107421875,0.6552202701568604,0.21769993007183075,-0.48561811447143555
1725629619357938200,3.698938232421875,0.6692177057266235,0.2558799386024475,-0.45385488867759705
1725629619367891200,3.70889111328125,0.6929717659950256,0.32913658022880554,-0.4110938608646393
1725629619377845000,3.718844970703125,0.6965641975402832,0.35120251774787903,-0.4461251199245453
1725629619387798000,3.728798095703125,0.6916291117668152,0.330210417509079,-0.4757802188396454
1725629619397752000,3.738751953125,0.6924412846565247,0.3627282679080963,-0.4476592242717743
1725629619407705000,3.748705078125,0.7052097916603088,0.4274348318576813,-0.4328693747520447
1725629619417658000,3.758658203125,0.7088945508003235,0.45262619853019714,-0.42366522550582886
1725629619427612700,3.76861279296875,0.7136203646659851,0.4629068076610565,-0.40453678369522095
1725629619437565700,3.778565673828125,0.7286281585693359,0.47543567419052124,-0.3889576196670532
1725629619447518700,3.788518798828125,0.7005909085273743,0.42836669087409973,-0.42150625586509705
1725629619457472800,3.79847265625,0.6727916598320007,0.40307319164276123,-0.44552287459373474
1725629619467425800,3.80842578125,0.649999737739563,0.39378035068511963,-0.44377371668815613
1725629619477378800,3.81837890625,0.6135888695716858,0.3623061776161194,-0.47181740403175354
1725629619487332900,3.828332763671875,0.5487515330314636,0.3490614891052246,-0.46563276648521423
1725629619497286000,3.838285888671875,0.48353663086891174,0.34251928329467773,-0.46717166900634766
1725629619507240000,3.848239990234375,0.4277665913105011,0.3373141586780548,-0.4563206434249878
1725629619517193000,3.85819287109375,0.39005836844444275,0.32749655842781067,-0.4602227509021759
1725629619527146000,3.86814599609375,0.34670770168304443,0.28921759128570557,-0.4493911564350128
1725629619537099800,3.878099853515625,0.29855185747146606,0.21935011446475983,-0.4550304114818573
1725629619547052800,3.888052734375,0.2513563632965088,0.22687381505966187,-0.39598679542541504
1725629619557006800,3.8980068359375,0.2093752920627594,0.20392625033855438,-0.37269118428230286
1725629619566959900,3.9079599609375,0.15440072119235992,0.1429547667503357,-0.38585200905799866
1725629619576913000,3.917912841796875,0.1014476865530014,0.13920029997825623,-0.3714136481285095
1725629619586867000,3.927866943359375,0.10039947181940079,0.15348441898822784,-0.34066638350486755
1725629619596820000,3.937820068359375,0.06459777802228928,0.11734408140182495,-0.2898421287536621
1725629619606772700,3.947772705078125,0.044558823108673096,0.017106959596276283,-0.3118635416030884
1725629619616726800,3.957726806640625,0.06743679195642471,-0.04758881777524948,-0.2818790078163147
1725629619626679600,3.967679443359375,0.11178375035524368,-0.1076928973197937,-0.28793901205062866
1725629619636633900,3.9776337890625,0.08711249381303787,0.028399690985679626,-0.23979094624519348
1725629619646586600,3.987586669921875,0.13143254816532135,0.03358619660139084,-0.18700549006462097
1725629619656539600,3.99753955078125,0.10405032336711884,0.08367583900690079,-0.16575182974338531
1725629619666493700,4.00749365234375,0.02025742083787918,0.21266311407089233,-0.12119234353303909
1725629619676446700,4.01744677734375,0.04808376729488373,0.007323875557631254,-0.050232142210006714
1725629619686399700,4.027399658203125,0.007136600092053413,0.0006244272808544338,0.01906064711511135
1725629619696353800,4.037353759765625,-0.03621218726038933,0.013852310366928577,0.07195042073726654
1725629619706306800,4.047306884765625,-0.050698984414339066,0.0031035260763019323,0.09756230562925339
1725629619716260600,4.057260498046875,-0.05086389183998108,-0.09274260699748993,0.17763696610927582
1725629619726213600,4.067213623046875,-0.038976605981588364,-0.09214525669813156,0.2034837305545807
1725629619736166700,4.077166748046875,-0.028488148003816605,-0.08879532665014267,0.1960056573152542
1725629619746120700,4.08712060546875,-0.010922471061348915,-0.13683262467384338,0.19427913427352905
1725629619756073700,4.09707373046875,-0.009787440299987793,-0.2015620917081833,0.20048877596855164
1725629619766026800,4.10702685546875,-0.001973725389689207,-0.2695621848106384,0.16780060529708862
1725629619775980800,4.116980712890625,0.030744271352887154,-0.19124896824359894,0.2727665603160858
1725629619785933800,4.126933837890625,-0.0034235515631735325,-0.14836834371089935,0.2601221203804016
1725629619795887600,4.1368876953125,-0.017067499458789825,-0.21888896822929382,0.2065671682357788
1725629619805840600,4.146840576171875,-0.00023285811766982079,-0.31353557109832764,0.17172689735889435
1725629619815793700,4.156793701171875,0.01826695166528225,-0.40452614426612854,0.11477669328451157
1725629619825747700,4.166747802734375,0.047966256737709045,-0.42987412214279175,0.05938214063644409
1725629619835700700,4.17670068359375,0.0779598280787468,-0.40237027406692505,0.04358154162764549
1725629619845653800,4.18665380859375,0.10130669176578522,-0.3320486843585968,0.07555918395519257
1725629619855607800,4.19660791015625,0.1087583601474762,-0.2653060555458069,0.09840454906225204
1725629619865560800,4.206560791015625,0.09445212781429291,-0.2519657611846924,0.07880021631717682
1725629619875514600,4.2165146484375,0.056691404432058334,-0.22704987227916718,0.06039050221443176
1725629619885467600,4.226467529296875,0.006360323633998632,-0.2606765329837799,0.03213489428162575
1725629619895420700,4.236420654296875,-0.027542775496840477,-0.2731868028640747,0.014469633810222149
1725629619905374700,4.246374755859375,-0.07328443229198456,-0.25856178998947144,-0.0180430356413126
1725629619915327700,4.25632763671875,-0.1246539056301117,-0.22494828701019287,-0.058000657707452774
1725629619925280800,4.26628076171875,-0.16453392803668976,-0.173012375831604,-0.053442392498254776
1725629619935234800,4.27623486328125,-0.19906295835971832,-0.1306944191455841,-0.03036445379257202
1725629619945187800,4.286187744140625,-0.22858355939388275,-0.09012863039970398,0.008987479843199253
1725629619955140900,4.296140869140625,-0.25591057538986206,-0.050755761563777924,0.039081063121557236
1725629619965095000,4.306094970703125,-0.2834668457508087,-0.037410661578178406,0.03725573420524597
1725629619975048000,4.3160478515625,-0.30535876750946045,-0.06898929923772812,0.011055300943553448
1725629619985001700,4.326001708984375,-0.3361808657646179,-0.0901518389582634,-0.013983739539980888
1725629619994954800,4.335954833984375,-0.3654320538043976,-0.07590153813362122,-0.026682453230023384
1725629620004907800,4.34590771484375,-0.4088596999645233,-0.081859290599823,-0.0368698425590992
1725629620014861800,4.35586181640625,-0.4186202883720398,-0.04034892097115517,-0.013203215785324574
1725629620024814800,4.36581494140625,-0.44304439425468445,-0.0623231939971447,-0.03602490946650505
1725629620034768000,4.375767822265625,-0.4615216553211212,-0.0605635792016983,-0.06478650867938995
1725629620044722000,4.385721923828125,-0.46510571241378784,-0.038617268204689026,-0.04904722049832344
1725629620054675000,4.395675048828125,-0.47350481152534485,-0.10892650485038757,-0.04513510689139366
1725629620064628700,4.405628662109375,-0.5133885741233826,-0.05835067480802536,-0.05046355724334717
1725629620074581800,4.415581787109375,-0.5480478405952454,-0.0915658175945282,-0.06151038035750389
1725629620084534800,4.42553466796875,-0.5598376989364624,-0.19999189674854279,-0.054437823593616486
1725629620094488800,4.43548876953125,-0.5850573778152466,-0.1656627655029297,-0.028530487790703773
1725629620104441900,4.44544189453125,-0.6246578097343445,-0.16823086142539978,-0.036429423838853836
1725629620114394600,4.45539453125,-0.6066429615020752,-0.17757390439510345,-0.005079127848148346
1725629620124349000,4.465348876953125,-0.5972798466682434,-0.0864807516336441,0.08786199241876602
1725629620134301700,4.4753017578125,-0.5797502398490906,-0.06966432183980942,0.14360767602920532
1725629620144256000,4.485256103515625,-0.5684901475906372,-0.057056915014982224,0.22889940440654755
1725629620154208800,4.495208740234375,-0.5420185327529907,-0.029143990948796272,0.3046939969062805
1725629620164161800,4.505161865234375,-0.5291315317153931,-0.038044273853302,0.3394293487071991
1725629620174115600,4.515115478515625,-0.5376437902450562,-0.04236431047320366,0.32022735476493835
1725629620184068600,4.525068603515625,-0.5587618947029114,-0.02954411879181862,0.33365076780319214
1725629620194021600,4.535021728515625,-0.5506253242492676,0.06271841377019882,0.39750438928604126
1725629620203975700,4.5449755859375,-0.5440675616264343,0.14249074459075928,0.460170716047287
1725629620213928700,4.5549287109375,-0.5506305694580078,0.13745130598545074,0.5010217428207397
1725629620223881700,4.5648818359375,-0.5468422174453735,0.16545338928699493,0.5688324570655823
1725629620233835800,4.574835693359375,-0.5553346276283264,0.1946299821138382,0.6433740854263306
1725629620243788800,4.584788818359375,-0.5650522112846375,0.2148772031068802,0.6463147401809692
1725629620253742600,4.59474267578125,-0.6053358316421509,0.21628428995609283,0.6694930195808411
1725629620263695600,4.604695556640625,-0.6456869840621948,0.23122301697731018,0.7160104513168335
1725629620273648600,4.614648681640625,-0.6979255080223083,0.18874116241931915,0.7306585311889648
1725629620283602700,4.624602783203125,-0.7461388111114502,0.11612927168607712,0.7403998374938965
1725629620293555700,4.6345556640625,-0.7632842659950256,0.06625360995531082,0.7576197981834412
1725629620303508700,4.6445087890625,-0.769081711769104,0.061447400599718094,0.754347026348114
1725629620313462800,4.654462890625,-0.7695404291152954,0.034876126796007156,0.7200207114219666
1725629620323415800,4.664415771484375,-0.7686061859130859,0.008636530488729477,0.6777792572975159
1725629620333368800,4.674368896484375,-0.7791902422904968,-0.020478324964642525,0.6451200246810913
1725629620343323000,4.684322998046875,-0.7694750428199768,-0.01289577130228281,0.6207786798477173
1725629620353275600,4.694275634765625,-0.7359936833381653,-0.03513696417212486,0.5722063779830933
1725629620363229700,4.704229736328125,-0.6967117786407471,-0.12420638650655746,0.5307585597038269
1725629620373182700,4.7141826171875,-0.6272485256195068,-0.102833591401577,0.5469929575920105
1725629620383135700,4.7241357421875,-0.588994026184082,-0.017391398549079895,0.5337024331092834
1725629620393089800,4.73408984375,-0.549269437789917,-0.01475291233509779,0.5299784541130066
1725629620403042800,4.744042724609375,-0.5010182857513428,-0.08416980504989624,0.49876245856285095
1725629620412995800,4.753995849609375,-0.4383937120437622,-0.13784672319889069,0.47064629197120667
1725629620422950000,4.763949951171875,-0.36368271708488464,-0.10844514518976212,0.46254947781562805
1725629620432902400,4.77390234375,-0.2925790250301361,-0.06374581158161163,0.4571579694747925
1725629620442856400,4.7838564453125,-0.2129579484462738,-0.011705243960022926,0.46503132581710815
1725629620452809200,4.793809326171875,-0.14305448532104492,0.06945290416479111,0.44945618510246277
1725629620462762200,4.80376220703125,-0.09522011131048203,0.0519290417432785,0.4209451973438263
1725629620472716300,4.81371630859375,-0.05288340896368027,0.015202974900603294,0.3706178665161133
1725629620482669300,4.82366943359375,-0.018648207187652588,-0.031421251595020294,0.3367600440979004
1725629620492622300,4.833622314453125,0.015668706968426704,-0.011843121610581875,0.32110023498535156
1725629620502576400,4.843576416015625,0.05630428344011307,-0.005290413275361061,0.2785807251930237
1725629620512529400,4.853529296875,0.08996067941188812,-0.041505876928567886,0.2527472972869873
1725629620522482400,4.863482421875,0.12015240639448166,-0.08771997690200806,0.24261930584907532
1725629620532436500,4.8734365234375,0.14895205199718475,-0.07732792943716049,0.1882663369178772
1725629620542389500,4.883389404296875,0.17297163605690002,-0.14190612733364105,0.1392066478729248
1725629620552343300,4.89334326171875,0.1916816532611847,-0.21643240749835968,0.07027382403612137
1725629620562296300,4.90329638671875,0.19713208079338074,-0.2548295855522156,0.027486946433782578
1725629620572249300,4.913249267578125,0.21606628596782684,-0.25089558959007263,-0.021931936964392662
1725629620582203400,4.923203369140625,0.26773908734321594,-0.27607232332229614,-0.07086565345525742
1725629620592156400,4.933156494140625,0.30643460154533386,-0.2895642817020416,-0.11065353453159332
1725629620602109400,4.943109375,0.3395627439022064,-0.29077866673469543,-0.14231903851032257
1725629620612063500,4.9530634765625,0.37963753938674927,-0.3159816861152649,-0.18138132989406586
1725629620622016500,4.9630166015625,0.42490461468696594,-0.3388233482837677,-0.21012721955776215
1725629620631969500,4.972969482421875,0.48062700033187866,-0.33840250968933105,-0.23140697181224823
1725629620641923300,4.98292333984375,0.5353670120239258,-0.33885204792022705,-0.25865137577056885
1725629620651876400,4.99287646484375,0.6131097674369812,-0.3154996335506439,-0.2652224898338318
1725629620661830400,5.002830322265625,0.7034643888473511,-0.22541049122810364,-0.257216215133667
1725629620671783400,5.012783447265625,0.7776405811309814,-0.17461223900318146,-0.2925930917263031
1725629620681736400,5.022736328125,0.8486260771751404,-0.0931064635515213,-0.29856789112091064
1725629620691690500,5.0326904296875,0.9202850461006165,0.018946122378110886,-0.3042077422142029
1725629620701643500,5.0426435546875,0.9616719484329224,0.15045887231826782,-0.3210764527320862
1725629620711596500,5.052596435546875,0.9599133729934692,0.22684195637702942,-0.3863906264305115
1725629620721550600,5.062550537109375,0.9219009876251221,0.282304972410202,-0.44067251682281494
1725629620731503400,5.07250341796875,0.8745258450508118,0.3684788644313812,-0.4681078791618347
1725629620741456400,5.082456298828125,0.789776086807251,0.38817399740219116,-0.50739586353302
1725629620751410400,5.092410400390625,0.7285233736038208,0.41206568479537964,-0.5286167860031128
1725629620761363500,5.102363525390625,0.6498833894729614,0.35431504249572754,-0.5538017153739929
1725629620771317500,5.1123173828125,0.6108710169792175,0.312782883644104,-0.5272760391235352
1725629620781270500,5.1222705078125,0.594105064868927,0.2528460621833801,-0.5410251617431641
1725629620791223600,5.1322236328125,0.5812320709228516,0.19363220036029816,-0.5826575756072998
1725629620802420500,5.14342041015625,0.6042383313179016,0.22550703585147858,-0.5695564150810242
1725629620812374300,5.153374267578125,0.6260003447532654,0.2581084370613098,-0.5647669434547424
1725629620822327300,5.163327392578125,0.6214444637298584,0.27650874853134155,-0.6053979396820068
1725629620832280300,5.1732802734375,0.6237925291061401,0.3305513858795166,-0.6071590781211853
1725629620842234400,5.183234375,0.6069060564041138,0.3503405451774597,-0.6169475317001343
1725629620852187400,5.1931875,0.5819682478904724,0.3672373592853546,-0.5780218243598938
1725629620862140400,5.203140380859375,0.5551366209983826,0.38005462288856506,-0.5480197072029114
1725629620872094500,5.213094482421875,0.49935421347618103,0.34637171030044556,-0.5045477747917175
1725629620882047500,5.223047607421875,0.4654090106487274,0.3662277162075043,-0.43320170044898987
1725629620892000500,5.23300048828125,0.4143202602863312,0.32179614901542664,-0.39313769340515137
1725629620901954300,5.242954345703125,0.38301241397857666,0.3748023808002472,-0.36424294114112854
1725629620911907300,5.2529072265625,0.35597068071365356,0.43006646633148193,-0.3354300856590271
1725629620921860400,5.2628603515625,0.30836907029151917,0.4236160218715668,-0.32213637232780457
1725629620931814400,5.272814453125,0.23497849702835083,0.34643083810806274,-0.3335494101047516
1725629620941767400,5.282767333984375,0.18576301634311676,0.26369708776474,-0.35276544094085693
1725629620951721500,5.292721435546875,0.1617528647184372,0.21655160188674927,-0.3310137987136841
1725629620961674500,5.302674560546875,0.16114354133605957,0.19796113669872284,-0.3112512528896332
1725629620971627500,5.31262744140625,0.18971745669841766,0.13798871636390686,-0.28951600193977356
1725629620981581600,5.32258154296875,0.18093116581439972,0.11422372609376907,-0.2528213560581207
1725629620991534600,5.33253466796875,0.16032905876636505,0.12284629791975021,-0.2100311815738678
1725629621001487600,5.342487548828125,0.05361646041274071,0.12062441557645798,-0.22565755248069763
1725629621011441400,5.35244140625,0.020423389971256256,-0.052727095782756805,-0.24131226539611816
1725629621021394400,5.36239453125,-0.004621775355190039,-0.11427674442529678,-0.25545233488082886
1725629621031347500,5.372347412109375,-0.0013257225509732962,-0.12431028485298157,-0.19290661811828613
1725629621041301500,5.382301513671875,0.03598330169916153,-0.13009759783744812,-0.1557142436504364
1725629621051254500,5.392254638671875,0.010690318420529366,-0.1609107106924057,-0.09522051364183426
1725629621061208600,5.40220849609375,0.01318570040166378,-0.15391990542411804,-0.06825201213359833
1725629621071161600,5.41216162109375,-0.008728363551199436,-0.13975490629673004,-0.04552958533167839
1725629621081114600,5.422114501953125,0.027355870231986046,-0.24850349128246307,0.02023371122777462
1725629621091068400,5.432068359375,0.05864870920777321,-0.28922325372695923,0.033955954015254974
1725629621101021400,5.442021484375,0.08911740034818649,-0.3383524417877197,0.05789590999484062
1725629621110974500,5.451974365234375,0.1062849760055542,-0.33288267254829407,0.01953703910112381
1725629621120928500,5.461928466796875,0.10727274417877197,-0.31739985942840576,0.011124112643301487
1725629621130881500,5.471881591796875,0.12805649638175964,-0.32475873827934265,0.0532633475959301
1725629621140834300,5.481834228515625,0.10520736873149872,-0.2568880617618561,0.07708080112934113
1725629621150788600,5.49178857421875,0.032137490808963776,-0.26823845505714417,0.08546489477157593
1725629621160741400,5.501741455078125,0.025024190545082092,-0.2593189775943756,0.1532370150089264
1725629621170695400,5.5116953125,-0.0016119296196848154,-0.2867736518383026,0.17999373376369476
1725629621180648400,5.5216484375,-0.0178457610309124,-0.24471299350261688,0.23345910012722015
1725629621190601500,5.5316015625,-0.027358856052160263,-0.1860215961933136,0.2831971347332001
1725629621200555300,5.54155517578125,-0.07097610831260681,-0.1049448549747467,0.2933664321899414
1725629621210508300,5.55150830078125,-0.02465929090976715,-0.20582419633865356,0.30341556668281555
1725629621220461300,5.56146142578125,-0.01791643351316452,-0.22151261568069458,0.28799694776535034
1725629621230415400,5.571415283203125,-0.01204276829957962,-0.22576037049293518,0.2831556499004364
1725629621240368400,5.581368408203125,-0.017263896763324738,-0.18628300726413727,0.28990438580513
1725629621250321400,5.5913212890625,-0.023354018107056618,-0.19472286105155945,0.2731500566005707
1725629621260275500,5.601275390625,-0.015768269076943398,-0.23391100764274597,0.24748435616493225
1725629621270228500,5.611228515625,-0.0070001790300011635,-0.3154522180557251,0.19624410569667816
1725629621280181500,5.621181396484375,0.012476049363613129,-0.41334283351898193,0.13737493753433228
1725629621290135300,5.63113525390625,0.031201781705021858,-0.5261393189430237,0.05383322760462761
1725629621300088300,5.64108837890625,0.047610051929950714,-0.5924954414367676,-0.007533992640674114
1725629621310042400,5.65104248046875,0.06800324469804764,-0.6803064346313477,-0.05611856281757355
1725629621319995400,5.660995361328125,0.04339857026934624,-0.669741153717041,-0.05969998240470886
1725629621329948400,5.670948486328125,0.007587492931634188,-0.6516943573951721,-0.0359528586268425
1725629621339902500,5.68090234375,-0.027756916359066963,-0.676871657371521,-0.005531305447220802
1725629621349855500,5.69085546875,-0.07092572748661041,-0.7467412948608398,-0.022166484966874123
1725629621359808500,5.70080859375,-0.09083126485347748,-0.7527986764907837,-0.009223787114024162
1725629621369762300,5.71076220703125,-0.09598497301340103,-0.7322097420692444,0.022147459909319878
1725629621379715300,5.72071533203125,-0.09655781835317612,-0.6968194842338562,0.04303383454680443
1725629621389668400,5.73066845703125,-0.08420584350824356,-0.6256906390190125,0.07222748547792435
1725629621399622400,5.740622314453125,-0.08035304397344589,-0.5626030564308167,0.13914579153060913
1725629621409575400,5.750575439453125,-0.10390492528676987,-0.5148718953132629,0.21120107173919678
1725629621419529500,5.760529541015625,-0.12169723957777023,-0.44885504245758057,0.25668519735336304
1725629621429482500,5.770482421875,-0.13536594808101654,-0.3885340094566345,0.30174121260643005
1725629621439436000,5.78043603515625,-0.148854598402977,-0.3209509551525116,0.3283725678920746
1725629621449389800,5.790389892578125,-0.14279723167419434,-0.261301189661026,0.31856030225753784
1725629621459342800,5.8003427734375,-0.14617225527763367,-0.23914475739002228,0.29639559984207153
1725629621469295900,5.8102958984375,-0.13768929243087769,-0.23436123132705688,0.3108958303928375
1725629621479250000,5.82025,-0.16506819427013397,-0.08838484436273575,0.2776648998260498
1725629621489203000,5.830202880859375,-0.2083984762430191,-0.0486421175301075,0.25954940915107727
1725629621499157000,5.840156982421875,-0.24257349967956543,0.00043355199159123003,0.2752649784088135
1725629621509110000,5.850110107421875,-0.2967177927494049,0.007194923236966133,0.2642967104911804
1725629621519063000,5.86006298828125,-0.29890504479408264,0.06183020398020744,0.29068997502326965
1725629621529017000,5.87001708984375,-0.35821017622947693,0.0776665136218071,0.2583213448524475
1725629621538970000,5.87997021484375,-0.4120616912841797,0.061099786311388016,0.2318716049194336
1725629621548923000,5.8899228515625,-0.4342590570449829,0.1173957958817482,0.25200116634368896
1725629621558877000,5.899876953125,-0.4480622410774231,0.14845678210258484,0.23001225292682648
1725629621568829700,5.90982958984375,-0.48669612407684326,0.15580636262893677,0.20080195367336273
1725629621578782700,5.91978271484375,-0.5073012709617615,0.1866404414176941,0.2106519192457199
1725629621588737000,5.929737060546875,-0.5256792306900024,0.18527036905288696,0.21094651520252228
1725629621598689800,5.939689697265625,-0.5791062116622925,0.20121099054813385,0.21591757237911224
1725629621608644000,5.94964404296875,-0.6248714327812195,0.19089438021183014,0.21238450706005096
1725629621618596900,5.959596923828125,-0.6608662009239197,0.22808170318603516,0.24846048653125763
1725629621628550000,5.9695498046875,-0.6382153630256653,0.25710809230804443,0.2840760052204132
1725629621638503700,5.979503662109375,-0.6213024258613586,0.2936282753944397,0.2788114547729492
1725629621648456700,5.989456787109375,-0.605588972568512,0.32351183891296387,0.2571435570716858
1725629621658409700,5.99940966796875,-0.5975819230079651,0.346432626247406,0.24518278241157532
1725629621668363800,6.00936376953125,-0.6081821322441101,0.38980579376220703,0.23637808859348297
1725629621678316800,6.01931689453125,-0.6313047409057617,0.38531917333602905,0.23327603936195374
1725629621688269800,6.029269775390625,-0.6449211835861206,0.4024556577205658,0.24773356318473816
1725629621698223900,6.039223876953125,-0.664908230304718,0.42787685990333557,0.2482965588569641
1725629621708177000,6.049177001953125,-0.6747413873672485,0.42177197337150574,0.25662314891815186
1725629621718130000,6.0591298828125,-0.6797513365745544,0.3982091248035431,0.2540092468261719
1725629621728084000,6.069083984375,-0.6924168467521667,0.3589746654033661,0.26152974367141724
1725629621738037000,6.079037109375,-0.6866838335990906,0.3453856110572815,0.3099513351917267
1725629621747990800,6.08899072265625,-0.6778548955917358,0.35215431451797485,0.32318446040153503
1725629621757943800,6.09894384765625,-0.6593509316444397,0.35519590973854065,0.36017096042633057
1725629621767896800,6.108896728515625,-0.6316551566123962,0.32187509536743164,0.38707107305526733
1725629621777851000,6.118850830078125,-0.5815672278404236,0.26484403014183044,0.39097580313682556
1725629621787804000,6.128803955078125,-0.5346049666404724,0.2917719781398773,0.4139654338359833
1725629621797757000,6.1387568359375,-0.5050790309906006,0.33099421858787537,0.44064977765083313
1725629621807711000,6.1487109375,-0.47625717520713806,0.3275400996208191,0.4478846788406372
1725629621817664000,6.1586640625,-0.44402015209198,0.282490074634552,0.45228874683380127
1725629621827617000,6.168616943359375,-0.40289580821990967,0.21852149069309235,0.4321248233318329
1725629621837570800,6.17857080078125,-0.330699622631073,0.17048393189907074,0.4062010645866394
1725629621847523800,6.18852392578125,-0.24302683770656586,0.11872781068086624,0.3438340425491333
1725629621857478000,6.198477783203125,-0.1472577154636383,0.12165968120098114,0.2920193076133728
1725629621867431000,6.208430908203125,-0.05193661153316498,0.14517603814601898,0.22661885619163513
1725629621877384000,6.218384033203125,-0.0010470666456967592,0.15029650926589966,0.16671264171600342
1725629621887338000,6.228337890625,0.027493074536323547,0.16738924384117126,0.11392780393362045
1725629621897291000,6.238291015625,0.024405140429735184,0.10916507989168167,0.04676049202680588
1725629621907244000,6.248244140625,0.020225748419761658,0.03790530562400818,0.0003087311051785946
1725629621917197800,6.25819775390625,0.028830954805016518,-0.023688552901148796,-0.04010021314024925
1725629621927150800,6.26815087890625,0.06949985772371292,-0.03646872937679291,-0.08597661554813385
1725629621937104000,6.278103759765625,0.10495185852050781,-0.09856965392827988,-0.13202133774757385
1725629621947058000,6.288057861328125,0.13773281872272491,-0.11638684570789337,-0.1330406218767166
1725629621957011000,6.298010986328125,0.1611955463886261,-0.118544802069664,-0.16480201482772827
1725629621966964000,6.3079638671875,0.20092782378196716,-0.16169831156730652,-0.1961534023284912
1725629621976918000,6.31791796875,0.24183078110218048,-0.19256673753261566,-0.20859064161777496
1725629621986871000,6.32787109375,0.28768327832221985,-0.17437967658042908,-0.1904422640800476
1725629621996825000,6.3378251953125,0.33284488320350647,-0.176463320851326,-0.2090100795030594
1725629622006778000,6.347778076171875,0.3974671959877014,-0.14286106824874878,-0.2284129410982132
1725629622016731000,6.35773095703125,0.4673331081867218,-0.11169222742319107,-0.262919545173645
1725629622026685000,6.367684814453125,0.5226147174835205,-0.09467966109514236,-0.31637269258499146
1725629622036637700,6.3776376953125,0.6031745076179504,-0.1011468768119812,-0.35230752825737
1725629622046590700,6.3875908203125,0.6811707615852356,-0.04002724215388298,-0.3201046586036682
1725629622056544800,6.397544677734375,0.7239403128623962,0.04609006643295288,-0.28998297452926636
1725629622066497800,6.407497802734375,0.7470016479492188,0.10732010006904602,-0.28167593479156494
1725629622076450800,6.417450927734375,0.761935830116272,0.15566551685333252,-0.2645054757595062
1725629622086404900,6.42740478515625,0.7516739368438721,0.13540290296077728,-0.2811628580093384
1725629622096358000,6.43735791015625,0.7227956652641296,0.060075122863054276,-0.33467400074005127
1725629622106311000,6.447310791015625,0.6914640069007874,0.010344184935092926,-0.38079628348350525
1725629622116264700,6.4572646484375,0.6628084182739258,0.0005096638342365623,-0.4199223816394806
1725629622126217700,6.4672177734375,0.6314905285835266,-0.010472221300005913,-0.46028122305870056
1725629622136171800,6.477171875,0.6043369770050049,-0.03133862093091011,-0.502109944820404
1725629622146124800,6.487124755859375,0.6171762943267822,0.0011430918239057064,-0.49005135893821716
1725629622156077800,6.497077880859375,0.6522202491760254,0.04630258306860924,-0.47865837812423706
1725629622166032000,6.507031982421875,0.6550376415252686,0.03572811558842659,-0.5128697156906128
1725629622175985000,6.51698486328125,0.6705667972564697,0.00274353357963264,-0.5524924397468567
1725629622185938000,6.52693798828125,0.6655767560005188,0.005342587362974882,-0.5699566602706909
1725629622195892000,6.53689208984375,0.632093071937561,0.021359369158744812,-0.6087048649787903
1725629622205845000,6.546844970703125,0.5936700701713562,0.03248552605509758,-0.6237160563468933
1725629622215798000,6.556798095703125,0.5828840136528015,0.06634175777435303,-0.56537926197052
1725629622225751800,6.566751708984375,0.603915810585022,0.15209200978279114,-0.4895714819431305
1725629622235704800,6.576704833984375,0.6126171350479126,0.17202630639076233,-0.47799152135849
1725629622245659000,6.586658935546875,0.6135194897651672,0.1818331778049469,-0.4648176431655884
1725629622255612000,6.59661181640625,0.5874990820884705,0.2107125073671341,-0.4431038498878479
1725629622265565000,6.60656494140625,0.5239619016647339,0.20151449739933014,-0.4442853629589081
1725629622275519000,6.61651904296875,0.5095826983451843,0.2355627417564392,-0.42410019040107727
1725629622285472000,6.626471923828125,0.5042634010314941,0.22273553907871246,-0.46272119879722595
1725629622295425000,6.636425048828125,0.48918086290359497,0.20674751698970795,-0.4508996903896332
1725629622305378800,6.64637890625,0.4734812378883362,0.20699089765548706,-0.40368038415908813
1725629622315331800,6.656331787109375,0.4518510401248932,0.2131853997707367,-0.4016624987125397
1725629622325284900,6.666284912109375,0.3846215009689331,0.21460804343223572,-0.38030678033828735
1725629622335239000,6.676239013671875,0.30756106972694397,0.21472708880901337,-0.3549010157585144
1725629622345192000,6.68619189453125,0.2571970820426941,0.1852818876504898,-0.3530931770801544
1725629622355145000,6.69614501953125,0.22974653542041779,0.22118636965751648,-0.3483157157897949
1725629622365099000,6.70609912109375,0.22006705403327942,0.13887131214141846,-0.3445204496383667
1725629622375052000,6.716052001953125,0.15939012169837952,0.24731069803237915,-0.28248557448387146
1725629622385005000,6.726005126953125,0.12431816756725311,0.18734630942344666,-0.2323921024799347
1725629622394958800,6.735958740234375,0.07410746067762375,0.15264426171779633,-0.25156208872795105
1725629622404911900,6.745911865234375,0.04796462506055832,0.27395910024642944,-0.20150502026081085
1725629622414866000,6.755865966796875,0.048185668885707855,0.1263163834810257,-0.11963065713644028
1725629622424819000,6.76581884765625,0.0657099261879921,0.08723335713148117,-0.11046722531318665
1725629622434771000,6.77577099609375,0.12933523952960968,0.07229888439178467,-0.09756074845790863
1725629622444725000,6.78572509765625,0.20180559158325195,-0.03499767184257507,-0.025975802913308144
1725629622454678000,6.795677978515625,0.23905761539936066,0.012383423745632172,0.003372497158125043
1725629622464631000,6.805631103515625,0.25291067361831665,0.02948290854692459,0.007955017499625683
1725629622474585000,6.815585205078125,0.26718252897262573,0.05937422811985016,0.024985667318105698
1725629622484538000,6.8255380859375,0.2882809042930603,0.0831080824136734,0.0629318431019783
1725629622494491100,6.8354912109375,0.31518441438674927,0.1004742905497551,0.09131154417991638
1725629622504445200,6.845445068359375,0.310107558965683,0.0065485527738928795,0.126498743891716
1725629622514398200,6.855398193359375,0.31250491738319397,0.03151116147637367,0.16494254767894745
1725629622524351200,6.865351318359375,0.2779948115348816,0.0015869565540924668,0.17750972509384155
1725629622534305000,6.875304931640625,0.21988701820373535,-0.01425272598862648,0.1946980208158493
1725629622544258000,6.885258056640625,0.14559274911880493,-0.023347929120063782,0.22783006727695465
1725629622554212000,6.895212158203125,0.07945660501718521,-0.04742396995425224,0.24790525436401367
1725629622564165000,6.9051650390625,0.02007412537932396,-0.10327355563640594,0.220976784825325
1725629622574118100,6.9151181640625,-0.025433173403143883,-0.13369163870811462,0.22208572924137115
1725629622584072200,6.925072265625,-0.07170602679252625,-0.17927269637584686,0.19426150619983673
1725629622594025200,6.935025146484375,-0.1143120750784874,-0.18238885700702667,0.17926578223705292
1725629622603978200,6.944978271484375,-0.15835048258304596,-0.18015505373477936,0.1423947662115097
1725629622613932000,6.95493212890625,-0.19982708990573883,-0.20235329866409302,0.06963720172643661
1725629622623885000,6.964885009765625,-0.22245286405086517,-0.18756447732448578,0.04167523980140686
1725629622633838000,6.974838134765625,-0.24008804559707642,-0.17561353743076324,0.022224044427275658
1725629622643792100,6.984792236328125,-0.23273056745529175,-0.1145157441496849,0.042973197996616364
1725629622653745200,6.9947451171875,-0.2308916449546814,-0.09398383647203445,0.04590054601430893
1725629622663698200,7.0046982421875,-0.22798173129558563,-0.08500012010335922,0.02826692909002304
1725629622673652200,7.01465234375,-0.23835846781730652,-0.13327205181121826,-0.04354973882436752
1725629622683605200,7.024605224609375,-0.24733984470367432,-0.16823408007621765,-0.08605506271123886
1725629622693558300,7.034558349609375,-0.25749102234840393,-0.15768928825855255,-0.10441888868808746
1725629622703512000,7.044511962890625,-0.24231481552124023,-0.147886723279953,-0.08417550474405289
1725629622713465000,7.054465087890625,-0.21402032673358917,-0.18874333798885345,-0.03583327680826187
1725629622723419100,7.064419189453125,-0.19039931893348694,-0.191194087266922,0.01246196124702692
1725629622733372200,7.0743720703125,-0.15731672942638397,-0.10734687000513077,0.08245676010847092
1725629622743325200,7.0843251953125,-0.15935036540031433,-0.06010286137461662,0.09283250570297241
1725629622753279200,7.094279296875,-0.1720091700553894,-0.0780981034040451,0.07145132124423981
1725629622763232300,7.104232177734375,-0.20492488145828247,-0.12445272505283356,0.07930880784988403
1725629622773185300,7.114185302734375,-0.2659544348716736,-0.11818976700305939,0.0731838047504425
1725629622783139300,7.124139404296875,-0.31691083312034607,-0.06610677391290665,0.10749749839305878
1725629622793092400,7.13409228515625,-0.36801740527153015,-0.08214539289474487,0.1228833794593811
1725629622803045000,7.144045166015625,-0.38531294465065,-0.13086117804050446,0.12525570392608643
1725629622812999200,7.153999267578125,-0.4039590656757355,-0.21013043820858002,0.09545918554067612
1725629622822952000,7.163951904296875,-0.40812909603118896,-0.3236645758152008,0.0353926345705986
1725629622832905000,7.173905029296875,-0.4361248016357422,-0.44319310784339905,-0.017604272812604904
1725629622842859000,7.18385888671875,-0.4755948781967163,-0.449706107378006,-0.039663806557655334
1725629622852812000,7.19381201171875,-0.45103174448013306,-0.3412640690803528,0.03694361820816994
1725629622862765000,7.20376513671875,-0.4578684866428375,-0.29601559042930603,0.11139343678951263
1725629622872719000,7.213718994140625,-0.44314146041870117,-0.23776081204414368,0.20342376828193665
1725629622882672000,7.223672119140625,-0.409336656332016,-0.21179117262363434,0.29739758372306824
1725629622892625200,7.233625244140625,-0.3593747019767761,-0.3224790692329407,0.3137110471725464
1725629622902579000,7.243578857421875,-0.35553106665611267,-0.3587741255760193,0.2940026819705963
1725629622912532000,7.253531982421875,-0.3509030342102051,-0.43082356452941895,0.24275709688663483
1725629622922486000,7.263486083984375,-0.34475022554397583,-0.3796543776988983,0.26195549964904785
1725629622932439000,7.27343896484375,-0.3741030693054199,-0.2707287073135376,0.2834394872188568
1725629622942392000,7.28339208984375,-0.3990204632282257,-0.15813669562339783,0.30814000964164734
1725629622952346000,7.29334619140625,-0.41986048221588135,-0.08885322511196136,0.3681197464466095
1725629622962299100,7.303299072265625,-0.4298305809497833,-0.07446750998497009,0.36676666140556335
1725629622972252200,7.313252197265625,-0.44542285799980164,-0.13389381766319275,0.3584107458591461
1725629622982206200,7.323206298828125,-0.4875284433364868,-0.08756212145090103,0.3360116183757782
1725629622992159200,7.3331591796875,-0.5120617747306824,-0.05729982256889343,0.31692156195640564
1725629623002112300,7.3431123046875,-0.5443779826164246,-0.01806987263262272,0.3406018912792206
1725629623012066000,7.353066162109375,-0.5731204152107239,0.05634896829724312,0.37046417593955994
1725629623022019000,7.36301904296875,-0.6003205180168152,0.08304563164710999,0.398747980594635
1725629623031972000,7.37297216796875,-0.6042473316192627,0.12590308487415314,0.43727460503578186
1725629623041926100,7.382926025390625,-0.5980915427207947,0.09805464744567871,0.41932907700538635
1725629623051879200,7.392879150390625,-0.5882114768028259,0.053537510335445404,0.3796551525592804
1725629623061832200,7.402832275390625,-0.6190706491470337,0.005724165588617325,0.34106090664863586
1725629623071786200,7.4127861328125,-0.5743676424026489,0.05639959126710892,0.3018554747104645
1725629623081739300,7.4227392578125,-0.5651453137397766,0.14491209387779236,0.29051539301872253
1725629623091693000,7.432693115234375,-0.5370537638664246,0.2450682520866394,0.28823867440223694
1725629623101646000,7.44264599609375,-0.518657386302948,0.3059185743331909,0.2963988184928894
1725629623111599000,7.45259912109375,-0.5249000787734985,0.36232057213783264,0.26052045822143555
1725629623121553200,7.46255322265625,-0.5224125981330872,0.39561986923217773,0.23143170773983002
1725629623131506200,7.472506103515625,-0.5105980038642883,0.4124113619327545,0.20307277143001556
1725629623141459200,7.482459228515625,-0.4745154082775116,0.4071901738643646,0.1859077364206314
1725629623151413200,7.492413330078125,-0.4641930162906647,0.44571545720100403,0.15960262715816498
1725629623161366300,7.5023662109375,-0.4479597508907318,0.48766013979911804,0.14405815303325653
1725629623171319300,7.5123193359375,-0.3963487446308136,0.43425339460372925,0.1500161737203598
1725629623181273300,7.5222734375,-0.38363197445869446,0.4527641534805298,0.14629238843917847
1725629623191226400,7.532226318359375,-0.3633890151977539,0.5001723766326904,0.13019835948944092
1725629623201179100,7.54217919921875,-0.3713993430137634,0.45639777183532715,0.10332725942134857
1725629623211133200,7.55213330078125,-0.35267651081085205,0.4302375614643097,0.09079203009605408
1725629623221086000,7.5620859375,-0.33882877230644226,0.41954565048217773,0.07903382182121277
1725629623231039000,7.5720390625,-0.3209347128868103,0.4292318522930145,0.04218924790620804
1725629623240993300,7.5819931640625,-0.31777435541152954,0.39317381381988525,0.024983687326312065
1725629623250946000,7.591946044921875,-0.30235785245895386,0.37391436100006104,0.006554346531629562
1725629623260899000,7.601899169921875,-0.2991778254508972,0.29716506600379944,-0.04207770526409149
1725629623270853000,7.61185302734375,-0.2715959846973419,0.25157493352890015,-0.06161278858780861
1725629623280806100,7.62180615234375,-0.22758376598358154,0.246367409825325,-0.06775643676519394
1725629623290759200,7.63175927734375,-0.17714084684848785,0.2456481009721756,-0.07927913963794708
1725629623300713000,7.641712890625,-0.14669516682624817,0.1793634444475174,-0.12437887489795685
1725629623310666000,7.651666015625,-0.07720370590686798,0.15710420906543732,-0.13754074275493622
1725629623320620000,7.6616201171875,-0.006465085782110691,0.16518743336200714,-0.14923468232154846
1725629623330573000,7.671572998046875,0.05421024560928345,0.10149288177490234,-0.20762501657009125
1725629623340526000,7.681526123046875,0.15281420946121216,0.014025582931935787,-0.2546198070049286
1725629623350480100,7.691480224609375,0.23769314587116241,-0.017598655074834824,-0.27465397119522095
1725629623360433200,7.70143310546875,0.30075475573539734,-0.00010087431292049587,-0.30197641253471375
1725629623370386200,7.71138623046875,0.3464788496494293,-0.028272058814764023,-0.350673645734787
1725629623380340200,7.72134033203125,0.3953495919704437,-0.019433462992310524,-0.36826106905937195
1725629623390293200,7.731293212890625,0.4438801109790802,0.006111312657594681,-0.3755333721637726
1725629623400246000,7.74124609375,0.4822654724121094,-0.026126062497496605,-0.395124614238739
1725629623410200000,7.751199951171875,0.5038564801216125,-0.10647869855165482,-0.4240516126155853
1725629623420153000,7.761153076171875,0.5190305113792419,-0.11400299519300461,-0.4150751233100891
1725629623430106000,7.771106201171875,0.516488254070282,-0.10062753409147263,-0.40899887681007385
1725629623440060400,7.781060302734375,0.48122933506965637,-0.137932687997818,-0.4249039888381958
1725629623450013200,7.79101318359375,0.4534595012664795,-0.1344897598028183,-0.3976249396800995
1725629623459966200,7.80096630859375,0.42910152673721313,-0.1528659611940384,-0.372782826423645
1725629623469920300,7.810920166015625,0.4232494831085205,-0.178693026304245,-0.36125320196151733
1725629623479873300,7.820873291015625,0.4508424997329712,-0.19345785677433014,-0.3421444892883301
1725629623489826300,7.830826416015625,0.4805612564086914,-0.22402988374233246,-0.3629051744937897
1725629623499780000,7.840780029296875,0.5122851729393005,-0.21611474454402924,-0.38172659277915955
1725629623509733000,7.850733154296875,0.5509324073791504,-0.20806321501731873,-0.40534108877182007
1725629623519686100,7.86068603515625,0.6004610061645508,-0.15404430031776428,-0.39932331442832947
1725629623529640200,7.87064013671875,0.6346604824066162,-0.08884904533624649,-0.4111701250076294
1725629623539593200,7.88059326171875,0.6507130861282349,-0.05387387052178383,-0.4343731105327606
1725629623549547300,7.89054736328125,0.6668848395347595,-0.027141861617565155,-0.42370370030403137
1725629623559500300,7.900500244140625,0.6744978427886963,0.03500945493578911,-0.3990723788738251
1725629623569453300,7.910453369140625,0.6411835551261902,0.027768855914473534,-0.41464200615882874
1725629623579407000,7.920406982421875,0.5929743051528931,0.028884312137961388,-0.40239572525024414
1725629623589360000,7.930360107421875,0.5489916205406189,0.030718697234988213,-0.36244484782218933
1725629623599313200,7.940313232421875,0.510258138179779,0.042129386216402054,-0.3578619062900543
1725629623609267200,7.95026708984375,0.46051645278930664,0.0477161668241024,-0.3305205702781677
1725629623619220200,7.96022021484375,0.4048006534576416,0.04814067482948303,-0.29816195368766785
1725629623629173200,7.97017333984375,0.3723311126232147,0.08069195598363876,-0.29107579588890076
1725629623639127300,7.980127197265625,0.35896220803260803,0.16091549396514893,-0.2465139478445053
1725629623649080300,7.990080322265625,0.3029378056526184,0.14292211830615997,-0.2173619270324707
1725629623659033300,8.000033447265626,0.27205175161361694,0.19051887094974518,-0.1827743947505951
1725629623668987400,8.0099873046875,0.2928033471107483,0.3914964497089386,-0.08022378385066986
1725629623678940400,8.0199404296875,0.349002480506897,0.2780960500240326,-0.022628601640462875
1725629623688893400,8.0298935546875,0.2958311438560486,0.2667301893234253,-0.04315731301903725
1725629623698847200,8.03984716796875,0.2914722263813019,0.09201467782258987,-0.02933221496641636
1725629623708800300,8.04980029296875,0.3103066384792328,0.05954515188932419,-0.034027099609375
1725629623718753300,8.059753173828126,0.2594098448753357,0.18054832518100739,-0.03260652348399162
1725629623728707300,8.069707275390625,0.30622127652168274,0.08288328349590302,-0.055355511605739594
1725629623738660400,8.079660400390624,0.2879486083984375,0.05147761479020119,-0.08185253292322159
1725629623748613400,8.08961328125,0.2613537311553955,-0.011047279462218285,-0.1506078988313675
1725629623758567400,8.0995673828125,0.20838993787765503,0.004693348426371813,-0.19750115275382996
1725629623768520400,8.1095205078125,0.15633712708950043,0.024439623579382896,-0.2196567803621292
1725629623778473500,8.119473388671874,0.04370909184217453,0.10695216804742813,-0.285539448261261
1725629623788427300,8.12942724609375,0.06863921135663986,-0.029801419004797935,-0.27455922961235046
1725629623798380300,8.13938037109375,0.06394422799348831,-0.05447535589337349,-0.23057924211025238
1725629623808333000,8.1493330078125,0.06112579628825188,-0.10229001939296722,-0.20204585790634155
1725629623818287400,8.159287353515625,0.07312135398387909,-0.1439986377954483,-0.18142138421535492
1725629623828240100,8.169240234375,0.09610895812511444,-0.1881093829870224,-0.173364520072937
1725629623838193200,8.179193115234375,0.08930409699678421,-0.17479510605335236,-0.11921020597219467
1725629623848147200,8.189147216796876,0.053277384489774704,-0.13397444784641266,-0.07074093818664551
1725629623858100200,8.199100341796875,-0.0306677408516407,0.002667337190359831,-0.030526053160429
1725629623868054300,8.20905419921875,-0.04377289116382599,-0.05678746849298477,0.10862810909748077
1725629623878007300,8.21900732421875,-0.07393917441368103,-0.051403146237134933,0.19067856669425964
1725629623887960300,8.228960205078126,-0.07710327953100204,-0.0405006967484951,0.22876735031604767
1725629623897914000,8.2389140625,-0.07816769927740097,-0.0373208187520504,0.22720569372177124
1725629623907867100,8.2488671875,-0.08929358422756195,-0.05831451714038849,0.19937752187252045
1725629623917820200,8.258820068359375,-0.08951333910226822,-0.0949825793504715,0.16605471074581146
1725629623927774200,8.268774169921874,-0.09360262751579285,-0.11206329613924026,0.13806381821632385
1725629623937727200,8.278727294921875,-0.10948747396469116,-0.00907975435256958,0.16751296818256378
1725629623947680300,8.28868017578125,-0.13334672152996063,0.07160470634698868,0.200912207365036
1725629623957634300,8.29863427734375,-0.13697880506515503,0.0854012593626976,0.21736764907836914
1725629623967587300,8.30858740234375,-0.10470262169837952,0.032646432518959045,0.2122730165719986
1725629623977540400,8.318540283203125,-0.07048753648996353,-0.08880311250686646,0.11940862238407135
1725629623987494100,8.328494140625,-0.03948461264371872,-0.15276558697223663,0.05696069076657295
1725629623997447200,8.338447265625,-0.03638029098510742,-0.1998930722475052,0.015686724334955215
1725629624007400200,8.348400146484375,-0.050668951123952866,-0.2411843240261078,-0.022539222612977028
1725629624017354200,8.358354248046876,-0.060438841581344604,-0.26017624139785767,-0.024369901046156883
1725629624027307300,8.368307373046875,-0.06587701290845871,-0.3158522844314575,-0.012481548823416233
1725629624037260300,8.37826025390625,-0.06985581666231155,-0.39241597056388855,-0.00023882556706666946
1725629624047214300,8.38821435546875,-0.07203561067581177,-0.4470438063144684,-0.008736173622310162
1725629624057167400,8.39816748046875,-0.07623821496963501,-0.44975733757019043,-0.006052982062101364
1725629624067120400,8.408120361328125,-0.08482850342988968,-0.462418794631958,-0.0210146214812994
1725629624077074200,8.41807421875,-0.10903001576662064,-0.49448344111442566,-0.035111065953969955
1725629624087027200,8.428027099609375,-0.12700049579143524,-0.47995004057884216,-0.004239968955516815
1725629624096980200,8.437980224609374,-0.13786689937114716,-0.3995516002178192,0.06951142102479935
1725629624106934300,8.447934326171875,-0.14746040105819702,-0.34186965227127075,0.1197679340839386
1725629624116887300,8.45788720703125,-0.15364745259284973,-0.3046852648258209,0.15925462543964386
1725629624126840300,8.46784033203125,-0.15543337166309357,-0.333781361579895,0.12627696990966797
1725629624136794400,8.47779443359375,-0.18838860094547272,-0.3514827787876129,0.08452461659908295
1725629624146747400,8.487747314453125,-0.20694470405578613,-0.33290404081344604,0.06901543587446213
1725629624156700400,8.497700439453125,-0.23637233674526215,-0.2909207344055176,0.07318335026502609
1725629624166654500,8.507654541015626,-0.2566845417022705,-0.26405981183052063,0.10323365777730942
1725629624176607500,8.517607421875,-0.26243162155151367,-0.36408281326293945,0.1487169861793518
1725629624186560300,8.527560302734376,-0.2799570858478546,-0.2867172062397003,0.16197313368320465
1725629624196514300,8.537514404296875,-0.2556317448616028,-0.3729168772697449,0.166184201836586
1725629624206467000,8.547467041015626,-0.28327298164367676,-0.22929127514362335,0.15474006533622742
1725629624216420000,8.557420166015625,-0.31946125626564026,-0.23026055097579956,0.12128624320030212
1725629624226374100,8.5673740234375,-0.3247191309928894,-0.1172516942024231,0.1530550867319107
1725629624236327200,8.5773271484375,-0.32752206921577454,-0.10243209451436996,0.19522711634635925
1725629624246281500,8.587281494140624,-0.3647943437099457,-0.012166647240519524,0.21708369255065918
1725629624256234200,8.597234130859375,-0.40682369470596313,-0.0673181489109993,0.20601707696914673
1725629624266187300,8.607187255859374,-0.45188093185424805,-0.15655747056007385,0.2238946110010147
1725629624276141000,8.61714111328125,-0.46771737933158875,-0.025254007428884506,0.2372363954782486
1725629624286094000,8.627093994140624,-0.48538824915885925,-0.07713824510574341,0.27243804931640625
1725629624296047000,8.637047119140625,-0.517644464969635,-0.01389998011291027,0.3029251992702484
1725629624306001200,8.647001220703125,-0.5298630595207214,0.030887197703123093,0.37162408232688904
1725629624315954200,8.6569541015625,-0.5013397932052612,0.005707636009901762,0.413443922996521
1725629624325907200,8.6669072265625,-0.5380938649177551,0.09213360399007797,0.3984124958515167
1725629624335861200,8.676861328125,-0.5401151776313782,0.13247473537921906,0.3984661102294922
1725629624345814300,8.686814208984375,-0.5595437288284302,0.0835636556148529,0.3917754292488098
1725629624355767300,8.696767333984376,-0.5525220632553101,0.101127989590168,0.37946778535842896
1725629624365721300,8.706721435546875,-0.5722305178642273,0.1311870962381363,0.37638863921165466
1725629624375674400,8.71667431640625,-0.5751556158065796,0.1834954023361206,0.42063209414482117
1725629624385627400,8.72662744140625,-0.5904496312141418,0.2223876714706421,0.4440079927444458
1725629624395581200,8.736581298828124,-0.6120700240135193,0.24015593528747559,0.4853874146938324
1725629624405534200,8.7465341796875,-0.6100311279296875,0.26717397570610046,0.5313410758972168
1725629624415487200,8.7564873046875,-0.6089248657226562,0.27570632100105286,0.5490689873695374
1725629624425441300,8.766441162109375,-0.6055013537406921,0.2680545151233673,0.531833291053772
1725629624435394000,8.77639404296875,-0.6083284616470337,0.24036899209022522,0.4931531548500061
1725629624445347000,8.78634716796875,-0.580212414264679,0.2634173333644867,0.48446938395500183
1725629624455301000,8.796301025390624,-0.5509364604949951,0.31596502661705017,0.47808778285980225
1725629624465254100,8.806254150390625,-0.5273011922836304,0.3551097810268402,0.4510689377784729
1725629624475207200,8.816207275390624,-0.5074400901794434,0.3398681581020355,0.4239237308502197
1725629624485161000,8.826160888671875,-0.5027399063110352,0.3157772123813629,0.38872045278549194
1725629624495114000,8.836114013671875,-0.5006257891654968,0.3087962567806244,0.36038875579833984
1725629624505067000,8.84606689453125,-0.4815618693828583,0.27519673109054565,0.3488048017024994
1725629624515021000,8.85602099609375,-0.44468557834625244,0.26435744762420654,0.3552497923374176
1725629624524974000,8.86597412109375,-0.40134236216545105,0.3167721927165985,0.35798487067222595
1725629624534927000,8.875927001953125,-0.35681527853012085,0.35045596957206726,0.3253108263015747
1725629624544881200,8.885881103515626,-0.33891457319259644,0.28128781914711,0.2744276821613312
1725629624554834200,8.895834228515625,-0.3004414141178131,0.19830328226089478,0.21406912803649902
1725629624564787200,8.905787109375,-0.26373186707496643,0.18921098113059998,0.1664654016494751
1725629624574741200,8.9157412109375,-0.2258829027414322,0.20644037425518036,0.14464795589447021
1725629624584694300,8.9256943359375,-0.18721114099025726,0.19686578214168549,0.12365718185901642
1725629624594647300,8.935647216796875,-0.1572805941104889,0.16624392569065094,0.09053898602724075
1725629624604601000,8.94560107421875,-0.12284405529499054,0.12778574228286743,0.05158812552690506
1725629624614554000,8.95555419921875,-0.06138895824551582,0.11946936696767807,0.03672084957361221
1725629624624507100,8.965507080078124,-0.03218153864145279,0.0587112158536911,-0.01650748774409294
1725629624634461200,8.975461181640625,0.00591705460101366,0.026554923504590988,-0.050344500690698624
1725629624644414200,8.985414306640624,0.053277112543582916,0.08017447590827942,-0.05112800374627113
1725629624654367200,8.9953671875,0.06726884841918945,0.045547276735305786,-0.08220163732767105
1725629624664321300,9.0053212890625,0.0762583464384079,0.03370046988129616,-0.11960307508707047
1725629624674274300,9.0152744140625,0.10284671187400818,-0.02542850747704506,-0.12031561136245728
1725629624684227300,9.025227294921875,0.11414384096860886,-0.114023357629776,-0.1385641247034073
1725629624694181000,9.03518115234375,0.13280074298381805,-0.15796799957752228,-0.15547995269298553
1725629624704134100,9.045134033203125,0.15686719119548798,-0.20740318298339844,-0.19209496676921844
1725629624714087200,9.055087158203126,0.2002236694097519,-0.2465103268623352,-0.22329998016357422
1725629624724041200,9.065041259765625,0.24443188309669495,-0.25296929478645325,-0.24893848598003387
1725629624733994200,9.074994140625,0.28766879439353943,-0.24786753952503204,-0.28165730834007263
1725629624743948300,9.0849482421875,0.34930098056793213,-0.2791495621204376,-0.3299465477466583
1725629624753901300,9.0949013671875,0.436609148979187,-0.26969045400619507,-0.35199809074401855
1725629624763854000,9.10485400390625,0.5170680284500122,-0.2605701982975006,-0.3876703083515167
1725629624773808000,9.11480810546875,0.5876384377479553,-0.2707694470882416,-0.4313373565673828
1725629624783761200,9.12476123046875,0.6628844738006592,-0.20836172997951508,-0.43628764152526855
1725629624793714000,9.1347138671875,0.7108184695243835,-0.14182014763355255,-0.4416191279888153
1725629624803668200,9.144668212890625,0.746133029460907,-0.09284914284944534,-0.4441632330417633
1725629624813621000,9.15462109375,0.7696124911308289,-0.05665844306349754,-0.44039860367774963
1725629624823574000,9.164573974609375,0.7738999128341675,-0.006445604842156172,-0.438652366399765
1725629624833528000,9.174528076171875,0.7446948289871216,0.021467722952365875,-0.44660869240760803
1725629624843481000,9.184481201171875,0.7148413062095642,0.07754591107368469,-0.4237790107727051
1725629624853434000,9.19443408203125,0.6877718567848206,0.1341160088777542,-0.3860788643360138
1725629624863388200,9.20438818359375,0.6551915407180786,0.14829814434051514,-0.3679153025150299
1725629624873341200,9.214341064453125,0.6365510821342468,0.15753613412380219,-0.3494262099266052
1725629624883294200,9.224294189453126,0.6155810952186584,0.10523297637701035,-0.34793803095817566
1725629624893248000,9.234248046875,0.6099600195884705,0.05196800455451012,-0.3643147647380829
1725629624903201000,9.244200927734376,0.5811625123023987,0.03442656248807907,-0.3865950107574463
1725629624913154000,9.254154052734375,0.5589975118637085,0.05049625784158707,-0.4309613108634949
1725629624923108000,9.264108154296874,0.5308873057365417,0.11668139696121216,-0.432525098323822
1725629624933061000,9.27406103515625,0.4891708493232727,0.16361607611179352,-0.46199217438697815
1725629624943014100,9.28401416015625,0.46147212386131287,0.18718105554580688,-0.48710817098617554
1725629624952968200,9.29396826171875,0.4482913911342621,0.2256087064743042,-0.479648619890213
1725629624962921200,9.303921142578124,0.4439235329627991,0.30667585134506226,-0.4683437645435333
1725629624972874200,9.313874267578125,0.39917489886283875,0.30937665700912476,-0.4765528440475464
1725629624982828000,9.323828125,0.3420463502407074,0.3145306706428528,-0.43159976601600647
1725629624992781000,9.333781005859375,0.3066193461418152,0.3023633062839508,-0.4033096134662628
1725629625002734000,9.343734130859374,0.287197470664978,0.27339690923690796,-0.39042896032333374
1725629625012688100,9.353688232421876,0.29223841428756714,0.23810048401355743,-0.3587139844894409
1725629625022641200,9.36364111328125,0.312049925327301,0.21364282071590424,-0.32086992263793945
1725629625032594200,9.37359423828125,0.302653968334198,0.21121340990066528,-0.3015056550502777
1725629625042548200,9.38354833984375,0.273172527551651,0.157049760222435,-0.3298318386077881
1725629625052501200,9.393501220703126,0.23022103309631348,0.0673169419169426,-0.35003578662872314
1725629625062454300,9.403454345703125,0.17413006722927094,0.014779697172343731,-0.2993643283843994
1725629625072408300,9.413408203125,0.16440831124782562,0.04700024425983429,-0.23811954259872437
1725629625082361300,9.423361328125,0.15715864300727844,0.020688481628894806,-0.1291981190443039
1725629625092314400,9.433314453125,0.12702661752700806,0.007291512563824654,-0.05928267538547516
1725629625102268200,9.44326806640625,0.09983495622873306,0.06762702018022537,-0.0035927826538681984
1725629625112221200,9.45322119140625,0.09082365036010742,-0.06950083374977112,-0.00035191525239497423
1725629625122174000,9.463174072265625,0.11482272297143936,-0.19513171911239624,-0.07566531002521515
1725629625132128300,9.473128173828124,0.131199449300766,-0.23946604132652283,-0.0351683646440506
1725629625142081300,9.483081298828125,0.12794719636440277,-0.29202938079833984,-0.06617900729179382
1725629625152034000,9.493033935546874,0.136137917637825,-0.24185973405838013,-0.044196467846632004
1725629625161988400,9.50298828125,0.12453159689903259,-0.20484685897827148,-0.012954658828675747
1725629625171941000,9.512941162109374,0.10601112246513367,-0.22597885131835938,0.0055440571159124374
1725629625181895200,9.522895263671876,0.023259783163666725,-0.10064943134784698,0.042173974215984344
1725629625191848000,9.532847900390625,0.04752219095826149,-0.3174717128276825,0.10633249580860138
1725629625201801000,9.542801025390625,0.03250009939074516,-0.36642327904701233,0.12829692661762238
1725629625211755000,9.552755126953125,0.016422638669610023,-0.41419899463653564,0.14578190445899963
1725629625221708000,9.5627080078125,0.00607998576015234,-0.44387778639793396,0.1598053127527237
1725629625231661000,9.5726611328125,0.008467873558402061,-0.38861557841300964,0.2095041424036026
1725629625241615000,9.582614990234376,0.008950438350439072,-0.41348257660865784,0.1926814764738083
1725629625251568000,9.592568115234375,0.05264841020107269,-0.4431995749473572,0.24430318176746368
1725629625261521200,9.602521240234376,0.07369671016931534,-0.37938836216926575,0.2719143033027649
1725629625271475200,9.61247509765625,0.08270054310560226,-0.4112169146537781,0.2551198899745941
1725629625281428200,9.62242822265625,0.10426042973995209,-0.42826807498931885,0.24695703387260437
1725629625291381200,9.63238134765625,0.13252593576908112,-0.4363328814506531,0.2409777045249939
1725629625301335000,9.6423349609375,0.15897990763187408,-0.4240088164806366,0.23785114288330078
1725629625311288000,9.6522880859375,0.1768563985824585,-0.36019131541252136,0.24624137580394745
1725629625321241000,9.662240966796874,0.17929105460643768,-0.2730681300163269,0.2690582871437073
1725629625331195100,9.672195068359375,0.1642463356256485,-0.2112019658088684,0.26354867219924927
1725629625341148200,9.682148193359374,0.14138948917388916,-0.17629991471767426,0.23158302903175354
1725629625351101200,9.69210107421875,0.12649717926979065,-0.10018423944711685,0.20533093810081482
1725629625361055200,9.70205517578125,0.10698100179433823,-0.010604554787278175,0.18070147931575775
1725629625371008300,9.71200830078125,0.07956049591302872,0.05301425978541374,0.14106443524360657
1725629625380961300,9.721961181640625,0.06073860451579094,0.09471803158521652,0.11640781909227371
1725629625390915000,9.7319150390625,0.04068836197257042,0.07831069082021713,0.08059028536081314
1725629625400868000,9.7418681640625,0.019721828401088715,0.06051970645785332,0.050125326961278915
1725629625410821000,9.751821044921876,-0.01288575865328312,0.05422382056713104,0.024883447214961052
1725629625420775200,9.761775146484375,-0.034830205142498016,0.07376982271671295,0.05621633678674698
1725629625430728200,9.771728271484376,-0.07150804251432419,0.042798612266778946,0.05130665749311447
1725629625440681000,9.781680908203125,-0.09570099413394928,0.03504322096705437,0.061508696526288986
1725629625450635000,9.791635009765624,-0.12452618777751923,-0.016748763620853424,0.04845670610666275
1725629625460588000,9.801588134765625,-0.1556990146636963,-0.04543393850326538,0.055285848677158356
1725629625470541000,9.811541015625,-0.1866847723722458,0.010760392993688583,0.08988998085260391
1725629625480495000,9.8214951171875,-0.2258649319410324,0.03566228225827217,0.07414643466472626
1725629625490448000,9.83144775390625,-0.2565765976905823,0.05889279767870903,0.1164485439658165
1725629625500401000,9.84140087890625,-0.2684779763221741,0.08768236637115479,0.16270579397678375
1725629625510355000,9.85135498046875,-0.264084130525589,0.09799293428659439,0.15811075270175934
1725629625520308000,9.861307861328125,-0.2534887194633484,0.09202825278043747,0.14160634577274323
1725629625530261000,9.871260986328124,-0.244563028216362,0.07016762346029282,0.11981984972953796
1725629625540215000,9.881215087890626,-0.24208761751651764,0.06907918304204941,0.08052890002727509
1725629625550168000,9.89116796875,-0.2714356780052185,0.056933529675006866,0.026588022708892822
1725629625560121000,9.90112109375,-0.32516977190971375,0.0658644363284111,0.0197231937199831
1725629625570075100,9.9110751953125,-0.3369416892528534,0.14538396894931793,0.08078131824731827
1725629625580028200,9.921028076171876,-0.3197629451751709,0.08414377272129059,0.11798674613237381
1725629625589982000,9.93098193359375,-0.3522709608078003,0.1382686346769333,0.14571620523929596
1725629625599935000,9.94093505859375,-0.34339675307273865,0.14546076953411102,0.17056936025619507
1725629625609888000,9.950887939453125,-0.35580018162727356,0.1370142698287964,0.19066554307937622
1725629625619842000,9.960842041015624,-0.381617933511734,0.06259728968143463,0.19288742542266846
1725629625629795000,9.970795166015625,-0.4375915825366974,-0.01003518607467413,0.18506990373134613
1725629625639748000,9.980748046875,-0.4666306972503662,-0.001131972298026085,0.20827242732048035
1725629625649702100,9.9907021484375,-0.47924384474754333,0.010578135959804058,0.22203487157821655
1725629625659655200,10.0006552734375,-0.515400230884552,0.005804951768368483,0.27974557876586914
1725629625669608200,10.010608154296875,-0.529808759689331,0.13803447782993317,0.3551620841026306
1725629625679562000,10.02056201171875,-0.5630732178688049,0.24568957090377808,0.3901893198490143
1725629625689515000,10.030514892578125,-0.6088132262229919,0.21491184830665588,0.4017946422100067
1725629625699468000,10.040468017578124,-0.6392773985862732,0.10521890968084335,0.40627992153167725
1725629625709422000,10.050422119140626,-0.6425830125808716,0.08111438155174255,0.4197468161582947
1725629625719375000,10.060375,-0.6457676291465759,0.12068735808134079,0.42827773094177246
1725629625729328000,10.070328125,-0.6603736281394958,0.14956404268741608,0.4188203811645508
1725629625739282200,10.0802822265625,-0.6717514991760254,0.24262234568595886,0.45940667390823364
1725629625749235200,10.090235107421876,-0.6671810746192932,0.3035358190536499,0.46628159284591675
1725629625759188200,10.100188232421875,-0.6656452417373657,0.27359578013420105,0.445486843585968
1725629625769142300,10.110142333984374,-0.6663631200790405,0.24523593485355377,0.4185349941253662
1725629625779095300,10.12009521484375,-0.6473712921142578,0.22233594954013824,0.3973817825317383
1725629625789048000,10.130048095703126,-0.618172824382782,0.257595032453537,0.3742172420024872
1725629625799002000,10.140002197265625,-0.5919665098190308,0.2765548527240753,0.35189303755760193
1725629625808955000,10.149954833984374,-0.5631443858146667,0.30803439021110535,0.3327106833457947
1725629625818908000,10.159907958984375,-0.5374086499214172,0.32411694526672363,0.30847007036209106
1725629625828862000,10.169862060546874,-0.5048548579216003,0.3470761179924011,0.2751515209674835
1725629625838815000,10.17981494140625,-0.4844379723072052,0.34126028418540955,0.2371407449245453
1725629625848768000,10.18976806640625,-0.45377081632614136,0.30413100123405457,0.20542722940444946
1725629625858722000,10.19972216796875,-0.41913241147994995,0.2775678336620331,0.1904195249080658
1725629625868675000,10.209675048828124,-0.3876224458217621,0.28613972663879395,0.15702491998672485
1725629625878628000,10.219628173828125,-0.3528359830379486,0.2512211799621582,0.12548457086086273
1725629625888582000,10.229581787109375,-0.31385359168052673,0.20703227818012238,0.10281898826360703
1725629625898535000,10.239534912109375,-0.2763485610485077,0.19202002882957458,0.07284990698099136
1725629625908488000,10.249488037109375,-0.24945054948329926,0.18796256184577942,0.07214978337287903
1725629625918442000,10.25944189453125,-0.22402508556842804,0.21007052063941956,0.0922878086566925
1725629625928395000,10.26939501953125,-0.205999955534935,0.23107296228408813,0.07939672470092773
1725629625938348000,10.27934814453125,-0.18428240716457367,0.12872529029846191,0.052505459636449814
1725629625948302000,10.289302001953125,-0.13205881416797638,0.06354797631502151,0.03579319268465042
1725629625958255000,10.299255126953126,-0.08358396589756012,0.05076213553547859,0.005683226510882378
1725629625968209200,10.309209228515625,-0.05647510290145874,-0.036525074392557144,-0.08302760869264603
1725629625978162200,10.319162109375,-0.010478849522769451,-0.01796230673789978,-0.11439085751771927
1725629625988115200,10.329115234375,0.04910720884799957,0.09036223590373993,-0.13645969331264496
1725629625998069000,10.339069091796874,0.06997387111186981,0.04548398032784462,-0.18801449239253998
1725629626008022000,10.34902197265625,0.09248188138008118,-0.007749081123620272,-0.23455916345119476
1725629626017975000,10.35897509765625,0.11406200379133224,-0.048249635845422745,-0.27052542567253113
1725629626027929000,10.36892919921875,0.12898176908493042,-0.06627029180526733,-0.3000970482826233
1725629626037882000,10.378882080078125,0.1637789011001587,-0.021642370149493217,-0.31445735692977905
1725629626047835100,10.388835205078125,0.1959575116634369,-0.05179589241743088,-0.3406003415584564
1725629626057789200,10.3987890625,0.24920529127120972,-0.12801209092140198,-0.35752952098846436
1725629626067742200,10.4087421875,0.3046844005584717,-0.1609429121017456,-0.3544240891933441
1725629626077695200,10.4186953125,0.3384799063205719,-0.1913309097290039,-0.3531644344329834
1725629626087649000,10.42864892578125,0.39274683594703674,-0.20913834869861603,-0.3795722424983978
1725629626097602000,10.43860205078125,0.41802212595939636,-0.22266453504562378,-0.39348724484443665
1725629626107555000,10.44855517578125,0.4429117441177368,-0.2214391976594925,-0.4155687391757965
1725629626117509000,10.458509033203125,0.4764942228794098,-0.18505775928497314,-0.4103582501411438
1725629626127462100,10.468462158203126,0.5052095651626587,-0.1359805315732956,-0.40407299995422363
1725629626137415200,10.478415283203125,0.5260794162750244,-0.1383797824382782,-0.41793155670166016
1725629626147369200,10.488369140625,0.5497693419456482,-0.15524950623512268,-0.4302417039871216
1725629626157322200,10.498322265625,0.5957493782043457,-0.13879624009132385,-0.42983371019363403
1725629626167275000,10.50827490234375,0.6363517045974731,-0.05727725848555565,-0.4242023229598999
1725629626177229000,10.51822900390625,0.6526121497154236,-0.020193541422486305,-0.44222474098205566
1725629626187181800,10.528181884765624,0.6530724167823792,-0.04845527932047844,-0.4722949266433716
1725629626197134800,10.538134765625,0.6549606323242188,-0.027556654065847397,-0.4486660361289978
1725629626207089000,10.5480888671875,0.6165269613265991,-0.09284360706806183,-0.49079692363739014
1725629626217042000,10.5580419921875,0.5836875438690186,-0.13746966421604156,-0.4895867705345154
1725629626226995000,10.567994873046874,0.5846477150917053,-0.14000369608402252,-0.4439816474914551
1725629626236949000,10.577948974609376,0.6092044711112976,-0.11230335384607315,-0.3987366557121277
1725629626246902000,10.587902099609375,0.6144501566886902,-0.10831496864557266,-0.38739013671875
1725629626256855000,10.59785498046875,0.6043559312820435,-0.08939613401889801,-0.38989269733428955
1725629626266809000,10.60780908203125,0.5853726863861084,-0.04040062427520752,-0.3756437301635742
1725629626276762000,10.61776220703125,0.5745061635971069,0.004488284699618816,-0.3633628189563751
1725629626286715100,10.627715087890625,0.5505498051643372,-0.04914066568017006,-0.3785894215106964
1725629626296669000,10.6376689453125,0.5275755524635315,-0.08758658915758133,-0.3872508108615875
1725629626306622000,10.6476220703125,0.5326202511787415,-0.028033684939146042,-0.33939293026924133
1725629626316575000,10.657574951171876,0.4912794530391693,-0.035032473504543304,-0.33849036693573
1725629626326529000,10.667529052734375,0.4322093725204468,-0.03200062736868858,-0.3013298511505127
1725629626336482000,10.67748193359375,0.37971073389053345,-0.02439969964325428,-0.2727549076080322
1725629626346435000,10.68743505859375,0.34631940722465515,-0.009853776544332504,-0.23701710999011993
1725629626356389000,10.69738916015625,0.3398290276527405,-0.004601757042109966,-0.23552946746349335
1725629626366342100,10.707342041015625,0.33135518431663513,-0.007215901277959347,-0.22179798781871796
1725629626376295200,10.717295166015624,0.34085601568222046,0.03281300887465477,-0.18630044162273407
1725629626386249000,10.7272490234375,0.30842751264572144,-0.0049576954916119576,-0.18261776864528656
1725629626396202000,10.737201904296874,0.29835304617881775,0.015720417723059654,-0.163346067070961
1725629626406155000,10.747155029296875,0.27022305130958557,0.04599675163626671,-0.1611754596233368
1725629626416109000,10.757109130859375,0.25342226028442383,-0.0022147195413708687,-0.171902135014534
1725629626426062000,10.76706201171875,0.22058439254760742,-0.007428148295730352,-0.12479723989963531
1725629626436015000,10.77701513671875,0.18791194260120392,0.006733476649969816,-0.10753036290407181
1725629626445969400,10.786969482421876,0.14218667149543762,-0.016986267641186714,-0.08054623752832413
1725629626455922400,10.79692236328125,0.10662735253572464,-0.021011635661125183,-0.052310872822999954
1725629626465875500,10.80687548828125,0.07530108094215393,-0.06839518994092941,-0.07799413800239563
1725629626475829200,10.816829345703125,0.08689515292644501,-0.16098637878894806,-0.083318330347538
1725629626485782300,10.8267822265625,0.10564374923706055,-0.20720282196998596,-0.06412888318300247
1725629626495735300,10.8367353515625,0.11382337659597397,-0.22914540767669678,-0.06399385631084442
1725629626505689300,10.846689453125,0.13487909734249115,-0.1688144952058792,-0.020968900993466377
1725629626515642400,10.856642333984375,0.14312930405139923,-0.13177046179771423,-0.022388897836208344
1725629626525595400,10.866595458984374,0.12762603163719177,-0.10837835818529129,0.025731446221470833
1725629626535549400,10.876549560546875,0.08529241383075714,-0.06780803203582764,0.05423712357878685
1725629626545502500,10.88650244140625,0.06309988349676132,0.0018134524580091238,0.09883276373147964
1725629626555455500,10.89645556640625,0.04257304221391678,0.005838287528604269,0.13660970330238342
1725629626565409500,10.906409423828125,0.031248945742845535,0.003757450496777892,0.14005877077579498
1725629626575362600,10.916362548828126,0.015059590339660645,0.013794105499982834,0.13911601901054382
1725629626585315600,10.926315673828125,-0.00010984810069203377,0.06658890843391418,0.17352238297462463
1725629626595269400,10.936269287109376,-0.0021056211553514004,0.09558594226837158,0.21704722940921783
1725629626605222400,10.946222412109375,-0.00790523923933506,0.04382571950554848,0.21244816482067108
1725629626615175400,10.956175537109376,-0.015117878094315529,0.012681380845606327,0.18405833840370178
1725629626625129500,10.96612939453125,-0.02874455787241459,0.009084389545023441,0.16583511233329773
1725629626635082500,10.97608251953125,-0.03571644797921181,0.072799451649189,0.1839779019355774
1725629626645035500,10.986035400390625,-0.05329615995287895,0.13121987879276276,0.19158291816711426
1725629626654989600,10.995989501953124,-0.06445640325546265,0.1445426046848297,0.19479070603847504
1725629626664942600,11.005942626953125,-0.061633575707674026,0.0684196874499321,0.16083750128746033
1725629626674895600,11.0158955078125,-0.06807922571897507,-0.005105925723910332,0.12115586549043655
1725629626684849400,11.025849365234375,-0.06882525980472565,-0.03138798847794533,0.07662539184093475
1725629626694802400,11.035802490234374,-0.05736061930656433,-0.04860159754753113,0.057153958827257156
1725629626704755500,11.04575537109375,-0.06297320127487183,-0.06485016644001007,0.05597317963838577
1725629626714709500,11.05570947265625,-0.09704115986824036,-0.08970224857330322,0.013558878563344479
1725629626724662500,11.06566259765625,-0.1229110062122345,-0.10039829462766647,0.052166685461997986
1725629626734616600,11.075616455078125,-0.16515620052814484,-0.1489730179309845,0.08267159759998322
1725629626744569600,11.085569580078126,-0.21294063329696655,-0.19573473930358887,0.07138781249523163
1725629626754522400,11.0955224609375,-0.2373082935810089,-0.24319839477539062,0.09478821605443954
1725629626764475400,11.105475341796875,-0.2642584443092346,-0.335509717464447,0.08065735548734665
1725629626774429400,11.115429443359375,-0.27034109830856323,-0.3718879520893097,0.0840478241443634
1725629626784382500,11.125382568359376,-0.2738296687602997,-0.30885133147239685,0.09697077423334122
1725629626794336300,11.135336181640625,-0.2775077521800995,-0.25391194224357605,0.09306710958480835
1725629626804289300,11.145289306640626,-0.27557677030563354,-0.20444528758525848,0.07874268293380737
1725629626814242300,11.1552421875,-0.23077493906021118,-0.12588150799274445,0.0802961066365242
1725629626824196400,11.1651962890625,-0.19457708299160004,-0.22897487878799438,0.03152541071176529
1725629626834149400,11.1751494140625,-0.20167067646980286,-0.09680991619825363,0.027779141440987587
1725629626844102400,11.185102294921874,-0.2116556465625763,-0.024217959493398666,0.031824901700019836
1725629626854056400,11.195056396484375,-0.23522435128688812,-0.004200576338917017,0.044144418090581894
1725629626864009500,11.205009521484374,-0.2300492227077484,0.010780628770589828,0.04357079043984413
1725629626873962500,11.21496240234375,-0.20467409491539001,0.04238595813512802,0.058160386979579926
1725629626883916300,11.224916259765624,-0.15820597112178802,-0.03225334361195564,0.10560677945613861
1725629626893869300,11.234869384765625,-0.15641899406909943,0.019412780180573463,0.107016921043396
1725629626903822300,11.244822265625,-0.13059337437152863,0.0762905403971672,0.1510654240846634
1725629626913776400,11.2547763671875,-0.09986688196659088,0.05743482708930969,0.17370283603668213
1725629626923729400,11.2647294921875,-0.15938973426818848,0.09890270233154297,0.20741191506385803
1725629626933682400,11.274682373046875,-0.18595530092716217,0.12130361795425415,0.2851051092147827
1725629626943636500,11.284636474609375,-0.21770334243774414,0.13344503939151764,0.339996874332428
1725629626953589500,11.294589599609376,-0.25589892268180847,0.12067063897848129,0.3713372051715851
1725629626963542500,11.30454248046875,-0.294329434633255,0.08740878850221634,0.38103631138801575
1725629626973496300,11.314496337890626,-0.33889344334602356,0.055845797061920166,0.3650631904602051
1725629626983449300,11.324449462890625,-0.3599548041820526,0.04302148148417473,0.3812326490879059
1725629626993402400,11.33440234375,-0.4010170102119446,0.004375554621219635,0.3931034207344055
1725629627003356400,11.3443564453125,-0.42652425169944763,-0.09933453053236008,0.396344929933548
1725629627013309400,11.354309326171874,-0.47391653060913086,-0.0577348917722702,0.41435375809669495
1725629627023262500,11.364262451171875,-0.5004703402519226,-0.02849811129271984,0.4115481376647949
1725629627033216500,11.374216552734374,-0.5385724902153015,-0.015096287243068218,0.3984389901161194
1725629627043169500,11.38416943359375,-0.5703452825546265,-0.046160418540239334,0.40146341919898987
1725629627053122600,11.39412255859375,-0.5719903111457825,-0.03140517324209213,0.42578446865081787
1725629627063076600,11.40407666015625,-0.5712071061134338,0.002268195617944002,0.43216562271118164
1725629627073029600,11.414029541015625,-0.5764212608337402,0.023892531171441078,0.4247377812862396
1725629627082982700,11.423982666015625,-0.5783332586288452,0.07686147838830948,0.4500773847103119
1725629627092936400,11.4339365234375,-0.5775460004806519,0.17322395741939545,0.46533888578414917
1725629627102889500,11.443889404296876,-0.5673466920852661,0.277310848236084,0.4879043400287628
1725629627112842200,11.45384228515625,-0.5478472709655762,0.3467341363430023,0.5238692760467529
1725629627122796500,11.463796630859376,-0.5180548429489136,0.3755508363246918,0.5394923686981201
1725629627132749300,11.473749267578125,-0.497541606426239,0.4057782292366028,0.5655530095100403
1725629627142702300,11.483702392578126,-0.4699815511703491,0.41456717252731323,0.5772254467010498
1725629627152656400,11.493656494140625,-0.4740159809589386,0.4571031928062439,0.5972303152084351
1725629627162609400,11.503609375,-0.4311213791370392,0.46635252237319946,0.6517325639724731
1725629627172562400,11.5135625,-0.3936328589916229,0.4146997034549713,0.6673115491867065
1725629627182516200,11.52351611328125,-0.37846627831459045,0.3571015000343323,0.6465102434158325
1725629627192469200,11.53346923828125,-0.3604065775871277,0.3402833640575409,0.606511652469635
1725629627202422300,11.54342236328125,-0.31931498646736145,0.3084581792354584,0.560702383518219
1725629627212376300,11.553376220703125,-0.3039269745349884,0.22345779836177826,0.48830488324165344
1725629627222329300,11.563329345703124,-0.27088794112205505,0.1815240979194641,0.46483781933784485
1725629627232282400,11.573282470703125,-0.27678152918815613,0.09823133051395416,0.41005444526672363
1725629627242236400,11.583236328125,-0.2752188742160797,0.008475867100059986,0.3598344922065735
1725629627252189400,11.593189453125,-0.27052396535873413,-0.08138930797576904,0.29628080129623413
1725629627262142500,11.603142578125,-0.2506847381591797,-0.1420547217130661,0.24004656076431274
1725629627272096500,11.613096435546876,-0.2244560569524765,-0.18370682001113892,0.18668906390666962
1725629627282049500,11.623049560546875,-0.17309877276420593,-0.1674494445323944,0.14034421741962433
1725629627292002600,11.63300244140625,-0.1316426694393158,-0.19551223516464233,0.09228162467479706
1725629627301956400,11.642956298828125,-0.0822388082742691,-0.19883771240711212,0.03588142618536949
1725629627311909400,11.652909423828126,-0.04831679165363312,-0.2660108804702759,-0.05494408309459686
1725629627321862400,11.6628623046875,0.013872696086764336,-0.2902432978153229,-0.10197026282548904
1725629627331816400,11.67281640625,0.07879044115543365,-0.28039491176605225,-0.1427515149116516
1725629627341769500,11.68276953125,0.11848990619182587,-0.305627703666687,-0.18575644493103027
1725629627351722500,11.692722412109376,0.1582793891429901,-0.3077888786792755,-0.20988601446151733
1725629627361676500,11.702676513671875,0.21238170564174652,-0.23717036843299866,-0.20380747318267822
1725629627371629600,11.712629638671874,0.26179930567741394,-0.16829170286655426,-0.20576462149620056
1725629627381582600,11.72258251953125,0.3135181665420532,-0.2391103357076645,-0.2744402587413788
1725629627391536400,11.732536376953124,0.3755977749824524,-0.24712832272052765,-0.29685208201408386
1725629627401489400,11.742489501953125,0.4123986065387726,-0.20959196984767914,-0.31144824624061584
1725629627411442400,11.7524423828125,0.43252918124198914,-0.15670718252658844,-0.32920435070991516
1725629627421396500,11.762396484375,0.4629320204257965,-0.05398614704608917,-0.320330411195755
1725629627431349500,11.772349609375,0.4781453013420105,-0.1115325316786766,-0.37158238887786865
1725629627441302500,11.782302490234375,0.5196245312690735,-0.14774161577224731,-0.3886209726333618
1725629627451256600,11.792256591796875,0.5738701820373535,-0.12878203392028809,-0.3844675123691559
1725629627461209600,11.802209716796876,0.6098828911781311,-0.09360162913799286,-0.3953368067741394
1725629627471162400,11.812162353515625,0.6295502781867981,-0.06086764484643936,-0.4229380786418915
1725629627481116400,11.822116455078126,0.6415786743164062,-0.04354976862668991,-0.46191054582595825
1725629627491069400,11.8320693359375,0.6577033400535583,0.005205254536122084,-0.49042582511901855
1725629627501022500,11.8420224609375,0.6610138416290283,-0.042457982897758484,-0.5514835119247437
1725629627510976500,11.8519765625,0.6894547939300537,-0.04490835592150688,-0.5726303458213806
1725629627520929300,11.86192919921875,0.7312555909156799,0.02619628980755806,-0.5704114437103271
1725629627530882300,11.87188232421875,0.7455831170082092,0.051935210824012756,-0.6061263084411621
1725629627540836400,11.88183642578125,0.7406511306762695,0.053783316165208817,-0.6404328942298889
1725629627550789400,11.891789306640625,0.7064319252967834,0.03125457093119621,-0.6789736747741699
1725629627560742400,11.901742431640624,0.6862666606903076,0.09017040580511093,-0.6649155616760254
1725629627570696400,11.911696533203125,0.6551124453544617,0.11204507201910019,-0.6589239835739136
1725629627580649500,11.9216494140625,0.6239110231399536,0.07772254943847656,-0.6538587808609009
1725629627590602500,11.9316025390625,0.604759931564331,0.03169593587517738,-0.637039065361023
1725629627600556300,11.941556396484375,0.6121403574943542,0.057825274765491486,-0.6300230026245117
1725629627610509300,11.95150927734375,0.6190667152404785,0.10207130014896393,-0.6542460322380066
1725629627620462300,11.96146240234375,0.5906203389167786,0.12099730223417282,-0.6717000007629395
1725629627630416400,11.97141650390625,0.5731388330459595,0.2038402557373047,-0.6769179701805115
1725629627640369400,11.981369384765625,0.5260187983512878,0.21498960256576538,-0.7177066802978516
1725629627650322400,11.991322509765626,0.471780389547348,0.23495131731033325,-0.6832445859909058
1725629627660276500,12.0012763671875,0.43296584486961365,0.2895503342151642,-0.6309021711349487
1725629627670229500,12.0112294921875,0.4124523103237152,0.3698502480983734,-0.609891414642334
1725629627680182500,12.0211826171875,0.34880146384239197,0.34422066807746887,-0.6021837592124939
1725629627690136300,12.03113623046875,0.30224674940109253,0.28804928064346313,-0.5687325596809387
1725629627700089300,12.04108935546875,0.2703866958618164,0.2811761498451233,-0.5115793943405151
1725629627710042400,12.05104248046875,0.255589097738266,0.29476651549339294,-0.4653695225715637
1725629627719996400,12.060996337890625,0.20907123386859894,0.332292765378952,-0.4410856068134308
1725629627729949400,12.070949462890624,0.17069508135318756,0.21996326744556427,-0.4481797218322754
1725629627739902500,12.08090234375,0.1007077544927597,0.36226704716682434,-0.3871939480304718
1725629627749856500,12.0908564453125,0.0899115651845932,0.29594579339027405,-0.3531366288661957
1725629627759809500,12.1008095703125,0.050799161195755005,0.20543818175792694,-0.37138232588768005
1725629627769762600,12.110762451171874,-0.016775090247392654,0.26551350951194763,-0.35586994886398315
1725629627779716600,12.120716552734375,-0.026390913873910904,0.12271233648061752,-0.32065504789352417
1725629627789669600,12.130669677734375,-0.04357762262225151,0.11128124594688416,-0.30802419781684875
1725629627799622700,12.14062255859375,-0.06125792860984802,0.13533981144428253,-0.2413068562746048
1725629627809576400,12.150576416015625,-0.053819186985492706,0.17869366705417633,-0.19146713614463806
1725629627819529500,12.160529541015626,-0.04353118687868118,0.15128566324710846,-0.15847869217395782
1725629627829482200,12.170482177734375,-0.04773765057325363,0.13677197694778442,-0.15329724550247192
1725629627839436500,12.1804365234375,-0.06748805940151215,0.08063752204179764,-0.13715793192386627
1725629627849389600,12.1903896484375,-0.08268672227859497,0.19497981667518616,-0.06476255506277084
1725629627859342300,12.20034228515625,-0.030532928183674812,0.17517714202404022,0.01825404167175293
1725629627869295400,12.21029541015625,-0.02354506030678749,0.2560139298439026,0.07507257908582687
1725629627879249400,12.22024951171875,-0.029272835701704025,0.2282930612564087,0.06083310768008232
1725629627889202400,12.230202392578125,-0.04836557060480118,0.10840686410665512,0.07510232925415039
1725629627899155500,12.240155517578126,-0.03885432705283165,0.0902746394276619,0.12321586161851883
1725629627909109200,12.250109130859375,-0.11952866613864899,0.11172080785036087,0.10489890724420547
1725629627919062300,12.260062255859374,-0.06985005736351013,0.017220670357346535,0.15680336952209473
1725629627929015300,12.270015380859375,-0.09298999607563019,-0.045653633773326874,0.1710587441921234
