time,seconds_elapsed,z,y,x
1725629737430481400,0.0164814453125,1.178624093145132,0.2756818582251668,-1.4009203981414438
1725629737440434400,0.026434326171875,1.7352841624379156,-0.0001803250029683113,-1.4588171451844274
1725629737450388500,0.036388427734375,1.5536054067730902,-0.21705548173338174,-1.3577746455065904
1725629737460341500,0.046341552734375,1.036243913167715,-0.12396423332095145,-1.5155921947211026
1725629737470294500,0.05629443359375,0.3518307396650314,0.5098848741143942,-1.694542694465816
1725629737480247600,0.06624755859375,-0.40809272511303424,0.9966188820049167,-1.7292925208076835
1725629737490200600,0.07620068359375,-0.38582127207219596,1.3048302601739763,-1.4588602536737918
1725629737500154400,0.086154296875,0.5918991404563189,1.4463967856809496,-1.4858666262820361
1725629737510107400,0.096107421875,1.2057821491837502,1.5395675290703772,-1.6599702705174684
1725629737520060400,0.106060302734375,1.1942308275997637,1.8898557154685258,-2.041469295476377
1725629737530013400,0.116013427734375,-0.31668051582872864,2.605904090423882,-2.394682429410517
1725629737539967500,0.125967529296875,-2.3276883298069238,3.193958830411732,-2.800005982071161
1725629737549920500,0.13592041015625,-3.2372359543412923,3.6441795094192027,-3.9099130973428484
1725629737559873500,0.14587353515625,-4.677943880730867,3.6648943806678056,-3.5753237075969575
1725629737569826600,0.15582666015625,-5.65044626635015,1.9877280606776475,-1.9913865831851958
1725629737579780600,0.165780517578125,-5.409771131837368,0.3684790921270847,-1.4617030758842826
1725629737589733600,0.175733642578125,-3.46139483833909,0.3209039787426591,-1.1094289763659237
1725629737599686700,0.185686767578125,0.5537830525517463,1.9577642995685338,-0.9081512017399073
1725629737609639400,0.195639404296875,4.295919078332186,3.6546500500291583,-0.9081827659219502
1725629737619593700,0.20559375,7.539712199231982,1.776750145292282,-4.254873951238394
1725629737629546500,0.21554638671875,8.883478923782706,-5.25661236821413,-1.0387719703406095
1725629737639499500,0.22549951171875,3.382816976186633,-7.664681225681305,6.009903263109922
1725629737649452500,0.23545263671875,3.528592643821239,-5.111603593298793,6.690955435746908
1725629737659405600,0.245405517578125,5.459324559557437,-0.44090690721720455,2.285327443939447
1725629737669359400,0.255359375,4.555341583412885,1.5012883595585822,0.8954118394151329
1725629737679312400,0.2653125,3.3414912785857913,1.2302481896594166,1.5491542725831269
1725629737689265400,0.275265380859375,2.5026152731239795,0.2557660283997655,2.752835065573454
1725629737699218400,0.285218505859375,-5.272264110854268,-0.2928939820498228,5.253492190366983
1725629737709172500,0.29517236328125,-1.7757991281777619,1.5238704859837888,3.6390675732329485
1725629737719124700,0.305124755859375,-1.4983955607265234,2.5332827985882758,1.6128465541623531
1725629737729077800,0.315077880859375,-3.205622672459483,1.475399008281529,-0.12468874820321797
1725629737739030800,0.32503076171875,-3.41973070256412,0.232480429880321,-2.692915726661682
1725629737748984800,0.33498486328125,-1.6047884815216062,-0.6220084475159645,-3.9292192708373066
1725629737758937900,0.344937744140625,0.38490474174916744,-1.1789657461896539,-3.675037589019537
1725629737768891000,0.354890869140625,0.563869562280178,-0.8327186518758535,-2.6050112332373856
1725629737778844000,0.364843994140625,1.3003665587633848,0.7847296969935298,-2.7071654935494065
1725629737788796700,0.374796630859375,2.747836234372854,1.15477443100214,-4.541220119079947
1725629737798751000,0.3847509765625,3.840201847735047,0.024618892949819563,-3.7929911837488413
1725629737808703700,0.394703857421875,2.968774987280369,2.1217302884101867,-1.4215984445109962
1725629737818656800,0.40465673828125,4.2017087627619505,4.777506955505907,1.7156294677667319
1725629737828609800,0.41460986328125,3.436417048949003,5.499816728943586,8.254488362294435
1725629737838563600,0.4245634765625,2.703238383233547,8.85750920074582,4.8050098794594405
1725629737848516600,0.4345166015625,2.556708682361245,8.603286602395773,0.1120120758511126
1725629737858469600,0.4444697265625,2.7491321194022893,6.430445719951391,-0.1783988572113216
1725629737868422700,0.454422607421875,4.768012858712673,6.713136872416734,-1.565119757347554
1725629737878376700,0.464376708984375,6.458844715961813,6.965314228674769,-3.4192361970454455
1725629737888329700,0.474329833984375,6.69231386461854,6.0306426842778915,-0.6382929351016878
1725629737898282800,0.48428271484375,6.110448042398691,6.345953080797195,-1.1448837361067532
1725629737908235800,0.49423583984375,5.317621255928278,7.093207033616304,-2.619975285874307
1725629737918189800,0.50418994140625,4.248624827715754,7.4441814487129445,-1.9690730445683002
1725629737928142800,0.514142822265625,3.4502807391285892,7.332057290789485,-0.5344476529628038
1725629737938095900,0.524095947265625,3.516739124420285,7.561315543752908,0.348698286858201
1725629737948049000,0.534048828125,3.8452047705888748,7.548266677087545,0.32807518554627896
1725629737958002700,0.544002685546875,3.64992886672616,7.080213112008571,0.2595750652939081
1725629737967955700,0.553955810546875,3.2205572067409753,6.989469595766067,0.3246785288453102
1725629737977908700,0.56390869140625,2.168451123052835,7.137290505492687,-0.5479384181767701
1725629737987861800,0.57386181640625,0.5254454313397408,7.121331304338574,-1.3955594556301831
1725629737997814500,0.583814453125,-1.23148240762949,6.613347295409441,-1.2121914317041635
1725629738007768800,0.593768798828125,-2.182669033497572,5.153441916596889,0.8755296195983886
1725629738017721600,0.6037216796875,-2.7348046111032365,4.54755633636415,1.0426567028194664
1725629738027674600,0.613674560546875,-3.393145477977395,5.60805323177874,-0.47571138635575766
1725629738037627600,0.623627685546875,-3.4888170982718467,4.49095240561068,-2.76459213886261
1725629738047581700,0.633581787109375,-3.9359032786458727,2.546547646091878,-4.9304988381296395
1725629738057534700,0.64353466796875,-5.123325010752677,1.382339031790197,-6.265509424772858
1725629738067487700,0.65348779296875,-4.8609991854459045,0.1000819840826094,-8.289913311418891
1725629738077440800,0.663440673828125,-6.8462102948665615,0.08421046121194958,-8.833591149541736
1725629738087394800,0.673394775390625,-7.238772857892513,-2.3522540312647817,-11.263304268062114
1725629738097347800,0.683347900390625,-5.8642392391562455,-3.9898634168922897,-12.79438921546936
1725629738107300900,0.69330078125,-5.550494776779413,-3.102573509134352,-10.843955404919384
1725629738117254000,0.70325390625,-5.798804936215281,-3.3563422262370586,-9.457342641332746
1725629738127207700,0.713207763671875,-5.098700272583961,-4.028855118587613,-10.11909097856283
1725629738137160700,0.72316064453125,-3.8082767234250903,-4.426304576872289,-9.708274965965748
1725629738147113700,0.73311376953125,-2.871552045890689,-2.628849497203529,-5.981193301454186
1725629738157066800,0.743066650390625,-3.251197844198346,-1.3533330097973346,-3.111212450402975
1725629738167020800,0.753020751953125,-3.436819784530997,-0.8445712944939732,-4.55434555811286
1725629738176973800,0.762973876953125,-2.9341996407225728,-0.8575295602664351,-2.9206682512372732
1725629738186926800,0.7729267578125,-2.449645899480581,-7.099888703337311,-8.983595833048224
1725629738196880000,0.7828798828125,0.7740913986012339,-13.742348111462592,-20.127637177348134
1725629738206832600,0.79283251953125,-6.088036304104328,6.429218223983049,6.337707230499387
1725629738216787000,0.802786865234375,-8.682078984081745,11.42262155431509,9.44110929941237
1725629738226739700,0.81273974609375,-6.749351510614156,3.9959459516763687,-1.0869839203238487
1725629738236692700,0.822692626953125,-4.6537332763209935,-0.09104396049380302,-0.48872342814207076
1725629738246645800,0.832645751953125,-3.1936542945072053,3.2965643416225907,-0.42193303441703317
1725629738256599600,0.842599609375,-2.3373630438640713,1.7182289827406405,-0.6329962899982929
1725629738266552600,0.852552490234375,-3.6019407886266706,1.426366097304225,0.49860067903399463
1725629738276505600,0.862505615234375,-4.999700969171524,2.653714766129851,-0.4840145197987556
1725629738286458600,0.872458740234375,-5.723884427526593,2.9665152256548404,-2.0145932712495327
1725629738296412700,0.88241259765625,-4.224040713818371,1.4069628931760787,-2.172502444270253
1725629738306365700,0.89236572265625,4.663235556420684,-0.9976806660175322,-4.789416881269216
1725629738316318700,0.902318603515625,2.0490178111597896,-0.8433429217427969,-3.4291602096885443
1725629738326271700,0.912271728515625,-2.119890798023343,0.8365385024249553,-1.8177777367293833
1725629738336225800,0.922225830078125,-3.6607822691738603,3.111607587200403,-1.5702672032386065
1725629738346178800,0.9321787109375,-4.748954522499441,3.780053376242518,-2.0274121285513043
1725629738356131800,0.9421318359375,-4.217851503789425,2.2215607819497585,-2.3608228299066423
1725629738366084900,0.9520849609375,-4.0849879246979945,1.7919243335485457,-3.013252134649455
1725629738376038000,0.962037841796875,-4.7238551525562995,0.8335422432184219,-3.634926527905464
1725629738385992000,0.971991943359375,-4.609719070288539,0.1733148319453001,-4.494261384028196
1725629738395945000,0.981945068359375,-3.7792899906545876,0.3342377998292446,-3.673757778342068
1725629738405897700,0.991897705078125,-3.076937255835533,0.12979367012679577,-3.2357097676873203
1725629738415850800,1.001850830078125,-2.746523398208618,-0.20558219382166862,-3.284892900790274
1725629738425804800,1.0118046875,-0.6299637904345989,-1.8896242448002099,-3.854525556641817
1725629738435757800,1.0217578125,-1.0460627118706702,-2.5757757864028212,-2.721501185154915
1725629738445710600,1.031710693359375,-13.902820412969588,0.8910194496750831,-0.10063640309497714
1725629738455663600,1.04166357421875,-11.385090572822094,0.6834796920448541,-2.8347043704867363
1725629738465617700,1.05161767578125,4.819718496030569,-5.58871374053657,-5.942291616129875
1725629738475570700,1.06157080078125,12.127049926364421,-13.035422661900519,-7.9011857965111725
1725629738485523700,1.071523681640625,3.1558523871183395,-11.513626936364172,-9.509220712608098
1725629738495476700,1.081476806640625,3.309223916709423,-10.25872858183384,-9.424853745660185
1725629738505430800,1.0914306640625,6.376053620028496,-9.794816354343295,-8.952612081241607
1725629738515383800,1.1013837890625,9.134794694775342,-10.500610754048823,-11.413124242651461
1725629738525336800,1.1113369140625,6.719431004124879,-9.853100785529612,-12.164984227961302
1725629738535289900,1.121289794921875,2.494378775176406,-6.967192882028222,-7.861763302183151
1725629738545243000,1.131242919921875,1.5196937848210335,-2.7458342469006776,-1.4676387495435774
1725629738555196700,1.14119677734375,1.5223188726276158,-2.091304170486331,-0.24795725434496999
1725629738565149700,1.151149658203125,2.5224165366590023,-1.4553829329520462,0.04629440765781328
1725629738575102700,1.161102783203125,4.0491041258901355,-1.2662339875370263,0.5739068625720217
1725629738585055700,1.1710556640625,7.609487161725759,-2.738404973682761,-0.25889559512976557
1725629738595009800,1.181009765625,10.052451976007223,-7.435737445494532,-1.8090448335669933
1725629738604962800,1.190962890625,5.904259699377417,-9.22454277023971,-5.896361055082083
1725629738614915800,1.200915771484375,3.7018028463482855,-2.542286773777008,-1.4529466457158327
1725629738624868900,1.210868896484375,-3.38435134614706,0.33995208582282066,-0.5151232131592929
1725629738634823000,1.220822998046875,-14.632217222058772,5.0294274143934246,3.0955303126245735
1725629738644776000,1.23077587890625,-14.640318695449828,8.446192252889276,4.700432483653724
1725629738654728700,1.240728759765625,-7.020003850239515,5.401535802933574,3.4538378470882773
1725629738664681700,1.250681640625,4.653101700419187,2.6662282107442614,0.49842050016149875
1725629738674635800,1.2606357421875,6.535136513003707,1.8525749093443153,-2.852908720219135
1725629738684588500,1.270588623046875,5.354900308486819,2.5287398944616317,-1.718358454339206
1725629738694541600,1.28054150390625,3.3217420374989506,2.981720978093147,-1.9472274157240985
1725629738704494600,1.29049462890625,-0.5958709666967391,4.749275425016879,-2.27909775576964
1725629738714448600,1.30044873046875,-1.9305524675160646,3.5519705967992543,-2.6822151766881346
1725629738724402700,1.310402587890625,-0.9040297378957272,1.7662381036281585,-2.6346561376556754
1725629738734355700,1.320355712890625,-0.24932956561148165,1.8217133226126432,-1.4709540115714073
1725629738744308700,1.330308837890625,-1.054528342399001,1.8597177668362854,-1.3332052907869218
1725629738754261800,1.34026171875,-1.8222034442171453,1.2223013223081827,-1.745319234240055
1725629738764215800,1.3502158203125,-1.664944844059646,0.41789457268118857,-1.6975227331899105
1725629738774168800,1.3601689453125,-1.3500319224253297,0.7344944244891405,-0.8315694818407297
1725629738784121900,1.370121826171875,0.40710108372718096,0.1144809501826763,-0.4602909682534635
1725629738794075000,1.380074951171875,2.5375349030748007,-1.4052490749955175,-1.632433298163861
1725629738804028700,1.390028564453125,1.993191586780548,-2.9733389341950414,-1.723579549988359
1725629738813981700,1.399981689453125,0.07546440630704164,-0.4886117844611406,0.1894562577985227
1725629738823934700,1.409934814453125,1.7109817880913614,-1.5111492438375949,-0.12215206933245062
1725629738833887500,1.419887451171875,0.31320845580399037,-1.1105787309229374,-0.2920803275793791
1725629738843841800,1.429841796875,-1.0505787279903889,2.7165549609243866,1.2153916890501975
1725629738853794600,1.439794677734375,0.5684785173803567,0.5248597404062748,-1.1628789731331168
1725629738863747600,1.44974755859375,1.0473100815832614,0.21267828956246373,-1.665696246948838
1725629738873700600,1.45970068359375,0.07823825493454933,0.23310791412889956,-1.2436273111924527
1725629738883653600,1.469653564453125,0.19187281742095946,0.26572657366096974,-0.8569178581088781
1725629738893607700,1.479607666015625,0.02295417460799217,1.453134277242422,-0.2825435606881976
1725629738903560700,1.489560791015625,0.04855754855051636,1.0673714573591946,-0.3519894373580813
1725629738913513700,1.499513671875,1.3422908067792654,1.3291565999180077,-0.006918693347275256
1725629738923466800,1.509466796875,4.491912775075435,-4.059325075653195,-3.6516944150939583
1725629738933420500,1.519420654296875,-2.980184854567051,0.6190162799626588,-2.7803981952816246
1725629738943373600,1.52937353515625,-0.4562849474824965,4.095714485895633,1.2551125818029045
1725629738953326600,1.53932666015625,-1.0553284798007458,4.2110710498690604,-1.0135153640091419
1725629738963279600,1.549279541015625,-1.1536450616460292,6.108769295531511,1.1954828734874725
1725629738973233700,1.559233642578125,-0.6824819131791591,5.8356584568381304,0.664061582608521
1725629738983186700,1.569186767578125,0.14342764320373536,3.372978888261318,-0.3314505071982741
1725629738993139700,1.5791396484375,0.47476212280690666,2.1434242338240144,-0.3366606430619955
1725629739003092700,1.5890927734375,0.2956570170223713,1.8503607404261826,0.4471662598729133
1725629739013046800,1.599046875,0.019164719197154043,-0.18530162233710287,-1.292245796149969
1725629739022999800,1.608999755859375,0.4425467833787203,-1.9847773941785096,-0.9453650801077484
1725629739032952800,1.618952880859375,0.6502104596495628,-1.6769933015108107,-0.45366672780811784
1725629739042905600,1.628905517578125,0.8011568079203367,-0.7524538595497607,-0.2861433387458324
1725629739052860000,1.63885986328125,0.3343418081929907,-0.15333412019014359,-0.40702421909868713
1725629739062812700,1.648812744140625,0.13815410498129202,-0.3614256664842367,-0.1584589158579707
1725629739072765700,1.658765625,0.3825181754061952,-0.10822715048491954,0.08730506622642278
1725629739082718700,1.66871875,0.32606556275691834,-0.4511632205545902,0.17733634254634378
1725629739092671700,1.678671630859375,0.857973504641652,-0.7805904052317142,0.6153592187598347
1725629739102625500,1.68862548828125,0.7049877594977617,-0.6267459974318742,1.1223907492697238
1725629739112578600,1.69857861328125,0.5796078141599893,-0.48490591568052765,1.4727274509847164
1725629739122531600,1.708531494140625,0.6315034210920334,-0.12275836466252803,0.7069245727792381
1725629739132484600,1.718484619140625,0.48782618704140185,-0.8110276290714741,1.2570423808217048
1725629739142438700,1.728438720703125,0.7607670029301196,-2.989028670758009,1.8949290732100605
1725629739152391700,1.7383916015625,0.6656909373760223,-4.12994467227757,1.10830757112056
1725629739162344700,1.7483447265625,0.6091273386329412,-4.0812785487860435,0.7361936296224594
1725629739172297700,1.758297607421875,0.3681348087340593,-4.722013324081898,1.454467863933742
1725629739182251800,1.768251708984375,-0.02719137378633022,-7.373899705740809,0.8804322969481349
1725629739192204800,1.778204833984375,0.11915246739136054,-6.064881053966284,1.4594818927034734
1725629739202157800,1.78815771484375,0.4035720328181982,-4.088789655068516,1.6393492150321602
1725629739212110800,1.79811083984375,0.3699486166903749,-3.871095583170652,1.7372744594722984
1725629739222064600,1.808064697265625,0.9601374095648526,-2.8434622619599104,2.418463702492416
1725629739232017700,1.818017578125,1.2145581608355045,-2.6705378906369206,1.7867630052626131
1725629739241970700,1.827970703125,-0.140013450846076,-1.0177531477093695,1.05588238735646
1725629739251923500,1.83792333984375,-0.4275520068099722,2.099596198013425,0.6595585721008479
1725629739261876500,1.84787646484375,-0.11572302266564219,3.1809605248898265,0.3863466111205518
1725629739271830800,1.857830810546875,-0.4804004940200597,0.8540653912872076,0.5692180837012827
1725629739281783600,1.867783447265625,-1.3920324505478143,-2.317092701512575,1.1712883434295653
1725629739291736600,1.877736572265625,-3.83555256062448,-4.386193808019161,2.8126722791597247
1725629739301689600,1.887689697265625,0.854584373660013,4.289909608784318,-0.8773942444264888
1725629739311643600,1.8976435546875,-0.9130256028432399,-0.8613368435949087,-0.18039963910710066
1725629739321596700,1.9075966796875,-0.556064441487193,1.1265221499860285,-0.7648208083655684
1725629739331549700,1.9175498046875,-0.29074871364943683,3.5147885748744008,-0.6361648370318115
1725629739341502700,1.927502685546875,-0.11626023481488228,4.951680742368102,-1.1775225616440177
1725629739351456800,1.937456787109375,-0.2200228801716119,6.560946077042818,-1.4547301681317388
1725629739361409800,1.947409912109375,-0.7713619736373424,6.314062735539674,-1.6605198672242463
1725629739371362600,1.957362548828125,0.003961304846405982,5.963890868997574,-1.1249342232074588
1725629739381315600,1.967315673828125,0.32678580332286655,4.600803942427039,-0.5823460800174624
1725629739391269600,1.97726953125,-0.0923866072744131,3.5932559623897076,-0.2606641757048666
1725629739401222700,1.98722265625,0.23855394110772757,5.245504114222526,-0.3343972281746566
1725629739411175700,1.99717578125,0.5108546324620024,3.613893092226982,-0.25907464149110015
1725629739421128700,2.007128662109375,0.00784494134671986,2.9245313564062116,-0.21241693521253763
1725629739431081700,2.017081787109375,-0.3441149776559323,2.4179683201909064,-0.778353220764175
1725629739441035800,2.027035888671875,-0.26805991197936235,1.7278467059135436,-1.004928006797284
1725629739450988800,2.03698876953125,-0.5471808047425002,0.9489122511953115,-0.7492756679050624
1725629739460941800,2.04694189453125,-0.5312498067695647,-0.2933078235477209,-0.6077605803243815
1725629739470894600,2.05689453125,-0.3887999956220388,-0.05829027640521526,-0.02362177167125046
1725629739480849000,2.066848876953125,-0.7241098085969686,0.726018857088685,0.8500671154312789
1725629739490801700,2.0768017578125,-0.2793009255051613,-0.08705576764047146,0.11920227961614727
1725629739500754700,2.086754638671875,0.49213652452118695,-0.5732452933907508,0.3587835544776171
1725629739510707700,2.096707763671875,0.5600268423121422,-1.5886340500563383,0.25161080841645594
1725629739520661500,2.10666162109375,0.17242219395451247,-1.3469517843276262,0.008487988490611314
1725629739530614500,2.116614501953125,-0.43515090097375214,-1.030017001476884,-0.1373785722978413
1725629739540567600,2.126567626953125,-0.8771580975830554,-0.8994646219372748,0.021818759103585033
1725629739550520600,2.1365205078125,-0.7787204466413706,-0.6107803665369749,0.07117388777257874
1725629739560474600,2.146474609375,-0.873809371677041,-0.04228139089047909,0.1574786726489663
1725629739570427600,2.156427734375,-0.8769599446624516,-0.06818915460705757,0.060698780585359775
1725629739580380700,2.166380615234375,-0.9228473241556435,-0.22182430357038974,0.06005756463895086
1725629739590333700,2.176333740234375,-0.5782534038763493,-0.7271224344164132,0.026374515861936378
1725629739600286700,2.18628662109375,-0.83976323662512,-0.8371972585946321,0.18591701428908852
1725629739610240800,2.19624072265625,-0.9619312341790646,-0.6798819598138331,0.39493363953884686
1725629739620193800,2.20619384765625,-0.9107141840957105,-0.28229075497090816,0.5379191284656525
1725629739630146800,2.216146728515625,-0.7851227148991078,-0.14022095611691474,0.5794560211317613
1725629739640099800,2.226099853515625,-0.7518958603408187,-0.16303016929626463,0.6363568524725735
1725629739650053600,2.2360537109375,-0.652519394179061,-0.08538345051407814,0.5342638938937336
1725629739660006700,2.246006591796875,-0.7728349687993527,-0.05232464599907398,0.4415711432795971
1725629739669959700,2.255959716796875,-0.6853226895630359,-0.037328152397274966,0.6197530698046088
1725629739679912400,2.265912353515625,-0.6436071158617734,-0.6385200218558311,0.7664476058498024
1725629739689866800,2.27586669921875,-0.579302036146447,-0.31959201936125753,0.8731135714326054
1725629739699819500,2.285819580078125,-0.8615187029678374,-0.4460048148781061,0.99593177652359
1725629739709772500,2.2957724609375,-1.0121452446997166,-0.5561696554273367,0.90488679311648
1725629739719725300,2.305725341796875,-0.42093759363889693,-0.20470599550902843,1.1939388589158653
1725629739729679400,2.315679443359375,-0.40983986104130743,-1.1704612449556588,1.165885534537956
1725629739739632400,2.32563232421875,-0.23512860630154608,-0.818146521165967,0.9267261383503675
1725629739749585400,2.33558544921875,-0.5844505780160427,-0.40185120037496086,0.8191668041244149
1725629739759538400,2.345538330078125,-0.46057636106610295,-0.28662089312970634,0.5082842705173417
1725629739769492500,2.355492431640625,-0.6947825918257237,0.7160445755630731,0.4859808514356613
1725629739779445500,2.365445556640625,-0.9778278914909809,-0.2733779651969671,0.3412660910308361
1725629739789398500,2.3753984375,-0.507508719567582,0.12872341054677963,-0.04507825506739318
1725629739799351600,2.3853515625,-0.7069475883286446,0.6401181047022342,0.17436697134673595
1725629739809304600,2.3953046875,-0.7373479142241179,0.9562187748163938,-0.11844327794238925
1725629739819258400,2.40525830078125,-0.42749432180598373,1.1125707815229893,0.013808891252428292
1725629739829211400,2.41521142578125,-0.3360609236031771,2.0013053351312875,-0.05331891773343086
1725629739839164400,2.425164306640625,-0.9637618106070905,0.8043558962225914,-0.03720627958327532
1725629739849117200,2.4351171875,-0.2541108816038817,0.38392332949638364,0.014391659576445818
1725629739859071500,2.445071533203125,-0.20155776061117647,0.5768541315376758,0.5291821336500346
1725629739869024300,2.455024169921875,-0.31000922137126324,0.6747755765855312,0.6511776972465216
1725629739878977300,2.464977294921875,-0.3253967601172626,-0.00827449187040329,0.7727991668336093
1725629739888930300,2.474930419921875,-0.19438056245818733,-0.39054537798464295,1.1046493408739566
1725629739898884400,2.48488427734375,0.17221958405449986,-0.46471126891374587,1.5608189914137125
1725629739908837400,2.49483740234375,-0.06358429116010665,-1.2611416328340768,1.7882263558134435
1725629739918790400,2.504790283203125,0.16960677120760081,-0.6021189211755991,1.6137239215187726
1725629739928743400,2.514743408203125,0.1130273903734982,-0.48786944166123863,1.3928418672345577
1725629739938696400,2.524696533203125,-0.024523031359910963,-1.1893407174706458,1.7951681377753614
1725629739948650200,2.534650146484375,0.33163770033344625,-0.901180193683505,1.508494199284166
1725629739958603300,2.544603271484375,0.5843294358544051,-0.13519172977805136,1.4181186395712195
1725629739968556300,2.554556396484375,0.45920463432148095,-0.22325112150311469,1.4869272412508725
1725629739978509300,2.56450927734375,0.23444047790691255,-0.33296763376295563,1.4882939995594322
1725629739988463400,2.57446337890625,-0.011311667609214782,-0.4823077158808708,1.2378415673978627
1725629739998416400,2.58441650390625,0.32120296168923373,-0.6921008053958415,1.2364601960420607
1725629740008369400,2.594369384765625,0.17711992331668733,-0.7442237913429737,1.256826546113938
1725629740018322400,2.604322509765625,-0.15978957993984222,-0.8583177880346775,0.7487759016893804
1725629740028276500,2.6142763671875,-0.37457448639273644,-1.0633242277950048,0.4057784568212926
1725629740038229500,2.6242294921875,-0.06365910996198654,-0.7193927169471979,0.18644655458852646
1725629740048182500,2.6341826171875,-0.016612112104892728,-0.47611821359097956,-0.10405673293247818
1725629740058135300,2.64413525390625,-0.21911855174303055,-0.35960604984164235,-0.3975780531004071
1725629740068089600,2.654089599609375,-0.1652367394298315,-0.12640402768850326,-0.6204013045802712
1725629740078042600,2.664042724609375,-0.2808439171634614,0.23978256958723068,-0.7232460313744843
1725629740087995400,2.673995361328125,-0.15140110630095005,0.19556758028566837,-0.7573647202059626
1725629740097948400,2.683948486328125,0.10731178920567035,0.10165127922594547,-0.3708336924292147
1725629740107902200,2.693902099609375,0.19238252050876617,0.07884557317793368,-0.12591449060589074
1725629740117855200,2.703855224609375,0.5270809235870838,-0.3907534677773714,-0.12597791123092172
1725629740127808300,2.713808349609375,0.6902309198707341,-0.7401607796877622,0.23790654658228158
1725629740137761300,2.72376123046875,0.9402531439214944,-0.8833961151897907,0.24836598127633333
1725629740147714300,2.73371435546875,0.9384884723365307,-0.953985901197791,0.3055437663950026
1725629740157668400,2.74366845703125,0.6321101548135281,-0.7782102320969104,0.20603242180719972
1725629740167621400,2.753621337890625,0.43964375541359185,-0.7245242346167564,0.09646540102064609
1725629740177574400,2.763574462890625,0.7441016262680291,-0.41126317184269423,0.11129954366758466
1725629740187527400,2.77352734375,-0.15587255262657998,-0.28470892202854153,0.1560812269411981
1725629740197481500,2.7834814453125,-0.3531605269640684,-0.1048778400570154,-0.1758532643817365
1725629740207434500,2.7934345703125,-0.9825564543828368,-0.011219897672533988,-0.1520638079933822
1725629740217387500,2.803387451171875,-0.6139303550004959,-0.06867781490683555,0.14816197824925184
1725629740227340500,2.813340576171875,-0.5551596016019582,0.2014484550178051,0.11069207929372787
1725629740237294300,2.82329443359375,-0.6517585658743977,0.38754385808110237,-0.377675813408941
1725629740247247400,2.833247314453125,-0.6098163438104093,0.6094833124637603,-0.6875627235747873
1725629740257200400,2.843200439453125,-0.3660742229424417,0.9928963543504475,-0.8653050165735184
1725629740267153400,2.8531533203125,-0.2949713728457689,0.7790583733588456,-0.2804262762732804
1725629740277107500,2.863107421875,-0.30716099233329297,0.6464215887606144,-0.3222305511713028
1725629740287060500,2.873060546875,-0.6594979279547929,0.37921675924062725,-0.2051736130207777
1725629740297013200,2.88301318359375,-0.6909563115358353,0.30762744080126286,0.16190306496247647
1725629740306966300,2.89296630859375,-0.7579281993076205,0.15745149238109588,0.3593985445708036
1725629740316919300,2.902919189453125,-0.5984224047452211,-0.06980126597881317,0.52072833968997
1725629740326873300,2.912873291015625,-0.49185938808023927,0.08850245931744576,0.4655918511405587
1725629740336826400,2.922826416015625,-0.9429515892252326,0.19329028300344944,0.5967036911938339
1725629740346779400,2.932779296875,-0.8180912838473916,-0.32966976126134395,0.7156587180506437
1725629740356732400,2.942732421875,-0.6135840257808566,0.057711015212535854,0.3901578399717808
1725629740366686500,2.9526865234375,-0.09880699571073055,-0.11429098056852817,0.7141083468034863
1725629740376639500,2.962639404296875,-0.19711013355255125,-0.22035481553971767,0.9157876879677176
1725629740386592500,2.972592529296875,-0.40346638048663735,-0.25079087033569814,0.4027415002781898
1725629740396545500,2.982545654296875,-0.4135872308760881,-0.5299386511057615,0.3416320017337799
1725629740406499300,2.992499267578125,-0.6174826406545937,-0.7139870585113763,0.4045882971886545
1725629740416452400,3.002452392578125,-0.7104588843852281,-0.7250590721458197,0.3700714758850634
1725629740426405400,3.0124052734375,-0.5791904655307532,-0.6749193689703941,0.3654263900255784
1725629740436358400,3.0223583984375,-0.3714835346400738,-0.6796545807987451,0.01834898236747831
1725629740446312400,3.0323125,-0.13758520078584552,-0.5274895043879747,-0.19659838463813065
1725629740456265500,3.042265380859375,-0.4645442417837679,-0.32730653926134107,-0.5089741524776443
1725629740466218500,3.052218505859375,-0.5640161311440169,-0.3059761664628982,-0.8678332198768853
1725629740476171500,3.062171630859375,-1.1237561924040318,-0.4568178853154182,-1.0604296023320405
1725629740486125600,3.07212548828125,-0.9997573261611163,-0.1834843437820673,-0.350580155082047
1725629740496078600,3.08207861328125,-0.35694399102553726,0.2994160772949457,0.5868494558513164
1725629740506031400,3.09203125,0.047484220230579376,0.9265379223018884,-0.05451185841162223
1725629740515984400,3.101984375,-0.16999124048054218,0.5563251382499933,-1.7012965526401995
1725629740525937400,3.1119375,-0.5435118339061736,-0.10269640436470508,-2.16978017969951
1725629740535891200,3.12189111328125,-0.9757229551009833,-0.4147247104734182,-1.1519969291128218
1725629740545844200,3.13184423828125,0.02591200150027871,-0.4887584994554519,-0.7199959435373544
1725629740555797200,3.14179736328125,-0.22851474111974238,-0.28801614688038824,-0.19140947422552854
1725629740565750300,3.151750244140625,-0.56686392179057,-0.39449382334947586,-0.2886093270005658
1725629740575704300,3.161704345703125,-0.7441963188141584,-0.6989186687171459,-0.37843653211575
1725629740585657300,3.1716572265625,-0.7043183358035982,-1.0018407083064318,-0.1471079026190564
1725629740595610400,3.1816103515625,-0.33748072727322576,-0.8929203148603438,-0.21435630577728151
1725629740605563400,3.1915634765625,-0.07912672820687293,-0.5170943671017885,-0.3017978578649461
1725629740615517400,3.201517333984375,-0.35891675240322946,0.03278758635818958,-0.49701077949404715
1725629740625470500,3.211470458984375,-0.1468244460351765,0.5534779321253299,-0.7336120156314223
1725629740635423500,3.221423583984375,-0.4530103097259998,0.5865501806437969,-0.53790027763471
1725629740645376500,3.23137646484375,-0.8140595441132783,0.45059097362458705,-0.18236410758048294
1725629740655330300,3.241330322265625,-0.05973462999463081,0.3971574896007776,-0.08837444902360439
1725629740665283300,3.251283447265625,-0.1321276660323143,0.0049777884125709534,-0.01478869607001543
1725629740675236400,3.261236328125,-0.12182488320469856,-0.13454758665561675,0.18994762151204048
1725629740685189400,3.271189453125,-0.014782120198756455,0.39249300492107864,-0.10194551293216646
1725629740695142100,3.28114208984375,0.34677111818790435,0.5107341844201088,-0.38124519632831216
1725629740705096400,3.291096435546875,0.25908742790743705,0.7295932084441185,-0.23302257393300532
1725629740715049200,3.30104931640625,0.09399002388305962,1.0561275942891835,-0.4121991375185549
1725629740725002200,3.311002197265625,0.42871933355629444,1.343915777632594,-0.8990843904480338
1725629740734955000,3.320955078125,-0.13030322708413003,1.2175006440281868,-1.14645186220631
1725629740744909300,3.330909423828125,-0.20643018895313142,0.9741869777053594,-1.1613630156122148
1725629740754862000,3.340862060546875,0.22238025695271788,1.023261681997776,-1.5660998544260858
1725629740764815000,3.350815185546875,-0.2517372112751007,0.974417279329896,-1.2501112663842737
1725629740774768000,3.36076806640625,-0.09342647171616554,0.6815875946879386,-1.1936517125375568
1725629740784722200,3.37072216796875,-0.18221710032522678,0.4594371279031038,-0.5743327963665127
1725629740794675200,3.38067529296875,0.48019591135866935,0.4715414071947336,-0.5404134294994175
1725629740804628200,3.390628173828125,0.2777519424974918,-0.2682844414502382,-0.4795782909169793
1725629740814581200,3.400581298828125,0.6762029790401458,-0.44258886895477767,-0.30963308153524993
1725629740824535000,3.41053515625,0.7357781806893646,-0.5812386302322149,-0.41639761212170123
1725629740834488000,3.420488037109375,-0.0868826030306518,-0.425243766400218,0.39556817458271976
1725629740844441000,3.430441162109375,0.5608914232522249,-0.2736643809229135,0.14082695918604732
1725629740854394000,3.44039404296875,0.08455226038694381,-0.5009779295593499,0.45236923534348605
1725629740864348200,3.45034814453125,0.3918026845693588,-0.4792471592664718,0.6167328452005982
1725629740874301200,3.46030126953125,0.6706559393722563,-0.7436328397125005,0.8974166033662855
1725629740884254200,3.470254150390625,0.6816419552236795,-0.7401186941117048,1.0284573509447277
1725629740894207200,3.480207275390625,1.2720341982483863,-0.3402753264278173,0.36649405578970906
1725629740904160300,3.49016015625,1.3931225838720798,-0.5901864913195372,0.3184619924180209
1725629740914114300,3.5001142578125,1.2058628132045268,-0.4509609759807586,0.7790830694086849
1725629740924067300,3.5100673828125,1.1478075145989657,-0.3181061647176742,0.9040256462424993
1725629740934020400,3.520020263671875,0.8689830474991351,-0.16864099491536616,0.670534139623493
1725629740943973000,3.52997314453125,0.7763900309324264,-0.18132862705290317,0.38809944613724945
1725629740953927200,3.53992724609375,0.39939569698162375,-0.052174423873424525,0.2780691917531192
1725629740963880000,3.5498798828125,0.4291483726233244,0.10343991620838641,0.2401040566265583
1725629740973833000,3.5598330078125,0.4762286882281303,0.3367769629180431,0.3114332628250122
1725629740983786000,3.569785888671875,0.7097773318618535,0.39805473070144654,0.4473614901840687
1725629740993740000,3.579739990234375,1.0825147390205412,0.6392097576856612,0.4032297952517867
1725629741003693000,3.589693115234375,1.0169301408886908,0.7684387796670198,0.20264234097748993
1725629741013646000,3.59964599609375,1.0352823746591806,0.5259183095484972,-0.08705386794432997
1725629741023599000,3.60959912109375,0.9235223738729953,0.4144108222186565,-0.241162041246891
1725629741033553200,3.61955322265625,0.7614652873925865,0.21813363235890865,-0.2078665053665638
1725629741043506200,3.629506103515625,0.43132220953106876,0.20467150871753692,-0.2230554528005421
1725629741053459200,3.639459228515625,0.38562911050096155,-0.02179915935397148,-0.1738387096889317
1725629741063412200,3.649412109375,0.5268151122577488,0.049320203486084936,0.17287980152890084
1725629741073366300,3.6593662109375,0.18668460112810134,0.5036871885180473,0.19005188560411332
1725629741083319300,3.6693193359375,0.08465279815196991,0.6919640272736549,-0.029168372947722673
1725629741093272300,3.679272216796875,0.35542452637329697,0.8038824334919452,-0.23532880504876375
1725629741103225300,3.689225341796875,0.7344505853474139,1.1629717659831047,-0.23943492519333956
1725629741113179100,3.69917919921875,0.6403830392487346,1.542277957072854,-0.2887503063738346
1725629741123132200,3.709132080078125,0.18826982449293136,1.414392750915885,-0.4806481121055782
1725629741133085200,3.719085205078125,-0.23831132799088953,1.0359107356905937,-0.8864454197578132
1725629741143038200,3.7290380859375,-0.28688553541526196,0.4324795628726482,-0.9759696233384311
1725629741152991200,3.7389912109375,-0.2521620125584304,0.4603296928286552,-1.1829488244764506
1725629741162945300,3.7489453125,-0.43462928825244307,0.6188356626987457,-1.3637294622577727
1725629741172898300,3.758898193359375,-0.2771468162111938,0.6043576400130987,-1.407064892245829
1725629741182851000,3.76885107421875,0.3070845660962164,0.5197779070973396,-1.3053592524841426
1725629741192804000,3.77880419921875,0.3749707922339439,0.5754115315139293,-1.2123549517028034
1725629741202758100,3.788758056640625,0.16164266046062112,0.4719020572006702,-1.1878601235240698
1725629741212711200,3.798711181640625,-0.2280652437865734,0.30977906587719917,-1.2336616513647138
1725629741222664200,3.808664306640625,-0.07978300015851855,-0.1049088197171688,-1.0749632276624441
1725629741232617200,3.8186171875,0.04218625995293259,-0.10577215854823589,-0.9677877781875431
1725629741242571000,3.828571044921875,-0.06247413796111941,-0.15863281112015246,-0.8311217380732298
1725629741252524000,3.83852392578125,-0.09547807048372924,-0.0903261676132679,-0.8555085758328437
1725629741262477000,3.84847705078125,-0.09766878546103834,-0.1571890420526266,-0.7681240146294236
1725629741272430000,3.85843017578125,-0.2996615764886141,-0.09005787206590175,-0.6894752791978418
1725629741282384100,3.868384033203125,-0.3474285591833293,-0.08523790456354617,-0.8014408124934882
1725629741292337200,3.878337158203125,-0.34971345525011416,-0.13697802867293357,-0.9104051912117749
1725629741302290200,3.888290283203125,-0.3835672826003283,-0.13216332186758517,-1.1993862376015632
1725629741312243200,3.8982431640625,-0.5269254407644272,-0.3057376815319061,-1.361783296626061
1725629741322197200,3.908197265625,-0.38463761524558066,-0.04908347212076187,-1.4075208193197846
1725629741332150300,3.918150390625,-0.529099789128825,-0.1609703141570091,-1.2574930471986532
1725629741342103300,3.928103271484375,-0.7582745285272597,0.11274842730164528,-1.1412298167090862
1725629741352056300,3.938056396484375,-0.7814930531598627,0.15769523800909518,-0.7912112410325557
1725629741362010400,3.94801025390625,-0.7109791088670492,-0.06919044060409069,-0.47210685905776917
1725629741371963100,3.957963134765625,-0.2435376843370497,-0.15954934144318103,-0.526480400410667
1725629741381916200,3.967916259765625,-0.09611351884305476,0.2306225270539522,-0.6275349558524788
1725629741391869200,3.977869140625,-0.6672868282653391,0.02836392469704151,-0.49775472972914575
1725629741401823200,3.9878232421875,-0.5511000240128487,-0.1494990720719099,-0.7751364506747573
1725629741411776000,3.99777587890625,-0.41251280657760797,0.13426526258289814,-0.7626158456671982
1725629741421729000,4.00772900390625,-0.44431072431132196,0.4452373376369476,-0.8448045917931943
1725629741431682000,4.01768212890625,-0.7923537621311842,0.05276712906956672,-0.5782128526702522
1725629741441636000,4.027635986328125,-0.49263022632226344,0.18521978927254676,-0.8272747803214937
1725629741451589000,4.037589111328125,-0.44833581510894,0.3880646670848131,-0.6727398329742252
1725629741461542100,4.047542236328125,-0.5365788197726011,0.33985563971102234,-0.7423993523947894
1725629741471495200,4.0574951171875,-0.242088070050627,0.47506373610198493,-0.6528866931214928
1725629741481449200,4.06744921875,-0.24633681353628634,-0.2564554719686508,-0.23706450626756995
1725629741491402200,4.07740234375,0.03008782588019967,0.11271043337881564,-0.34152978346832097
1725629741501355300,4.087355224609375,-0.1102642092704773,0.03871989901661873,-0.11647723856642841
1725629741511308300,4.097308349609375,-0.053663785648345945,-0.13244272333085536,0.055548631280567494
1725629741521262000,4.107261962890625,0.2224680083014071,-0.0037590602725744247,0.30408870874848215
1725629741531215000,4.117215087890625,-0.01316869365274906,-0.5303624294757843,0.2480862510195002
1725629741541168000,4.127168212890625,0.6467220330119132,-0.45741409764289853,0.34328294727858155
1725629741551121200,4.13712109375,0.567285362073034,-0.19672844075858592,0.579931054764986
1725629741561075200,4.1470751953125,0.20122005308941004,-0.15017887102961539,0.3695032840756699
1725629741571028200,4.1570283203125,0.04030117685869336,-0.010067220506072044,0.15431977022662757
1725629741580981200,4.166981201171875,0.31137963294163346,0.2549824768066406,0.08951784690506756
1725629741590934300,4.176934326171875,-0.08824453903362155,-0.10674655653834342,0.1273754482702352
1725629741600888300,4.186888427734375,-0.24645371791422366,0.18111995273828504,0.14155720968935637
1725629741610841300,4.19684130859375,-0.242539320949465,0.14423662149906158,-0.021112346133589744
1725629741620794400,4.20679443359375,-0.14820143347680567,0.22928104931712148,-0.30905758320223536
1725629741630747100,4.2167470703125,-0.04886895258724689,0.1906377226680517,-0.5542927921721711
1725629741640701200,4.226701171875,0.006452098748832941,0.2311632098019123,-0.9163687027260661
1725629741650654000,4.236654052734375,0.0021470950312912464,0.21649814011156557,-0.8855874877542257
1725629741660607000,4.24660693359375,0.2967657089166343,0.1365846454411745,-0.5948989067941903
1725629741670560000,4.25656005859375,0.333825858027488,-0.25884850458502767,-0.46006790008731185
1725629741680514000,4.26651416015625,0.15244009395986793,-0.6593845307081937,0.0587847088586539
1725629741690467000,4.276467041015625,0.36287878790199757,-0.9235358178764581,0.16208857759721576
1725629741700420000,4.286420166015625,0.32165728132799265,-1.0053671288669108,0.4183545183431357
1725629741710373000,4.296373046875,0.3938040875196457,-1.3203034313768147,0.08330072595588862
1725629741720327000,4.306326904296875,0.7072574579954147,-1.2698182757645844,0.3721786042321473
1725629741730280000,4.316280029296875,0.8878326363325119,-0.9371101697206496,0.5269757827121764
1725629741740233000,4.32623291015625,0.6507581566601991,-0.557511717686057,0.3112348176434636
1725629741750186000,4.33618603515625,0.5602274063855409,-0.5006032510280609,0.09329071650728583
1725629741760140000,4.34614013671875,0.7423550748616456,0.11347440348863601,0.09229162246733903
1725629741770093000,4.356093017578125,0.34491862218901514,0.3594908990293741,-0.22544848541691898
1725629741780046000,4.366046142578125,0.17337606061324476,0.26964287032186984,-0.5761383844837547
1725629741789999900,4.375999755859375,0.13220628422647715,0.3278068899989128,-0.6376540526762604
1725629741799953000,4.385952880859375,0.4663049678459763,0.06564239273369311,-0.3795675454396754
1725629741809906000,4.395906005859375,0.3196951874747872,0.04462766175568104,-0.508271520633623
1725629741819858700,4.405858642578125,0.4347901779025793,-0.5081447524487972,-0.56531610782668
1725629741829813000,4.41581298828125,0.7795908728003501,-0.7067419096887111,-0.3036434857316315
1725629741839765800,4.425765869140625,0.8222183006495237,-0.9495125551760196,-0.21114391960203646
1725629741849718800,4.43571875,0.4332826959490776,-1.2342659008681773,0.2677544262267649
1725629741859671800,4.445671875,0.2672656197965145,-1.3341589382499455,0.1494660465851426
1725629741869625900,4.4556259765625,0.23910744680464266,-1.4718816478103398,-0.07422638894468546
1725629741879579000,4.465578857421875,0.2980442044198513,-1.3064625375509262,0.2585433110933751
1725629741889532000,4.475531982421875,0.05102057766318321,-0.8004577197402715,0.1200665682952851
1725629741899485000,4.48548486328125,-0.10299889444261788,-0.5413724837899208,-0.28375001386851073
1725629741909439000,4.49543896484375,-0.1654082966044545,-0.3066618106395006,-0.5172138287629932
1725629741919391700,4.505391845703125,-0.3015446137562394,-0.02164309200942516,-0.7566524802833795
1725629741929344800,4.5153447265625,-0.26617358677610753,0.0008194996893405913,-0.7294892366129905
1725629741939297800,4.5252978515625,-0.47851826047003265,-0.003919803792238235,-0.8646745366502553
1725629741949251800,4.535251953125,-0.6695335842788219,0.23313480213582513,-0.8169291812654584
1725629741959204900,4.545204833984375,-0.36951486491560936,0.3155149791806936,-0.6010767917115241
1725629741969158000,4.555157958984375,-0.19446166487038136,0.16207447600662708,-0.4184790215056389
1725629741979111000,4.56511083984375,-0.33412206449508663,0.13310790924131868,-0.5921365294087678
1725629741989065000,4.57506494140625,-0.17761165235638618,-0.018493688067793845,-0.6674027097299695
1725629741999018000,4.58501806640625,0.12318404272869228,0.08118892143368721,-0.3047513739082962
1725629742008971000,4.594970947265625,-0.07476327230036259,0.01341360832452774,-0.3972526205383241
1725629742018924000,4.604924072265625,-0.12443652700781821,-0.2913783167898655,-0.4889380938060581
1725629742028878000,4.614878173828125,-0.385277520584315,-0.40262802996635433,-0.391905341226235
1725629742038831000,4.6248310546875,-0.3651103463463485,-0.48083705880641936,-0.11789229299612343
1725629742048784000,4.634783935546875,-0.5398601795308292,-0.3705705114483833,-0.015332374492660164
1725629742058737000,4.64473681640625,-0.38563948576450346,-0.5333499208539724,-0.301087006181851
1725629742068690700,4.654690673828125,-0.4406447491496801,-0.6101531745493411,-0.5593620947930962
1725629742078643700,4.664643798828125,-0.49293607740104195,-0.5296902293026446,-0.21577439241427926
1725629742088596700,4.6745966796875,-0.3589548924565315,-0.2184492741793394,0.05070687207151204
1725629742098550800,4.68455078125,-0.3648842825055122,-0.0019680852025747296,0.007549392466247081
1725629742108503800,4.69450390625,-0.8551303901702165,0.19244740243852138,-0.17737886651381848
1725629742118456800,4.704456787109375,-0.9696902508080005,0.21542261983454225,-0.10233363546691834
1725629742128409900,4.714409912109375,-0.9616004678547382,-0.001723170530796051,0.3012927213544026
1725629742138364000,4.724364013671875,-0.6958557740151882,-0.15960019484758375,0.5610688256457448
1725629742148317000,4.73431689453125,-0.9535013325512408,-0.07259995678663253,0.602620733217895
1725629742158270000,4.74427001953125,-0.6813624076299369,-0.19182079497277735,0.6612035628288984
1725629742168223000,4.754222900390625,-0.7841950055949389,-0.27108488582372664,0.886930207600072
1725629742178176800,4.7641767578125,-0.5916958729691804,-0.16958675133287907,0.9002695816446095
1725629742188129800,4.7741298828125,-0.5915250464469194,-0.20618658945560453,1.048355206722021
1725629742198082800,4.784082763671875,-0.970606050478667,-0.1949082395941019,1.2291755919918417
1725629742208035800,4.794035888671875,-0.48642611098513006,-0.19884791713058947,1.1185565779343247
1725629742217990000,4.803989990234375,-0.06554477757811546,-0.27531214812994004,0.9670356446459889
1725629742227943000,4.81394287109375,-0.38213659221008417,-0.1627051751255989,0.9543584608372301
1725629742237896000,4.82389599609375,-0.30084406427145005,0.16802315527796743,0.6116940838484093
1725629742247849000,4.833848876953125,-0.4027757678739726,0.2346481293082237,0.39714159791190173
1725629742257803000,4.843802978515625,-0.42220417950861155,0.2817699459671974,0.23451416419763116
1725629742267756000,4.853756103515625,-0.03330123496875167,0.18071838620007036,-0.09382131625264882
1725629742277709000,4.863708984375,0.04730542959757149,0.4173649958491325,-0.37926856249310076
1725629742287661800,4.873661865234375,-0.06908749168626964,0.5768137995272874,-0.5265702706512063
1725629742297616100,4.8836162109375,-0.3441927921324968,0.8012462397694587,-0.8248900040768087
1725629742307569000,4.89356884765625,-0.3705418698757887,0.5016004453718662,-0.9556995001826435
1725629742317522000,4.90352197265625,-0.27689678697288034,0.3767430626034736,-1.032717565672472
1725629742327475700,4.913475830078125,-0.44934879154376683,0.5155775327980519,-1.341412416509539
1725629742337428700,4.9234287109375,-0.7091658489000052,0.37878304399847984,-1.1001862239852547
1725629742347381800,4.9333818359375,-0.0659001668870449,0.30743980927467346,-0.9369438001777977
1725629742357334800,4.943334716796875,-0.39668994515426453,0.5313537786006928,-0.5416418753158301
1725629742367288800,4.953288818359375,-0.1471848768454045,0.6476496692508459,-0.8228979534767568
1725629742377241900,4.963241943359375,-0.045263037049770354,0.4906856681257486,-0.6657967358380555
1725629742387195000,4.97319482421875,-0.020571005798503756,0.523857869887352,-0.8926036501266061
1725629742397148000,4.98314794921875,-0.0852319862794131,0.6012246026843786,-0.7791375760748982
1725629742407102000,4.99310205078125,-0.2642249369263649,0.32844226529300213,-0.5089879252746701
1725629742417055000,5.003054931640625,0.053643984969332814,0.2969809591025114,-0.28646431432850655
1725629742427008000,5.013008056640625,0.2703244228452444,0.8632651813089847,0.027409035125002264
1725629742436961000,5.0229609375,-0.3566962998747825,0.5756020856499672,-0.2379046468861401
1725629742446914800,5.032914794921875,-0.7990355779826641,0.25739070699214933,-0.0653378568291664
1725629742456867800,5.042867919921875,0.04404306680075824,0.051454292905330656,0.2352130697146058
1725629742466820900,5.05282080078125,0.1020113447099924,-0.35769290969669815,0.3666045304268598
1725629742476774000,5.06277392578125,0.5394119243066757,-0.7188789222061633,0.22281616415195166
1725629742486728000,5.07272802734375,0.6380575919758528,-0.8284025422424077,0.13884046154394744
1725629742496681000,5.082680908203125,0.550809005177021,-0.9080366354495286,-0.06131247377060353
1725629742506634000,5.092634033203125,0.2714741043370217,-0.9672919574946165,-0.2793235026631504
1725629742516586800,5.102586669921875,0.24778175164759159,-1.0501467663139104,-0.6311429172165691
1725629742526541000,5.112541015625,0.4267325436532497,-1.1032698692142964,-0.6707743781201541
1725629742536493800,5.122493896484375,0.8140490957845002,-0.8060597775310278,-0.4213547961376607
1725629742546446800,5.13244677734375,0.7212450668156146,-0.5159527958512306,-0.1623224594183266
1725629742556399900,5.14239990234375,0.9104122054744511,-0.49833530609607696,-0.17718356313742697
1725629742566354000,5.15235400390625,0.7152257334608584,-0.5348252541035413,-0.10722798337973653
1725629742576307000,5.162306884765625,0.4601730409622192,-0.283665550455451,-0.12603994361646473
1725629742586260000,5.172260009765625,0.17604213801734148,-0.19653204140365121,-0.16103322332538664
1725629742596213800,5.1822138671875,0.21832718216963112,-0.16229834789037703,-0.07736373712234199
1725629742606166800,5.192166748046875,0.19770057372637093,0.08355740413069725,0.3169154205631465
1725629742616119800,5.202119873046875,0.5062625919640064,0.4312468062072992,0.3961517466243356
1725629742626072800,5.21207275390625,0.3802675834678113,0.6130038878053427,0.5793490901585668
1725629742636027000,5.22202685546875,0.3820544668845832,0.35941841831505295,0.7479162161201238
1725629742645980000,5.23197998046875,0.6495114445347339,0.25240531979501246,0.6038781128678471
1725629742655933000,5.241932861328125,0.23369426264949142,0.06399754813611506,0.5330489651460201
1725629742665886000,5.251885986328125,0.08687500424608588,-0.15683306822180748,0.5416140374608338
1725629742675840000,5.261840087890625,0.11365721270963548,0.015206336960196494,0.5436805415365845
1725629742685793000,5.27179296875,-0.23922194002978503,0.19531039065420627,0.5554303083021194
1725629742695746000,5.28174609375,-0.11101232422403991,0.2619371182501316,0.008034618699923158
1725629742705699000,5.291698974609375,-0.13356456696763633,0.3034808425158262,-0.09503003445528448
1725629742715652900,5.30165283203125,-0.3755231654196977,0.6440133585751057,-0.062275546649098394
1725629742725605600,5.311605712890625,-0.36739261206462975,0.7222492754220962,-0.2706904066134244
1725629742735558700,5.32155859375,-0.5697457608371973,0.6766665048986673,0.005775953052937984
1725629742745511700,5.33151171875,-0.6195598853200673,0.6685889969050884,0.2947081187997013
1725629742755465700,5.3414658203125,-0.422559568817541,0.6762409729629755,0.6564225390974432
1725629742765418800,5.351418701171875,-0.4668523725956678,0.6238251415491104,0.8642682939369231
1725629742775371800,5.361371826171875,-0.3450502126794308,0.3725158002972603,0.8707670083064586
1725629742785324800,5.37132470703125,-0.17054069105684755,0.11516250270605087,0.573708344325237
1725629742795278800,5.38127880859375,-0.4638274718165397,-0.19087679212093353,0.2769208254355937
1725629742805231900,5.39123193359375,-0.38769934090375896,-0.4946680157601833,0.06915664793234318
1725629742815185000,5.401184814453125,-0.10745967324376106,-0.5910889931172132,0.08265223545189947
1725629742825138000,5.411137939453125,0.05482742260023951,-0.3855991537541151,0.3184974655902013
1725629742835091700,5.421091796875,-0.040095790479704733,-0.16947452313005923,0.13256824940666556
1725629742845044700,5.431044677734375,0.07787775105908512,-0.17436989395618438,-0.10421422504913061
1725629742854997800,5.440997802734375,0.017170184379070995,-0.11922142270803451,-0.2159758332705125
1725629742864950800,5.45095068359375,-0.19856442401409147,-0.0614168839931488,-0.3878548967916518
1725629742874904800,5.46090478515625,-0.5255291641004384,0.1830646570652723,-0.5321626838307827
1725629742884857900,5.47085791015625,-0.7179309738315641,-0.1265244391977787,-0.3335282998530194
1725629742894811000,5.480810791015625,-0.5977309153497219,0.027018939828872678,-0.13152542582284657
1725629742904763600,5.490763671875,-0.5215734852772206,0.343856692045927,-0.02084079918321222
1725629742914718000,5.500718017578125,-0.7693219922423362,0.12937164532244205,-0.08832874671835451
1725629742924670700,5.510670654296875,-0.5158125105977058,-0.29638591581881046,-0.2311845631171949
1725629742934623700,5.520623779296875,-0.37979528978094457,0.14534896665513514,0.11752512191785498
1725629742944577800,5.530577880859375,-0.33635508424416183,0.575100565868616,0.43644992780834435
1725629742954530800,5.54053076171875,-0.4377683169305324,-0.09697335054278373,0.30563223012974483
1725629742964483800,5.55048388671875,-0.1274492989577353,0.2514963882565498,0.5048850565331057
1725629742974436900,5.560436767578125,-0.1866074442386627,0.3917898250877857,0.6392183793835342
1725629742984390700,5.570390625,-0.3285539089739323,0.7351023272544145,0.5695171031804755
1725629742994343700,5.58034375,-0.45957156793773174,0.04840834933817386,0.1280396478000097
1725629743004296700,5.590296630859375,-0.4792151566930115,0.357042336833477,0.0014266170033253728
1725629743014249700,5.600249755859375,-0.43426761533319946,0.17941314882040021,-0.15660736970715225
1725629743024203800,5.610203857421875,-0.15681392512992023,0.22722353226542472,-0.18525606616232543
1725629743034156800,5.62015673828125,-0.5722286636941134,0.24487317072451112,-0.09723528941459954
1725629743044109800,5.63010986328125,-0.703844873072952,0.17197335420846938,-0.05533215725198388
1725629743054062800,5.640062744140625,-0.29328721915110945,0.03238075912296772,0.12911376157123594
1725629743064017000,5.650016845703125,-0.00897942526936531,0.3336410029798746,0.48143929901588706
1725629743073970000,5.659969970703125,-0.4449127818576991,0.5787047278404236,0.09119951638169586
1725629743083923000,5.6699228515625,-0.6818804401546716,0.5135492418408394,-0.15128639388009904
1725629743093876000,5.6798759765625,-0.2659931156426668,0.0055383449047803875,0.049911447377502915
1725629743103829800,5.689829833984375,0.18329042864516376,-0.24476444965302943,0.1547722632344812
1725629743113782800,5.69978271484375,0.03625321664214134,-0.25307751996815203,0.3994108945507556
1725629743123735800,5.70973583984375,0.021107816088944673,-0.4134855240672827,0.5488073099657893
1725629743133688600,5.7196884765625,0.252294260635972,-0.6577683276832104,1.1511123282980174
1725629743143643000,5.729642822265625,0.22916765207052228,-0.70403966499269,1.1834002945709974
1725629743153595600,5.739595703125,0.1552035673238337,-0.8149690601736307,0.9484718870166688
1725629743163548700,5.749548583984375,0.19442790873125193,-0.8343313477694988,0.6265307472459971
1725629743173501700,5.759501708984375,0.3728898943066597,-0.6134861183643341,0.6433676080174744
1725629743183455700,5.769455810546875,0.6517268555618823,-0.205007024282217,0.6980144133538008
1725629743193408800,5.77940869140625,0.5462001962073147,0.2003454622119665,0.7516694311738014
1725629743203361800,5.78936181640625,0.27429113451912995,0.33899463896751403,0.03466419388502836
1725629743213314800,5.799314697265625,0.20259119531214237,0.19546236634552477,-0.09185176974534988
1725629743223268900,5.809268798828125,0.6151660342752933,-0.12965806104838848,0.20700638140588998
1725629743233222000,5.819221923828125,0.5560400376982987,-0.12561492313742637,0.2510832774110138
1725629743243175000,5.8291748046875,0.564865587580204,-0.0660614949285984,0.13954612559527158
1725629743253128000,5.8391279296875,1.018819315636158,-0.2349450664281845,0.056434565535932776
1725629743263081700,5.849081787109375,1.4894249032855034,-0.2044815391033888,-0.03297434110194444
1725629743273034800,5.85903466796875,1.2649649905145168,-0.19063304649293422,-0.2201915878020227
1725629743282987800,5.86898779296875,1.1309534104317427,-0.32111586792767044,-0.25640944086983797
1725629743292940800,5.87894091796875,1.0932488259375095,-0.3929313963383436,-0.12432576010972261
1725629743302894800,5.888894775390625,0.6527895163573324,-0.5860480763405561,0.08487871586233377
1725629743312848000,5.898847900390625,0.2679004105687141,-0.5256114355564118,0.3511966795451939
1725629743322801000,5.90880078125,0.25717823328524825,-0.12423778956532477,-0.03807750945985317
1725629743332754000,5.91875390625,-0.12085808399915694,-0.04670096089839935,-0.36703678436428305
1725629743342708000,5.9287080078125,-0.049483285093307496,-0.19783786330521105,-0.39682708860263227
1725629743352661000,5.938660888671875,-0.1392620479568839,-0.15199264245331287,-0.4024000664293766
1725629743362614000,5.948614013671875,-0.2036445037573576,-0.10689970127344131,-0.7957737997077405
1725629743372567800,5.95856787109375,0.13521481839269398,-0.12136603352129459,-0.4647770276263356
1725629743382520800,5.968520751953125,0.39640871706008907,0.14828502010703085,-0.16695318795889616
1725629743392473600,5.9784736328125,0.010193477234244346,0.26844693853557106,-0.4447267577663064
1725629743402426600,5.988426513671875,-0.19506065367683767,-0.09985153632760048,-0.367171224398911
1725629743412380700,5.998380615234375,-0.29456863726377486,-0.4230594080984592,0.1661110380463302
1725629743422333700,6.008333740234375,-0.16352935099005697,-0.46305298031270503,0.1698550468802452
1725629743432286700,6.01828662109375,-0.27579730129837987,-0.6109563076257706,0.1504326996602118
1725629743442239700,6.02823974609375,-0.2964968288473785,-0.5168646499991416,0.5280068062603473
1725629743452193800,6.03819384765625,0.13507394861727953,-0.4241799365609884,0.888909471783787
1725629743462146800,6.048146728515625,0.06983283016085624,-0.24112813897728919,0.734620096695423
1725629743472099800,6.058099853515625,-0.043272155493497846,-0.2729430809110403,0.44555356397926804
1725629743482052900,6.068052978515625,-0.08313654837012291,-0.2720762349486351,0.359945218668133
1725629743492006700,6.078006591796875,0.16982289817631244,-0.4858534256637096,0.45548166827559466
1725629743501959700,6.087959716796875,0.1375271869882941,-0.47382279613018036,0.4827401159487664
1725629743511912700,6.09791259765625,0.05445639733076095,-0.3054588645905256,0.30465383181795475
1725629743521865700,6.10786572265625,0.053823067863285536,-0.020400398471951485,0.4459538153432309
1725629743531819800,6.11781982421875,0.01837225364521146,0.055578679358959195,0.6040080959230661
1725629743541772800,6.127772705078125,-0.17334639612734318,0.14876549710035322,0.34626755257993935
1725629743551725800,6.137725830078125,-0.19960589589104055,0.25904256585240365,0.12333645681142806
1725629743561678800,6.147678955078125,0.07158069674149155,0.38673721787333487,0.22972762404084204
1725629743571633000,6.1576328125,-0.19786299774646757,0.48878538746237754,-0.0759657068926841
1725629743581586000,6.1675859375,-0.19112053774893284,0.20670155324041842,-0.2895016361977905
1725629743591539000,6.1775390625,0.0022419337078928947,0.1885556556969881,-0.16782134909555316
1725629743601491700,6.18749169921875,-0.07686389784142375,0.2612783620804548,0.0750745302066207
1725629743611446000,6.197446044921875,0.062221770635247226,0.4140712150007486,-0.1721287639658898
1725629743621398800,6.207398681640625,0.10805647009313106,0.30061493169069287,-0.2776606840174645
1725629743631351800,6.217351806640625,-0.3416678036995232,0.163646839889884,-0.19295023739412426
1725629743641304800,6.227304931640625,-0.4207955548197031,0.15011106649041175,-0.18214118554480374
1725629743651258600,6.237258544921875,-0.2610198572747409,-0.38044074807763095,-0.25291027364246543
1725629743661211600,6.247211669921875,0.10746084228754042,-0.2510930681526661,-0.2152073696486652
1725629743671164700,6.25716455078125,0.030880291432142257,-0.03434533719420433,-0.22326485776752233
1725629743681117700,6.26711767578125,-0.6776812348991632,0.37157998075187204,-0.3396592768887058
1725629743691071700,6.27707177734375,-0.7232983460836112,0.22374445797801015,-0.526499799230881
1725629743701024800,6.287024658203125,-0.25147768355607986,0.24229542919099328,-0.4444064763033762
1725629743710977800,6.296977783203125,-0.21491335513815282,0.6980588370174169,-0.2273214396819472
1725629743720931300,6.306931396484375,-0.21363149863407013,0.7829337534874677,-0.527164839010872
1725629743730885600,6.3168857421875,-0.2507655897639692,0.3674135087221861,-0.6640992112051696
1725629743740838400,6.32683837890625,-0.06405117801949381,0.37360944075286384,-0.5931999939218163
1725629743750791400,6.33679150390625,-0.5750986661724746,0.3619353695720434,-0.4359853790365159
1725629743760744400,6.346744384765625,-0.4884522099852562,0.12929273486733436,-0.24355410574888808
1725629743770698200,6.3566982421875,-0.43062662848234173,-0.05410334610939026,-0.10471388166695833
1725629743780651300,6.3666513671875,-0.5265075076133012,-0.08447685706317425,0.08172099161692895
1725629743790604300,6.376604248046875,-0.35420740566849707,-0.06776596075892448,-0.08289198075821623
1725629743800557300,6.386557373046875,0.07443893571682274,0.21504794130325317,0.19417510301396249
1725629743810511400,6.396511474609375,0.3692185123175382,0.5467728815287352,0.2586036629784852
1725629743820464400,6.40646435546875,0.23026523804888127,0.7191542320162058,0.016127927050832658
1725629743830417400,6.41641748046875,-0.04832242462038994,0.6959446213424205,0.05165790745234117
1725629743840370400,6.426370361328125,-0.01262976447045803,0.5112397958546877,-0.08472473087701946
1725629743850324500,6.436324462890625,0.09334332347735762,0.41783027527332306,-0.018892204132396728
1725629743860277500,6.446277587890625,0.0798123723834753,0.5506441700041294,0.14041244183471427
1725629743870230500,6.45623046875,-0.03610357903838157,0.33770752176642416,-0.2556613624488935
1725629743880183600,6.46618359375,-0.2296376076698303,-0.013289105162024497,-0.4501628113403916
1725629743890137300,6.476137451171875,-0.1827174510627985,-0.1996089646309614,-0.4038188106535002
1725629743900090400,6.48609033203125,-0.3851597394235432,-0.3342775473177433,0.049691301820799706
1725629743910043400,6.49604345703125,0.22927856509909034,-0.11351882715225219,0.3212705105001107
1725629743919996400,6.505996337890625,0.39239305167794225,-0.28726678981781006,0.32790366490427403
1725629743929950500,6.515950439453125,0.2675011821180582,0.01685001251399517,0.38044403601326043
1725629743939903500,6.525903564453125,0.42532253072485326,-0.09186462922692298,0.32181528490129857
1725629743949856300,6.535856201171875,0.5462228464305401,-0.1910737759977579,0.5232462773276493
1725629743959810600,6.545810546875,0.7986967014171182,0.3249398101300001,0.43924569600671526
1725629743969763300,6.555763427734375,0.1720915737606585,0.3751017251372337,0.33776871390175073
1725629743979716400,6.56571630859375,0.23348741496577857,-0.004046060520410537,0.2993001227650791
1725629743989669400,6.57566943359375,0.7204688217461108,-0.08102467078268527,0.22168990006837994
1725629743999623400,6.58562353515625,0.5318330865502358,0.14460545481145382,0.11490586106386035
1725629744009576400,6.595576416015625,0.20524317112565038,0.41542964387238024,0.1360534611739218
1725629744019529200,6.605529296875,0.14865385341942308,0.3563941020578146,0.21530019903127104
1725629744029482200,6.615482177734375,0.11121581090688705,0.1505441972106695,0.3653466758528724
1725629744039436300,6.625436279296875,-0.20504779468402265,0.2922527615368366,0.20278478165548294
1725629744049389300,6.635389404296875,-0.341315629260987,0.01683306137919426,0.22603848719932138
1725629744059342300,6.64534228515625,-0.44175826334953305,-0.4885843119323253,0.7400641874454915
1725629744069295400,6.65529541015625,0.3575825081247836,-0.9467682249039411,0.90839757771641
1725629744079249400,6.66524951171875,0.4121078059732914,-0.8040513603180647,0.9593313538789748
1725629744089202400,6.675202392578125,0.39204993732869625,-0.8646715409755706,1.2448026385821402
1725629744099155500,6.685155517578125,0.39596901046857236,-0.8129518751323223,1.1318463406834751
1725629744109108500,6.6951083984375,0.3376706968873739,-0.7702893759697675,0.9566600888431072
1725629744119062500,6.7050625,0.32800971909463406,-0.6721990040957927,0.861016379468888
1725629744129015600,6.715015625,0.45258134372420605,-0.4665343926876783,1.0725279633395373
1725629744138968600,6.724968505859375,-0.005243745872378349,0.36425825956165786,0.8301605648908764
1725629744148921600,6.734921630859375,-0.23203590098321436,0.5349158549964428,0.7738084900066257
1725629744158875400,6.74487548828125,-0.22965762754455207,0.8410434126287698,0.7914804864279925
1725629744168828400,6.754828369140625,-0.4758657001346349,1.2279776143789292,0.5114898616256192
1725629744178781200,6.76478125,-0.9987567708164453,1.1145768606483937,0.38173246838860214
1725629744188734200,6.774734130859375,-1.1268985820829867,0.6841910551846027,0.3274761967398226
1725629744198688500,6.7846884765625,-0.977811597943306,0.25741642595529557,0.3162877901840955
1725629744208641300,6.794641357421875,-0.9800019475944339,-0.0962035352140665,0.4463722964836284
1725629744218594300,6.80459423828125,-0.6097529231853783,-0.43825931531786916,0.5651001635210589
1725629744228547300,6.81454736328125,-0.2668529473423958,-0.6535796438217163,0.5537177322305739
1725629744238501400,6.82450146484375,0.05859079372175038,-0.7479846051812171,0.5315863452475518
1725629744248454400,6.834454345703125,0.3208219264823943,-0.7191454641878604,0.4568479881927371
1725629744258407400,6.844407470703125,0.1731711856909096,-0.6602180589228868,0.4441980211844668
1725629744268360400,6.8543603515625,0.18304792512618004,-0.5895405946314335,0.13319018069729208
1725629744278314200,6.864314208984375,-0.01732230620086193,-0.402802217489481,0.1662506657127291
1725629744288267300,6.874267333984375,-0.4826506840996444,0.059877837857604026,0.10602646210286766
1725629744298220300,6.88422021484375,-0.6462129144459963,0.4415507580786943,-0.09644607526566833
1725629744308173300,6.89417333984375,-0.61033715281412,0.6101841542094946,-0.024181396581698208
1725629744318127400,6.90412744140625,-0.5004553669899702,0.7340478497654199,-0.2794395302582532
1725629744328080400,6.914080322265625,-0.6377974066697061,0.5418798487901687,-0.4316170642917975
1725629744338033400,6.924033447265625,-0.5647060131043196,0.5400327596187591,-0.6453413192432373
1725629744347986400,6.933986328125,-0.5326245291888714,0.32379005557298657,-0.8011896142113953
1725629744357940500,6.9439404296875,-0.5698338775120675,0.5266980617493391,-0.6123530957464128
1725629744367893500,6.9538935546875,-0.5278377333037555,0.7516121480286121,-0.5543447050224989
1725629744377846500,6.963846435546875,-0.5429043695323169,0.23458207833468914,-0.8334241697967052
1725629744387799600,6.973799560546875,-0.5894020629435778,0.24860242038071154,-1.0875915308281778
1725629744397753600,6.983753662109375,-0.29002383344098925,0.05801321302950382,-0.8530781338155269
1725629744407706600,6.99370654296875,-0.4503324688188731,-0.08016717717051505,-0.42465087854098527
1725629744417659400,7.003659423828125,-0.3877003638170659,-0.36577977004051204,-0.45031504276003687
1725629744427612400,7.0136123046875,-0.1647027786836028,-0.33106793762147424,-0.01123644694853574
1725629744437566200,7.023566162109375,-0.09909823374226688,-0.33038580057621,0.4331769340196624
1725629744447519200,7.033519287109375,-0.23390520198643205,-0.36429157730937,0.5416236090067774
1725629744457472300,7.04347216796875,-0.1771060409218073,-0.4979617966085672,0.5037658067122102
1725629744467425300,7.05342529296875,-0.2078928088515997,-0.5214391183078289,0.5426723874073476
1725629744477379300,7.06337939453125,-0.23681685164943336,-0.5933364797830581,0.7540813146211206
1725629744487332400,7.073332275390625,-0.05238952792882919,-0.6858680484861135,0.8145273077555001
1725629744497285400,7.083285400390625,-0.062381345111131664,-0.7331745740622282,0.8769254578709602
1725629744507238400,7.09323828125,0.08762436130866408,-0.5352221444666385,0.8460681089229881
1725629744517192400,7.1031923828125,-0.0428580217346549,-0.4022726406574249,0.8488134621083736
1725629744527145500,7.1131455078125,0.15321078607141972,-0.08521335464417934,0.7177794365316629
1725629744537098500,7.123098388671875,0.23798107312321662,0.3218991272598505,0.7708785740345716
1725629744547051500,7.133051513671875,-0.07642974420785903,0.6512976703643798,0.7417837777797133
1725629744557005300,7.14300537109375,-0.2721519305333495,0.9042863430052995,0.4414789349514991
1725629744566958300,7.152958251953125,-0.29511224262118335,0.8814005574584006,0.1032703317951411
1725629744576911400,7.162911376953125,-0.22536124552488326,1.0409083978474138,0.06364055139198899
1725629744586864400,7.172864501953125,-0.23244506630599499,1.0572539679706097,0.27382147118076683
1725629744596818400,7.182818359375,-0.031301147192716594,0.9793389536410569,0.17447174689546227
1725629744606771500,7.192771484375,0.20659721608310935,0.8579694129884242,0.23589096897616982
1725629744616724500,7.202724365234375,0.5617337192952633,0.5345592966437339,0.24997093225494027
1725629744626677200,7.21267724609375,0.7736234888285398,0.3608645254701376,0.2689246390499174
1725629744636631600,7.222631591796875,0.6286699512317776,0.16886837393045426,0.36372006103172894
1725629744646584300,7.232584228515625,0.5391580226108431,-0.1902408323049545,0.4017386799111962
1725629744656537300,7.242537353515625,0.5518494541406631,-0.3427233041018247,0.6946494669653475
1725629744666490400,7.252490478515625,0.6773501032486557,-0.4471498932600021,0.8481129126235842
1725629744676444400,7.2624443359375,1.1420146104112268,-0.2947714663594961,0.9339806395232677
1725629744686397400,7.2723974609375,0.8776160704836249,-0.41527240748405453,0.5774437679938972
1725629744696350500,7.2823505859375,0.5931859653964638,-0.456204721853137,0.5701987653017043
1725629744706303200,7.29230322265625,0.554833730648458,-0.7158586976021528,0.5710308322116733
1725629744716257300,7.30225732421875,0.6561220217809081,-0.6789613378375768,0.6428592201039195
1725629744726210300,7.312210205078125,0.4127580865755677,-0.4349123429775238,0.7366137547306716
1725629744736163300,7.322163330078125,0.695123075826466,-0.6154419286072254,0.6473316893428563
1725629744746116400,7.332116455078125,0.7159320550993085,-0.6916787805914878,0.4639445223249495
1725629744756070400,7.3420703125,0.5585194334238768,-0.8397825989127159,0.061223114986717696
1725629744766023400,7.3520234375,0.6164075587689877,-0.6980524072766303,0.13910437317714094
1725629744775976400,7.3619765625,0.6923109410151839,-0.2549567578434944,0.20479411218389867
1725629744785929200,7.37192919921875,0.5731009164839983,0.0462152232080698,0.11914821134135127
1725629744795883500,7.381883544921875,0.4359305801093578,-0.0025327333480119705,0.3670800389841199
1725629744805836300,7.391836181640625,-0.07617197005450725,-0.04793079495429992,0.6252097277753055
1725629744815789300,7.401789306640625,-0.11521569419801235,-0.2567605923950672,0.3070500793047249
1725629744825742300,7.411742431640625,0.5274304676771163,-0.08224632153213024,0.310655848711729
1725629744835696000,7.421696044921875,0.35255262419879435,0.33569209029078484,0.42497883185371754
1725629744845649200,7.431649169921875,-0.2147767231464386,0.29195933154821396,0.05301788896024227
1725629744855602200,7.441602294921875,-0.0580664045214653,-0.23103052333295343,0.20273001926094292
1725629744865556200,7.45155615234375,-0.10740268235951661,-0.2465828972518444,0.5344504294417798
1725629744875509200,7.46150927734375,-0.13935381789356469,-0.2122317148387432,0.6646196548826993
1725629744885462300,7.471462158203125,-0.07371347098648548,0.10028466704785824,0.337246187864989
1725629744895415300,7.481415283203125,-0.34782822602540253,0.08762509196102619,-0.12013108489885925
1725629744905368300,7.491368408203125,0.0416840095192194,0.1629927598953247,0.25758798312991854
1725629744915322400,7.501322265625,0.1380132169395685,0.5428945787906646,0.3689725747324526
1725629744925275400,7.511275390625,0.18332593834996222,0.45998248682618137,-0.10982304137423633
1725629744935228400,7.521228515625,0.10059855530261992,0.026789807248115537,-0.23639745719358324
1725629744945181400,7.531181396484375,0.37822833272516726,-0.16285364368557928,0.13269903617948292
1725629744955135200,7.54113525390625,0.29594080239981413,-0.16955752523839474,0.26410321024283767
1725629744965088300,7.551088134765625,0.4896186234161257,0.06025836160778999,-0.020833821453154086
1725629744975041300,7.561041259765625,0.09829261644780635,0.2794651761561632,-0.08299933185651898
1725629744984994300,7.570994384765625,-0.1131590539291501,0.21061726537942885,0.06337006388753652
1725629744994948400,7.5809482421875,-0.3232365133434534,-0.051262569725513456,0.11048325884863734
1725629745004901400,7.5909013671875,-0.34654432369470595,-0.5537345372349024,-0.06720803461521864
1725629745014854100,7.600854248046875,-0.13953867294117808,-0.6291834537118673,-0.27382453992068767
1725629745024808400,7.610808349609375,-0.20588088450729847,-0.2899246108502149,-0.17527027686201035
1725629745034761200,7.62076123046875,-0.03338189898952842,0.038105566510558124,-0.29152342434898015
1725629745044714200,7.63071435546875,0.04052943265661597,0.10379822812676429,-0.32026253903396423
1725629745054667300,7.640667236328125,-0.6065665482342243,0.1854758098602295,-0.31097528992444273
1725629745064621300,7.650621337890625,-0.6287398015975951,0.05808218661248683,-0.4182774345189333
1725629745074574300,7.66057421875,-0.40374607421085235,-0.1631231082767248,-0.35815438972860575
1725629745084527400,7.67052734375,-0.36136063842400906,-0.06948854676783084,-0.3462901297379285
1725629745094480400,7.68048046875,-0.7939894005089998,-0.08366846328973769,-0.16661146184913814
1725629745104434200,7.69043408203125,-0.17663491627871988,-0.24183482594192027,-0.10037139548324048
1725629745114387200,7.70038720703125,0.19713643703758715,0.04283317955434322,-0.10859733550418167
1725629745124340200,7.71034033203125,-0.42666196263507006,0.35544893016219137,-0.06213442114535719
1725629745134293200,7.720293212890625,-0.3856494226366281,0.16371055277585983,-0.17868962031882255
1725629745144247300,7.730247314453125,-0.02163315513730049,0.07599719800949097,-0.04355312785934656
1725629745154200300,7.740200439453125,0.05958733047842979,0.32888884001672264,-0.05886803976055234
1725629745164153300,7.7501533203125,-0.3526286120444536,0.4234305794984102,-0.3519834094760939
1725629745174106400,7.7601064453125,-0.659670873368904,0.3093868516892195,-0.33398499411195515
1725629745184060400,7.770060302734375,-0.5732821182698011,-0.0033650925189256664,-0.3009736454678699
1725629745194013400,7.780013427734375,-0.2588396636914462,-0.18625147040784357,-0.23693207552693782
1725629745203966500,7.789966552734375,-0.09047280954234302,0.13235036887228488,-0.04941780494193081
1725629745213919500,7.79991943359375,-0.014314941078424452,0.267650819721818,-0.2633803027957678
1725629745223873300,7.809873291015625,0.20740458694323896,0.17856793016791342,-0.6337096258994191
1725629745233826300,7.819826416015625,0.16464797975644468,0.44009062239825725,-0.567417390954867
1725629745243779300,7.829779296875,-0.1998790137439966,0.5725877062648534,-0.1954654533517547
1725629745253732000,7.839732177734375,0.012902590062469244,0.5000345112293958,0.2726377595552243
1725629745263686400,7.849686279296875,0.0180174488581717,0.5311486114174128,0.2793364534762688
1725629745273639200,7.85963916015625,0.12471066777408123,0.3243529501527548,-0.231079586639069
1725629745283592200,7.86959228515625,0.2887935609936714,0.24878537573218343,-0.42483240912035103
1725629745293545200,7.879545166015625,0.37620179533362386,0.4740039979159832,-0.08542137137167155
1725629745303499300,7.889499267578125,0.40134441989660263,0.17771335916519165,-0.25177476680651306
1725629745313452300,7.899452392578125,0.23286942919790743,-0.0023094459861516953,-0.3131265862068161
1725629745323405300,7.9094052734375,0.10367781661748886,-0.0007744915038347244,-0.03674023297410458
1725629745333358300,7.9193583984375,0.4169968201238662,-0.21138766523003577,-0.42326490407530215
1725629745343312400,7.9293125,0.5529390029430389,0.17379706250429153,-0.4228020723365247
1725629745353265400,7.939265380859375,0.05407280484065413,0.45602235102355476,-0.3928217254187912
1725629745363218400,7.949218505859375,0.3971444839887321,0.27911095589101315,-0.6196008749175816
1725629745373171500,7.95917138671875,0.036440263646841047,0.030413258442282674,-0.40046584696378557
1725629745383125200,7.969125244140625,0.3363048153616488,0.024239538243412972,0.03549571280572563
1725629745393078300,7.979078369140625,0.46612098958119746,0.012726210582256316,0.3703173038722947
1725629745403031300,7.98903125,0.5190472547352314,-0.23768881217837332,0.24759945388324558
1725629745412984300,7.998984375,0.469518961456418,-0.12855389919877053,0.5636609610307961
1725629745422938400,8.0089384765625,0.5015291337013245,-0.8551894268810749,0.15722184834368527
1725629745432891400,8.018891357421875,0.33701150232627985,-0.3246048790872097,0.15351437212787566
1725629745442844400,8.028844482421874,0.3006320289559662,-0.4102952035933733,0.5951181025028228
1725629745452797400,8.03879736328125,0.5132984819501638,-0.4871072251170873,0.8958533726375549
1725629745462751500,8.04875146484375,0.4764863162510097,-0.38257951367199416,1.2277768311098218
1725629745472704500,8.05870458984375,0.3691189974658191,-0.4133569292515516,1.5568258301243185
1725629745482657300,8.0686572265625,0.44080023197233675,-0.15221183816194533,1.5161965903550385
1725629745492610300,8.0786103515625,0.0103349315315485,0.052931379720568654,1.2562211275666952
1725629745502564000,8.088564208984375,0.051723172974586486,-0.03296294292509556,1.0232619742587208
1725629745512517000,8.09851708984375,0.3297067322708666,0.033410102170705794,0.8731896323435008
1725629745522470100,8.10847021484375,0.2806014867097139,0.22248539782762528,0.7548189812459051
1725629745532423200,8.118423095703125,0.5283288778215647,0.2759884399563074,0.572358792879805
1725629745542377200,8.128377197265625,0.1594147552780807,0.4543132090181112,0.3681375121477991
1725629745552330200,8.138330322265626,-0.5673159033417702,0.12241758840084076,-0.0007889584206044674
1725629745562283300,8.148283203125,-0.3071510554611683,-0.30332711325883865,-0.18636537911109624
1725629745572236300,8.158236328125,-0.008928425734490156,-0.023174539360404013,0.17030216959323732
1725629745582190300,8.1681904296875,-0.01034559905603528,0.2014735894590616,0.2725649317810312
1725629745592143400,8.178143310546876,0.15682079326212406,0.014876082092523574,0.07997885152418166
1725629745602096400,8.188096435546875,0.11492460229694842,-0.023299627044796944,-0.4680655843103304
1725629745612049400,8.19804931640625,-0.07688610967323184,-0.11034779590070247,-0.6883956672675907
1725629745622003200,8.208003173828125,-0.4709259056448936,0.1048871924072504,-0.7240989949420094
1725629745631956200,8.217956298828126,-0.08833353249132633,-0.07939034757912158,-0.39427276447732
1725629745641909200,8.2279091796875,0.1955968063801527,0.09636778586506843,-0.16230223861420526
1725629745651862300,8.2378623046875,0.059963324183970684,0.3158171769976616,-0.010169913695566355
1725629745661816300,8.24781640625,-0.34865210962891574,0.2894786206483841,-0.21119482780536636
1725629745671769300,8.257769287109374,-0.34328502963781354,0.08600538180470466,-0.2328613737556152
1725629745681722400,8.267722412109375,-0.1321452016890049,0.00017009586989879608,-0.2920763455240056
1725629745691675100,8.277675048828126,-0.30660218940675255,0.2600958742976188,-0.10949116080505773
1725629745701629400,8.28762939453125,-0.47538230053186414,0.3822305541038513,-0.23073236237028613
1725629745711582500,8.29758251953125,-0.5053150819808244,0.318168124037981,-0.2815119891507551
1725629745721535000,8.307534912109375,-0.6242798995792865,0.4074228630274534,-0.3414288073118776
1725629745731488000,8.317488037109374,-0.6613841800928115,0.19696751021146774,-0.2428322394814342
1725629745741442000,8.327442138671875,-0.6938514484554529,-0.10101531940996647,-0.02844425992425531
1725629745751395000,8.33739501953125,-0.21031609047576783,-0.09840718273818493,0.10393289649025536
1725629745761348000,8.34734814453125,-0.12094810037016868,-0.15051614015996456,0.231554382810276
1725629745771301000,8.357301025390624,-0.1997615248441696,0.10966975050866604,0.3693615009848028
1725629745781255000,8.3672548828125,-0.24332652580440042,0.2763841612756252,0.28229605220053344
1725629745791208000,8.3772080078125,-0.5199864352814852,-0.252685890302062,0.24727540956065058
1725629745801161000,8.387160888671875,-0.1993732561789453,-0.3306909210026264,0.33176753725819286
1725629745811114000,8.397114013671874,-0.09652911390662193,-0.11033552094101905,0.232607965250127
1725629745821068000,8.407068115234376,-0.03314341405853629,-0.18197978443801402,0.46235166364293545
1725629745831021000,8.41702099609375,0.18826061827316878,-0.039083471632003784,0.45358160680793225
1725629745840974000,8.42697412109375,-0.21372736022397876,0.3657879533469677,0.5644626693351193
1725629745850927000,8.436927001953125,-0.22181144408881662,0.34891397543549535,0.684253891287744
1725629745860881200,8.446881103515626,0.2066029151715338,-0.11905892562270164,0.6994792982745915
1725629745870834200,8.456834228515625,0.1749924097687006,0.368987626171112,0.39201238179728387
1725629745880787000,8.466786865234376,0.04040931340828538,0.39465515139102936,0.05688559723906219
1725629745890740000,8.476739990234375,0.17492460522949693,0.43503158544301984,-0.011959829319640994
1725629745900694000,8.486694091796876,0.48711628520637745,0.38497429985404014,-0.041369829003512854
1725629745910647000,8.49664697265625,0.22089958994090556,0.6261708278924226,-0.32878092266283926
1725629745920600000,8.50660009765625,-0.3524894958347082,0.06066869597434997,-0.21990933679454028
1725629745930552800,8.516552734375,0.15904343774765728,0.05821721116900444,-0.04206650603078305
1725629745940507000,8.5265068359375,0.35834231351614,0.24174656313657758,0.0067018357262015335
1725629745950460000,8.5364599609375,0.2586526897519827,0.12700316262543201,-0.09017053866013884
1725629745960413000,8.546412841796876,0.6941030851289629,0.1757896976262331,0.06741802410408854
1725629745970366000,8.556365966796875,0.45901977927386756,0.33637130472660065,-0.12020320028699934
1725629745980320000,8.566320068359374,0.31751535921767354,0.3196493025064468,0.09281550021097064
1725629745990273000,8.57627294921875,0.3701566699504852,0.45464989362657066,0.31461817647144197
1725629746000226000,8.58622607421875,0.26795652467012404,0.542347466301918,0.28342575035020706
1725629746010180000,8.59618017578125,0.29694705683290956,0.46573885839581486,0.20786475180089473
1725629746020133000,8.606133056640624,0.2997361030295491,0.05135375514030456,0.18207053146138785
1725629746030086100,8.616086181640625,0.31855653883367774,-0.06675123075842856,0.03498772675096989
1725629746040039200,8.6260390625,0.6593173106908797,-0.1315653559744358,0.06277209799438714
1725629746049993000,8.635992919921875,1.294536245174706,-0.12845628404319284,0.42929801022708414
1725629746059946000,8.645946044921875,1.245542497164011,-0.5434118806630373,0.367342781573534
1725629746069899000,8.65589892578125,0.9713765964597463,-0.45926177133619783,0.4904100660547614
1725629746079852000,8.66585205078125,0.7226704234436154,-0.4925976392269134,0.28893048524633047
1725629746089806000,8.67580615234375,0.8128346784934402,-0.4925725047856569,0.1753036676749587
1725629746099759000,8.685759033203125,1.057380224698782,-0.294827580460906,0.03398965562433004
1725629746109712100,8.695712158203126,0.8819546842098236,-0.1319184071958065,-0.21364245841950177
1725629746119665000,8.705664794921875,0.8367457154348492,-0.268973008236289,-0.4896856973029673
1725629746129619200,8.715619140625,1.2425734182253478,-0.19629297195076942,-0.5711325390204787
1725629746139572000,8.725572021484375,0.9158920251250267,-0.24968261683285234,-0.3127631962545216
1725629746149525000,8.73552490234375,0.4590703404173255,-0.18447101673185826,-0.2255795644506812
1725629746159478000,8.74547802734375,0.5485092038020492,-0.3029880905628204,0.0035343116059899328
1725629746169431800,8.755431884765626,0.3829354875028133,-0.3501461475789547,0.4754148876272142
1725629746179384800,8.765384765625,0.3703618371337652,-0.3231429898411035,0.5223031877912581
1725629746189337900,8.775337890625,0.358006505690515,-0.2684282338351011,0.313165347314626
1725629746199291000,8.785290771484375,0.12053659695982932,-0.1746387740254402,0.27302798271551726
1725629746209245000,8.795244873046874,-0.0660480509251356,-0.268385563737154,0.2755922802455723
1725629746219198000,8.805197998046875,-0.1531546719700098,-0.27001111911237236,0.328504955265671
1725629746229151000,8.81515087890625,0.09814970084577798,0.09224223036766052,0.4093421406522393
1725629746239104000,8.82510400390625,0.04588263025283813,0.5202221437335014,0.568443592197448
1725629746249058000,8.83505810546875,-0.2762719330728054,0.35130993066132066,0.46692017713487144
1725629746259011000,8.845010986328125,-0.03277911079078913,-0.24527181465327738,0.5007330148875713
1725629746268964000,8.854964111328124,-0.2153393254652619,-0.4135141656398773,0.7966187260992824
1725629746278917000,8.864917236328125,-0.04663900157809257,-0.6100333475619554,0.4997555481575429
1725629746288871200,8.87487109375,0.08670125511437654,-0.596501665815711,0.4215810061089694
1725629746298824200,8.88482421875,0.34023528667837377,-0.5351975945472717,0.6416707409717142
1725629746308777200,8.894777099609374,0.6022390404239296,-0.1956575966566801,0.6059146601967513
1725629746318730200,8.904730224609375,0.32162147936224933,0.18935937329530714,0.2666290754586458
1725629746328684000,8.91468408203125,0.14983283407092093,0.2335591650277376,-0.25302710495516656
1725629746338637000,8.924636962890625,0.1260316872447729,0.2789741777688265,-0.3426027464620769
1725629746348589800,8.93458984375,0.23747911495044827,0.4157528844773769,-0.012488310173153877
1725629746358542800,8.94454296875,-0.041699791610240934,0.3759440211802721,-0.3156641783930361
1725629746368497000,8.954496826171875,-0.13925883308649062,0.02360825460255146,-0.46642530629001555
1725629746378450000,8.964449951171876,-0.156095401597023,-0.15080080232024193,-0.26072774246037006
1725629746388403000,8.97440283203125,0.05580021315515041,-0.024131401693820952,-0.3842129600927233
1725629746398356000,8.98435595703125,-0.05004004219323396,-0.27907705362141133,-0.8300807776529342
1725629746408310000,8.99431005859375,0.34618250464498995,-0.6728589293092488,-1.0498659766111522
1725629746418263000,9.004262939453126,0.4775428395666182,-0.6035018999665975,-0.5755841846670955
1725629746428216000,9.014216064453125,0.016691022560000417,-0.21993220621347426,-0.4583301895745098
1725629746438169000,9.024169189453126,-0.22586408048048615,-0.41572073577344415,-0.7926987761765718
1725629746448123000,9.034122802734375,-0.15889423853531479,-0.920805516129732,-0.43021950898617506
1725629746458076000,9.044075927734376,0.10831307520270347,-0.6079419282406568,-0.2390563742045313
1725629746468029000,9.05402880859375,-0.07749167435094714,-0.19680092147290706,-0.4076367980390787
1725629746477982000,9.06398193359375,-0.1340815765790641,0.0779296273767948,-0.650557446456328
1725629746487936000,9.07393603515625,-0.06538856410309672,0.2859340799093246,-0.5077819104857743
1725629746497889000,9.083888916015624,-0.017559622088074683,0.804393890145421,-0.3417239178009331
1725629746507842000,9.093842041015625,-0.42249782869294283,1.1147247446864843,-0.32116690399516373
1725629746517795000,9.103795166015624,-0.7546294500231743,0.7867793229997158,-0.30712402132377026
1725629746527749000,9.1137490234375,-0.5493985538572073,0.5853372977226973,-0.1926685891748406
1725629746537702100,9.1237021484375,-0.45765258257389063,0.6090320615649223,-0.1025824591288343
1725629746547655200,9.1336552734375,-0.3337795346677303,0.44114042371213436,-0.3709507429376244
1725629746557608200,9.143608154296874,-0.18687457074224947,0.3711018418461084,-0.18448741987738757
1725629746567562000,9.15356201171875,-0.34055765050053594,0.31276831082105633,-0.0324251827865839
1725629746577515000,9.163514892578124,-0.12061010058745741,0.13840309303998946,-0.13680694642234592
1725629746587468000,9.173468017578125,0.11260595009103416,0.11690963863432406,0.08141648311186582
1725629746597421000,9.183421142578124,0.0914677388638258,0.32606150763630865,0.25534206736665216
1725629746607374800,9.193374755859375,-0.049825230398774144,0.35571254953444004,0.016077480071806347
1725629746617327900,9.203327880859375,-0.1827877398200333,0.20725860260128973,-0.13151778137250802
1725629746627281000,9.213281005859375,0.0069430971361696715,0.053446343505382535,-0.06693102603843436
1725629746637234000,9.22323388671875,0.03120893886461854,0.08742927712798118,-0.029925885917292908
1725629746647188000,9.23318798828125,0.3344020504802465,0.2240600997984409,0.22968729203045365
1725629746657141000,9.24314111328125,0.21945976639613507,0.20278642562329768,-0.09587496084682642
1725629746667094000,9.253093994140626,0.017740823873877525,0.17911913430988788,-0.2672837399750948
1725629746677047000,9.263047119140625,-0.21397812011465428,0.1890133363366127,-0.0940061347676441
1725629746687001000,9.2730009765625,-0.06391761476770043,0.336939460003376,0.2769299951227382
1725629746696954000,9.2829541015625,0.11734978361725806,0.0386731372654438,0.02235840067192912
1725629746706907100,9.2929072265625,0.3950292454004288,0.19931611916422842,0.1919754558115266
1725629746716860200,9.302860107421875,0.5381811404027045,0.3305073811292648,0.2039068627542816
1725629746726813700,9.312813720703126,0.269696646335721,0.290073663932085,0.2770459313862957
1725629746736766700,9.3227666015625,-0.05377528319880366,-0.0684884298145771,0.002707121800538152
1725629746746719700,9.3327197265625,-0.37518984181210396,-0.21841770999729632,0.2535851224304177
1725629746756672800,9.3426728515625,0.20888956480398774,-0.5745335796356201,0.417815369965136
1725629746766626800,9.352626708984374,0.6318367446996271,-0.6868588130891322,0.5037860823152587
1725629746776579800,9.362579833984375,0.9299709654904902,-0.5002706580728292,0.9160388131845741
1725629746786532900,9.372532958984374,1.1158360669292509,-0.42056057702004906,1.0562710944131015
1725629746796486000,9.38248583984375,1.169448999173194,-0.42136604818403717,0.8229505604468286
1725629746806440000,9.39243994140625,0.8747831851452589,-0.4326017279475927,0.45072687496393915
1725629746816393000,9.40239306640625,0.7665672867067158,-0.2754705535620451,0.07282837698133662
1725629746826346000,9.412345947265624,0.40499315166249866,0.05234744235277176,-0.1663817447464913
1725629746836298800,9.422298828125,0.602151800531894,0.5134720849514007,-0.26684951327629386
1725629746846252800,9.432252685546874,0.22985168881192802,0.7230266895353794,-0.131108990509063
1725629746856205800,9.442205810546875,0.3122644529521465,0.7403489957362412,-0.26958777913376686
1725629746866158800,9.452158935546874,0.08796689113602042,0.5700853680551051,-0.581735656501539
1725629746876112000,9.46211181640625,-0.030459581802040336,0.6597282295793294,-0.05579535431694239
1725629746886065700,9.472065673828125,-0.33122882727161046,-0.07109013674557209,-0.441211698850058
1725629746896018700,9.482018798828125,-0.6470680699706077,0.02619242587685585,-0.28521387587599456
1725629746905971700,9.4919716796875,-0.06534326365664601,-0.20407763447761534,0.4261414824249223
1725629746915924700,9.5019248046875,0.5151572615593671,-0.1109866783261299,0.5802635015897453
1725629746925878800,9.511878662109375,0.7395194130443036,0.18329028251469134,0.4558241250377148
1725629746935831800,9.521831787109376,0.29234920764863487,0.2857552162110805,0.4159185964331031
1725629746945784800,9.531784912109375,0.06095613461360335,0.14151976375579833,-0.007287124800868332
1725629746955737900,9.54173779296875,-0.23254136628732083,-0.12671791594326495,-0.024060747610405085
1725629746965692000,9.55169189453125,-0.38933059536740183,-0.2534913614660501,0.050541178382094945
1725629746975645000,9.56164501953125,-0.36024186352714893,-0.44793432163596153,0.24157442144006488
1725629746985598000,9.571597900390625,-0.4314829530507326,-0.4724941778749227,0.41248935263678427
1725629746995551000,9.581551025390626,-0.09256941649541259,-0.6074059216678143,0.23596944103986023
1725629747005504800,9.5915048828125,0.13055778636708854,-0.5946037232398986,0.4267216204004362
1725629747015457800,9.601457763671876,-0.18400237630680202,-0.3121042939543724,0.42624943631142376
1725629747025410800,9.611410888671875,-0.36808980054855345,-0.4709697447866201,0.13599184891348703
1725629747035364900,9.62136474609375,-0.5828787986546754,-0.6169546712577343,0.16853906891085207
1725629747045318000,9.63131787109375,-0.8157586031161248,-0.561834841582179,-0.08611198398433625
1725629747055271000,9.64127099609375,-0.7015677219212055,-0.7001730526924133,0.06159000293719582
1725629747065223700,9.6512236328125,-0.46063189064562315,-0.3474602694958448,0.11736710007824003
1725629747075178000,9.661177978515624,-0.2980674391649663,0.03013151889145374,0.1267442376946099
1725629747085130800,9.671130859375,-0.6024905309669674,0.4368699067860842,0.16298620229037478
1725629747095083800,9.681083740234374,-0.7383611829198896,0.3840776432752609,0.2796833489514887
1725629747105036800,9.691036865234375,-0.44867388795688745,0.21644436409771442,0.3031066023759544
1725629747114990600,9.700990478515624,-0.6689443862140179,0.2694353650510311,0.3798666379841044
1725629747124943600,9.710943603515625,-0.8960165273100137,0.41796471530795093,0.1978341369781643
1725629747134896600,9.720896728515624,-0.8356564588934182,0.23100421984791755,-0.24333744905721394
1725629747144849700,9.730849609375,-0.6236170517563819,0.03154255473315715,-0.26269211960220706
1725629747154803700,9.7408037109375,-0.4931866911612451,0.47586511561274525,-0.13792811420569195
1725629747164756700,9.7507568359375,-1.127920034085214,0.36950551256537434,-0.09588623115951195
1725629747174709800,9.760709716796875,-0.8247562946945428,0.18475450984835623,-0.0002444397477433085
1725629747184663800,9.770663818359376,-0.6070715751469135,0.16883447166085241,0.3246176655035466
1725629747194616800,9.780616943359375,-0.6893503376439213,0.4195820873767137,0.3621523367909714
1725629747204569900,9.79056982421875,-0.5906932717978954,0.5201280357092619,0.35481209356337784
1725629747214523000,9.80052294921875,-0.3869616742789745,0.09522621461451053,0.371361625293456
1725629747224477000,9.810476806640626,-0.3036414399050176,0.14255962819755078,0.25972232827749103
1725629747234430000,9.820429931640625,-0.5189847108930349,0.1452817466378212,0.10289046563208103
1725629747244383000,9.830383056640626,-0.25847441057562826,0.005493921241164207,0.18844185659158974
1725629747254336000,9.8403359375,-0.018233429696410893,0.06148176592290401,0.5044382991462946
1725629747264289800,9.850289794921874,-0.2432534605681896,0.18704525113403797,0.3614543080568313
1725629747274242800,9.860242919921875,-0.7427616098359227,0.2423088731944561,0.22715105155110357
1725629747284195800,9.87019580078125,0.03604863398075103,0.04496317732036113,0.4548736193798482
1725629747294148900,9.88014892578125,0.5383044745214283,0.3806874163150787,0.7311174223367124
1725629747304103000,9.89010302734375,0.07610372712388634,0.6274053381234407,0.41501309896074234
1725629747314056000,9.900055908203125,-0.14605448457598685,0.2703267609328031,0.033079993433505296
1725629747324008700,9.9100087890625,0.30914661319255826,0.049154783791303634,0.18209157424941658
1725629747333963000,9.919962890625,0.11919395017921924,0.26188217319250107,0.27310148634314535
1725629747343915800,9.929915771484374,0.13881898036450147,0.2425830139607191,0.2048792331840843
1725629747353868800,9.939868896484375,0.12330723071694373,0.2862128968507051,0.46976372999772426
1725629747363821800,9.94982177734375,0.23063363296985626,0.33102994369864464,0.3171010793283582
1725629747373775600,9.959775634765625,0.387270301836729,0.061197103762626645,0.577841242878884
1725629747383728600,9.969728759765625,0.8496540045857429,0.07946049020588397,0.8586752231702208
1725629747393681700,9.979681640625,0.5988714636869729,0.12105915952920913,0.7751797783598303
1725629747403634700,9.989634765625,0.12708528795093296,-0.35911797406375406,0.40588878532797096
1725629747413588700,9.999588623046876,0.47666532607972617,-0.7707189995586872,0.709796182692796
1725629747423541800,10.009541748046875,0.8567813722476363,-0.5239578231304883,0.6773958420865237
1725629747433494800,10.019494873046876,0.8269210715129971,-0.023251696249842642,0.5049390882752836
1725629747443448800,10.02944873046875,0.9789201437070966,0.04617313763201236,0.5462608403533696
1725629747453401900,10.03940185546875,0.9733940737619996,0.04965571905076503,0.5651594559602439
1725629747463355000,10.04935498046875,0.7025798215731978,-0.11251286498010157,0.1448052151672542
1725629747473308000,10.059307861328126,0.5612579184770584,-0.33817923093140123,0.13902721628770232
1725629747483261700,10.06926171875,0.6079422205016016,-0.3534925353974104,0.4947786365278065
1725629747493214700,10.079214599609376,0.508311048926413,-0.24044015671312807,0.42888972168713807
1725629747503167700,10.089167724609375,0.6651400254949927,-0.15308219125568867,0.37471637908145783
1725629747513120800,10.099120849609376,0.7728226938396692,0.12763327722251414,0.42503699178174137
1725629747523074800,10.10907470703125,0.7003185986429452,0.07141863804757595,0.2739211321629584
1725629747533027800,10.11902783203125,0.38295594576895237,0.002452069327235222,0.050122752040624614
1725629747542980900,10.12898095703125,0.2648015677705407,-0.3586334054172039,-0.13883373954221606
1725629747552933600,10.13893359375,0.5178706121712923,-0.5439519788891076,0.3727817577570677
1725629747562888000,10.148887939453125,0.5518555916205048,-0.40931671395003794,0.6792110748149455
1725629747572840700,10.1588408203125,0.42322365874946116,-0.3761106099188328,0.19417948692813514
1725629747582793700,10.168793701171875,0.2966360911875963,-0.5021370364665985,0.1728010372042656
1725629747592747800,10.178747802734375,0.5562324915304779,-0.3836421744674444,0.63611164553985
1725629747602700800,10.18870068359375,0.5314940638542175,-0.2665694542258978,0.5828258994236588
1725629747612653800,10.19865380859375,0.28518238475918767,-0.16338672764897347,0.2865036964908242
1725629747622606800,10.20860693359375,0.09322539618611335,-0.11474807668626308,0.40061405979543924
1725629747632560600,10.218560546875,-0.02601502348333597,-0.07462123348116874,0.7364471659921109
1725629747642513700,10.228513671875,0.2404436638444662,-0.08436755146980285,0.6122909172303974
1725629747652466700,10.238466796875,0.24917232922315596,-0.15194178904891012,0.41547962049394843
1725629747662419700,10.248419677734375,-0.25264058985561133,-0.03337853798866272,0.5191964539475739
1725629747672373800,10.258373779296875,-0.0699418434932828,-0.09763386027812958,0.3437311659701168
1725629747682326800,10.268326904296876,0.04306172761321068,-0.2039531313151121,0.2556014854878187
1725629747692279800,10.27827978515625,0.19243425069600342,-0.03778992469012737,0.457732077550888
1725629747702233900,10.28823388671875,0.40814065590798854,0.1909907738894224,0.4112092496983707
1725629747712187000,10.298186767578125,0.4895195469558239,0.09791735339462757,0.22666809033975005
1725629747722140200,10.30814013671875,0.1277976740039885,0.05829670614600181,-0.138512106372416
1725629747732093200,10.31809326171875,0.12592194325998424,-0.06428513290584087,-0.28232451111003753
1725629747742047000,10.328046875,0.2152770738840103,-0.061549570462107656,-0.37366643163710833
1725629747752000000,10.338,0.21594225979447362,-0.00011164368093013762,-0.45261765714660285
1725629747761953000,10.347953125,0.007740823385119438,0.22873393682837484,-0.6440017412025482
1725629747771906000,10.357906005859375,-0.13006371923983095,0.28502631741464135,-0.6151533209241926
1725629747781860000,10.367860107421874,0.07618599857985973,0.3185264359563589,-0.6249320798777044
1725629747791813000,10.377813232421875,0.12900018166154623,0.26241467263400553,-0.586590074262768
1725629747801766100,10.38776611328125,0.03644099429920315,0.414943321660161,-0.6520158285710961
1725629747811719000,10.397718994140625,-0.2141886941254139,0.10835925243198871,-0.6120317548375577
1725629747821673200,10.407673095703124,-0.20569792915582655,-0.260030407845974,-0.4861177026230842
1725629747831626000,10.4176259765625,-0.09833850141614675,-0.37533962554633615,-0.6767439540490507
1725629747841579000,10.4275791015625,-0.17282967877686023,-0.4706336447000503,-0.7419784235689788
1725629747851533000,10.437532958984375,-0.13271744861900805,-0.11819850940108298,-0.5874189263023436
1725629747861486000,10.447486083984375,-0.17398294046521187,0.24200199920237062,-0.7895342477310449
1725629747871439000,10.457439208984376,-0.6097067459560931,0.25616028841435906,-0.7310901690036058
1725629747881392000,10.46739208984375,-0.5515175918377936,0.172734986230731,-0.39862405502200127
1725629747891346000,10.477345947265626,-0.14343641103208063,0.2777630484133959,-0.29884105388596655
1725629747901299000,10.487298828125,-0.07504048180654645,0.19443653042912482,-0.41608131271414456
1725629747911252000,10.497251953125,-0.1198329787351191,0.16569266650378703,-0.5882284160543233
1725629747921205000,10.507205078125,-0.47140404455065726,0.17461890028119087,-0.390434136162512
1725629747931159000,10.517158935546876,-0.2240828961521387,0.2867383820295334,-0.3747917093399912
1725629747941112000,10.527112060546875,-0.004864975687861442,0.6084411099344491,-0.47750627041589466
1725629747951065000,10.537065185546876,-0.6108972709149122,0.6652373483896256,-0.33532917526252565
1725629747961019100,10.54701904296875,-0.2279949550293386,0.28411154065728184,-0.35299682430233803
1725629747970972200,10.55697216796875,0.31569968809783455,0.12368541637957095,-0.52016760053467
1725629747980925200,10.56692529296875,-0.04684124615192413,0.3770020058006048,-0.45850222167316823
1725629747990878200,10.576878173828124,-0.11571736010983585,0.19430793561339377,-0.395305906917341
1725629748000832000,10.58683203125,0.07053147994950414,0.17982523675262926,-0.16152769231144337
1725629748010785000,10.596784912109374,-0.0984995371967554,0.1929915923178196,-0.3011695516324602
1725629748020738000,10.606738037109375,-0.27577859659790993,0.17329788081049918,-0.45150122033730145
1725629748030691000,10.616691162109374,-0.2395937690168619,0.08145254080593585,-0.5169490403469652
1725629748040645000,10.62664501953125,0.24498525279685854,0.22474165232181548,-0.3157941249156371
1725629748050598100,10.63659814453125,0.2609650583475828,0.33448972876369953,-0.1961700396908447
1725629748060551200,10.64655126953125,0.25922785929143427,0.14416472530663013,-0.2567713695174083
1725629748070504000,10.65650390625,0.2606752816207707,-0.19556933385133743,-0.19943260341705754
1725629748080458200,10.666458251953125,0.346467751327157,-0.30705987004637714,-0.2697927819202654
1725629748090411000,10.676410888671874,0.5455629212170839,0.0670721332758665,0.007136610414274037
1725629748100364000,10.686364013671875,0.15336714567691087,-0.13875146808624267,-0.15712193163316696
1725629748110317800,10.69631787109375,0.3258458190590143,-0.11285831741690636,0.2519244044102728
1725629748120270800,10.706270751953125,0.5150403571814298,0.17255904514193535,0.3085126992031932
1725629748130223900,10.716223876953125,0.43245223647430536,0.25683833380639554,0.2799777653208002
1725629748140177000,10.726177001953126,0.5450485419541597,-0.084792498883605,0.24260745428223163
1725629748150131000,10.736130859375,0.8609053203098476,-0.29775252799689766,0.03261449481360614
1725629748160084000,10.746083984375,0.25580080745220185,-0.3302642200231552,-0.04952632051743567
1725629748170037000,10.756037109375,0.414032198164612,-0.5150093775212764,-0.01646901383977383
1725629748179990000,10.765989990234376,0.6605896687142551,-0.3770540282487869,-0.06243800720181316
1725629748189944000,10.775944091796875,0.4294739513158798,0.1539297479957342,-0.09317483504265546
1725629748199897000,10.78589697265625,0.24340119847580788,0.259483879879117,-0.22460114787258206
1725629748209850000,10.79585009765625,0.32131913541480894,0.20906126810908315,-0.018488610033877192
1725629748219804200,10.80580419921875,0.19974851923212408,0.31669805148541924,0.2142098465112969
1725629748229757200,10.815757080078125,0.4079452794663608,0.0972363853931427,0.16826485507935285
1725629748239710200,10.825710205078124,0.4932277538239956,-0.10186579875946045,0.22952114168331025
1725629748249663200,10.835663330078125,0.2903874060563743,0.09112813164591789,0.3910950842892751
1725629748259617000,10.845616943359374,0.028434505715221166,0.04517769685387611,0.590676138000004
1725629748269570000,10.855570068359375,0.47851548399105664,-0.1419265909910202,0.8045658857114613
1725629748279523000,10.865523193359374,0.640263212261349,-0.0705149672061205,0.9781332311131059
1725629748289476000,10.87547607421875,0.8583980136640369,0.07838087827563285,0.7652947094876319
1725629748299430100,10.88543017578125,0.5031833306491375,0.20797639548182487,0.32144188501164317
1725629748309383200,10.895383056640625,0.2501034725934267,0.16264496937096118,0.1041175962742418
1725629748319336000,10.9053359375,0.22562311133146284,-0.0789320824176073,0.04247925155013799
1725629748329289000,10.9152890625,-0.12183467394635081,0.0946171428054571,-0.013342333186604083
1725629748339243300,10.9252431640625,-0.31017537171840665,0.28570553185045716,-0.46025326659157867
1725629748349196000,10.935196044921875,0.027052988228946924,0.0086748893648386,-0.22007859241422265
1725629748359149000,10.945149169921875,-0.18301599561795592,-0.08437865738570689,-0.39260983623377976
1725629748369102800,10.955102783203126,-0.3200144825570285,0.1985065563470125,-0.6311827377703041
1725629748379055900,10.965055908203125,0.19014029453992842,-0.11380699644386767,-0.15061362745137885
1725629748389009000,10.9750087890625,0.30091800629049537,0.06160743812918663,-0.19126690568337215
1725629748398962000,10.9849619140625,0.02836933152452111,-0.08722937064170837,-0.03409877855461091
1725629748408916000,10.994916015625,0.11385843437016009,-0.49500703845620153,0.11389063787302002
1725629748418869000,11.004868896484375,-0.0986088427901268,-0.3789315125584602,0.1036376307375729
1725629748428822000,11.014822021484376,-0.38792131309136746,-0.4288847532510757,0.19738420125357806
1725629748438775000,11.024775146484375,-0.3510018876254558,-0.21388941891789434,0.2168078088489361
1725629748448729000,11.03472900390625,-0.3543586507074535,0.13720014699101446,0.476302045725286
1725629748458682000,11.04468212890625,-0.40251799372062086,0.44079906292855736,0.4134689747912809
1725629748468635100,11.05463525390625,-0.26765155037418004,0.2565250300735235,0.4184889583777636
1725629748478588200,11.064588134765625,-0.5170025971651077,0.28377310248315335,0.22836415366791188
1725629748488542000,11.0745419921875,-0.3247083394616842,0.009535890108346939,0.06038454983730335
1725629748498495000,11.084494873046875,0.06390270945951342,-0.11418752019405365,0.05577744420091621
1725629748508448000,11.094447998046874,-0.3718044371575117,0.2138344738602638,0.41201778960227964
1725629748518401000,11.104401123046875,-0.529088025625795,0.3199251968383789,0.5015659220477566
1725629748528355000,11.11435498046875,-0.406491135135293,0.23954817630946634,0.33182189779393373
1725629748538308000,11.12430810546875,-0.4877816172473132,0.2778384517371654,0.20393356809811666
1725629748548261000,11.13426123046875,-0.36345512648522854,0.15655775841176509,0.11117615474993363
1725629748558215200,11.144215087890625,-0.37427111953198905,0.2577192082941532,-0.10131669524302706
1725629748568168200,11.154168212890625,-0.3419698553860187,0.04379647162854671,-0.5028005053440109
1725629748578121000,11.164120849609375,-0.06263283565416931,0.16688684472441673,-0.6515807250894605
1725629748588074000,11.174073974609374,-0.39179552417621016,-0.0034568624556064603,-0.3930864773022011
1725629748598028000,11.184028076171876,-0.3180973968893289,0.2609375858187675,-0.3807083860378712
1725629748607981000,11.19398095703125,-0.4868137951284647,0.23756956971287727,-0.4764587706569582
1725629748617934000,11.20393408203125,-0.6866553994715213,0.1806909136712551,-0.5194657358756288
1725629748627887000,11.21388720703125,-0.3156399207346141,0.17317337764799595,-0.5003247994128615
1725629748637841000,11.2238408203125,0.08191036757603287,0.48139060103595255,-0.4599264457900077
1725629748647794000,11.2337939453125,0.12043810502141714,0.6301081673413514,-0.2099956994149834
1725629748657747000,11.243746826171876,-0.11219605411589145,0.6708318073958158,-0.1261816171094775
1725629748667700000,11.253699951171875,-0.3807061210155487,0.4974912564873695,-0.471437581494078
1725629748677654000,11.263654052734376,-0.3357441127389669,0.014352350479364393,-0.4941359547100961
1725629748687607000,11.27360693359375,0.04331541011333465,-0.09236965613961219,-0.039344679851457474
1725629748697560000,11.28356005859375,0.24945114616453645,0.16715864740312097,0.17997984279245138
1725629748707514000,11.29351416015625,0.2280611521333456,0.40677813538312907,0.3254498785439878
1725629748717467100,11.303467041015624,0.48513913991451263,0.5680407104849815,0.24048881816044448
1725629748727421000,11.3134208984375,0.5365859801657498,0.5367454085111618,0.3853407950788736
1725629748737374000,11.3233740234375,0.714299923852831,0.5013081844270229,0.30381679647192356
1725629748747328000,11.333327880859375,0.7387526664555072,0.26488018596470353,-0.05611380914896726
1725629748757281000,11.343281005859374,0.5417094606593251,-0.18061492582559585,-0.07979271783493459
1725629748767234000,11.353234130859375,0.6274076762109995,-0.40754444358050823,-0.024291560691595077
1725629748777187000,11.36318701171875,0.5360324379362166,-0.3508545881092548,0.1506372823216021
1725629748787141000,11.37314111328125,0.3908938991613686,-0.359360550647974,0.20909020194262265
1725629748797094100,11.38309423828125,0.6115872990056872,-0.47711657697856424,0.466833375634253
1725629748807047200,11.393047119140626,0.49027211888879535,-0.3961252239435911,0.6314087285459041
1725629748817000000,11.403,0.543492544683814,-0.4171358632683754,0.3527848255194723
1725629748826954200,11.412954345703126,0.9526827096447348,-0.46922027077078815,0.16628566396087407
1725629748836907000,11.422906982421875,1.2987889341831207,-0.3980331033915281,0.0750448657207191
1725629748846860000,11.432860107421876,0.8125807037323712,-0.07179331657886505,0.15687486153692007
1725629748856813000,11.44281298828125,0.4709183068603277,-0.23491993198692798,-0.0980444869056344
1725629748866766800,11.452766845703126,0.4370347419589758,-0.1025298156261444,0.07967135647758841
1725629748876719900,11.462719970703125,0.3932560982480645,0.26995266692340375,0.4464057968944311
1725629748886673000,11.4726728515625,0.8368231645852326,0.6258668765097856,0.3271462341330945
1725629748896627000,11.482626953125,0.9996811921849846,0.7576742245465516,0.2694390183128416
1725629748906580000,11.492580078125,0.9636638301253319,0.818704155048728,0.255484434979409
1725629748916533000,11.502532958984375,0.615619915522635,0.6672428429931402,0.25412396028116346
1725629748926486000,11.512486083984374,0.16128858632594345,0.04510989231467247,0.40535730879977344
1725629748936440000,11.522440185546875,0.1250344929009676,-0.37083471534252166,0.4874579382508993
1725629748946393000,11.53239306640625,0.13046031734198332,-0.5481745650202036,0.4253052873291075
1725629748956346000,11.54234619140625,0.30375790589153767,-0.7205845570802688,0.34924013864994047
1725629748966299100,11.552299072265624,0.6906123204037546,-0.6737298669248819,0.46389629926905035
1725629748976253000,11.5622529296875,0.5546791246086359,-0.37502456824779506,0.4841223640874028
1725629748986206000,11.5722060546875,0.27521102584302426,-0.28826807581484315,0.058780251879245037
1725629748996159000,11.582158935546875,0.7095438153669238,-0.9194295516014098,0.3266889918848872
1725629749006112000,11.592112060546874,0.4837532385140657,-1.2699527157992123,0.605231792499125
1725629749016066000,11.602066162109375,0.3062076371312141,-1.4153279859393835,0.3737465111359954
1725629749026019000,11.61201904296875,0.4523082989364862,-1.2892027751922606,0.23605068958252667
1725629749035972000,11.62197216796875,-0.053471477946639055,-0.7468108852267265,-0.029456396108865735
1725629749045924900,11.6319248046875,0.03038870852291584,-0.4180997398644685,-0.025936551419645546
1725629749055879200,11.641879150390626,0.041161739210784434,-0.096443189188838,-0.14164485144019126
1725629749065832000,11.65183203125,-0.061359308587014674,-0.2115431480526924,-0.3314044760994613
1725629749075785000,11.661784912109376,0.12941548446416853,-0.20912673456072806,-0.42214828460291026
1725629749085738000,11.671738037109375,0.26014438961446285,-0.10830430737435817,-0.5204558063589036
1725629749095692000,11.681692138671876,0.44486821206361055,0.0017301847934722899,-0.4605692006729543
1725629749105645000,11.69164501953125,0.24685499219149348,0.35132337466478347,-0.628993776358664
1725629749115598000,11.70159814453125,0.2502614396341145,0.5017138426184654,-0.6425726582475006
1725629749125551900,11.7115517578125,0.11007131704688071,0.5599006586492061,-0.614825258013606
1725629749135505000,11.7215048828125,0.33256782079041003,0.372029478085041,-0.6188043907776475
1725629749145458000,11.7314580078125,0.2380762040607631,0.42351241256296634,-0.690542104711756
1725629749155411000,11.741410888671876,0.02773001070767641,0.4274544281870126,-0.7743049682866782
1725629749165365000,11.751364990234375,0.3045272828288376,0.448809935426712,-0.7292831926468759
1725629749175318000,11.761318115234374,0.3873968508258462,0.7982166628152132,-0.5879928537327795
1725629749185271000,11.77127099609375,-0.18717881438583134,0.8570002756953239,-0.423461705289036
1725629749195224000,11.78122412109375,-0.500871546575427,0.48790334393084045,-0.4843284080535173
1725629749205178000,11.79117822265625,-0.4065194844469428,-0.22988836756050585,-0.5472503628473728
1725629749215131100,11.801131103515624,-0.0058592474222183225,-0.4760281972199678,-0.481967451075837
1725629749225084200,11.811084228515625,0.3116549427516758,-0.18207506150603292,-0.6142451200380921
1725629749235037200,11.821037109375,0.18157777950838208,0.13469020999670028,-0.7965396695137024
1725629749244991000,11.830990966796875,0.006225742647051811,0.07565759079158306,-0.8617574070945382
1725629749254944000,11.840944091796874,-0.2456365563124418,-0.11274024399518966,-0.7108382390916347
1725629749264897000,11.85089697265625,-0.4267372198283672,0.016933014622330666,-0.651942690269649
1725629749274850000,11.86085009765625,-0.41004342078939077,0.044158290678262706,-0.68439183845371
1725629749284804000,11.87080419921875,-0.2883263818733394,0.04088146096467971,-0.5551319098774343
1725629749294757000,11.880757080078125,-0.19530629900097846,0.32203590538203714,-0.40092118951585143
1725629749304710000,11.8907099609375,-0.6310463249742985,0.5928291147828102,-0.21824810731774194
1725629749314664200,11.900664306640625,-0.22295652247071265,0.5994663608402013,-0.07101417629937641
1725629749324617000,11.910616943359376,0.17837036176919935,0.6146288586586713,0.03960354085019789
1725629749334570000,11.920570068359375,-0.14090075507462024,0.5004729026466608,0.027840583526238333
1725629749344523000,11.93052294921875,-0.24705577546060084,0.30829438027739525,0.1965694325382821
1725629749354477000,11.94047705078125,-0.251049375141412,-0.14292320081293583,0.08983681319374591
1725629749364429800,11.950429931640626,0.14735738386809824,-0.2600935362100601,0.013746320010768249
1725629749374382800,11.9603828125,0.031100071662664413,-0.031218145084381102,0.07594727618684992
1725629749384336000,11.9703359375,-0.035927053427696226,0.1121896243751049,0.13804660775251687
1725629749394290000,11.9802900390625,-0.08909808712303638,0.0493786556750536,0.025075349746737627
1725629749404243000,11.990242919921876,-0.03291618117392063,0.1091179618448019,0.31589418775662775
1725629749414196000,12.000196044921875,0.31937523480542,0.14296177925765513,0.3492201187752187
1725629749424149000,12.01014892578125,0.18770817202217877,0.05025134685635566,-0.16878073217961936
1725629749434103000,12.02010302734375,-0.16518120985031126,0.08097966259717941,-0.09843304783180355
1725629749444056000,12.03005615234375,0.07464110722541809,-0.20296996549665927,-0.025936661017499862
1725629749454009000,12.040009033203125,0.558927429702878,0.05896423014402389,0.24558610476683823
1725629749463962000,12.049962158203124,0.3521452124416828,0.4909615624576807,0.4876670509569347
1725629749473916200,12.059916259765625,0.34336686270236966,0.4528115722835064,0.38404615215845406
1725629749483869200,12.069869140625,0.4036139722637832,0.3092921591430902,0.142836618508026
1725629749493822200,12.079822265625,0.18230602071769533,0.030342531293630598,0.01111581624355167
1725629749503775200,12.089775146484374,0.13256547292768955,0.10244973612725734,-0.036835619639977814
1725629749513729000,12.09972900390625,0.19400471488311885,-0.052746086281538006,-0.11966609773561358
1725629749523682000,12.10968212890625,0.17479959061034023,-0.17153554731309412,0.0736670014962554
1725629749533634800,12.119634765625,0.7135843229293822,0.1258405485868454,-0.06198281078021973
1725629749543587800,12.129587890625,0.2148937005896121,0.07194470774829387,0.029913711422309277
1725629749553542000,12.1395419921875,0.197660753172636,-0.024334815311431883,0.09178144445549696
1725629749563495000,12.149494873046875,0.17758228013142943,-0.2888549357920885,0.04887951051387936
1725629749573448000,12.159447998046875,0.36700887344405053,-0.12759060712456702,-0.21765180365871636
1725629749583402000,12.169402099609375,0.2461866644758731,-0.10786533143520355,-0.20458817781563848
1725629749593355000,12.17935498046875,0.8394366350192576,-0.14293430672883986,-0.0844057645883411
1725629749603308000,12.18930810546875,0.6854718887753785,0.3685200086593628,0.3098690822482109
1725629749613261000,12.199260986328126,0.3853455443192273,-0.3383259459257126,0.03932623087931424
1725629749623214800,12.20921484375,-0.256204273686558,-0.41020401817858215,-0.35234537465628235
1725629749633168000,12.21916796875,-0.3991442795038223,-0.1502227101713419,0.21551438977122306
1725629749643121000,12.229120849609375,0.27140637286305425,-0.16247311993539332,0.6883283011198044
1725629749653074000,12.239073974609376,0.5765655238546431,-0.043807577544450756,0.4384903841273859
1725629749663028000,12.249028076171875,0.32969621087685225,-0.291343829998374,0.01828052024114877
1725629749672981000,12.25898095703125,0.41062253585159775,-0.39247254665493964,-0.2484002488721162
1725629749682934000,12.26893408203125,0.32555633459314703,-0.07510404856204986,-0.07437010826431215
1725629749692887000,12.278886962890626,-0.03417524132430553,-0.05450783525705337,0.023622611921466887
1725629749702841000,12.288841064453125,-0.10776654723584651,-0.18987433708012103,0.2665978035375476
1725629749712794000,12.298794189453124,-0.3156803988754749,-0.25980419787466524,0.43115887219551946
1725629749722747100,12.3087470703125,-0.1361107443191111,-0.15077216074764727,0.18294998117703942
1725629749732699100,12.31869921875,0.06678403704948722,-0.07038812595605849,0.24979919241722673
1725629749742653400,12.3286533203125,-0.17870646185576913,0.14020283593833446,0.21447744793891904
1725629749752606200,12.338606201171874,-0.2997792115189135,-0.1150911910355091,0.01770304914675653
1725629749762559200,12.348559326171875,-0.5009808521687984,-0.21279110228717327,0.10459127820059656
1725629749772512300,12.35851220703125,-0.3837513339303434,-0.15895020650625227,0.43803010967187583
