time,seconds_elapsed,z,y,x
1725892240351492400,0.059492431640625,0,0,0
1725892240370340600,0.078340576171875,-0.1427755355834961,-0.557511568069458,-0.2239246815443039
1725892240389188900,0.09718896484375,4.498335838317871,0.629248857498169,-0.43887174129486084
1725892240408037000,0.116037109375,-2.671143054962158,-0.33829808235168457,-2.7999629974365234
1725892240426885400,0.134885498046875,-3.9122581481933594,-0.42395949363708496,-2.741790533065796
1725892240445733600,0.153733642578125,-2.1816368103027344,1.0603535175323486,-1.3046560287475586
1725892240464581600,0.17258154296875,-0.3381004333496094,1.4486792087554932,-0.6608937382698059
1725892240483430000,0.191429931640625,-0.08159828186035156,0.7092940807342529,-0.3110467791557312
1725892240502278100,0.210278076171875,0.5585031509399414,0.5785236358642578,-0.16940581798553467
1725892240521126400,0.22912646484375,0.9258670806884766,1.1617796421051025,-1.012420415878296
1725892240539974700,0.247974609375,0.40435028076171875,2.024195671081543,-1.2964080572128296
1725892240558823000,0.266822998046875,-0.035678863525390625,2.0755221843719482,-1.2679182291030884
1725892240577671200,0.285671142578125,0.8063011169433594,-0.2833230495452881,1.6945258378982544
1725892240596519400,0.30451953125,1.479985237121582,-0.022423744201660156,2.2339797019958496
1725892240615367700,0.32336767578125,2.2863616943359375,1.5764589309692383,1.8000911474227905
1725892240634215700,0.342215576171875,1.7067031860351562,1.7643756866455078,1.8979392051696777
1725892240653064200,0.361064208984375,0.7005290985107422,1.200627326965332,2.205493688583374
1725892240671912400,0.379912353515625,0.09767723083496094,0.579524040222168,0.9318828582763672
1725892240690760700,0.3987607421875,0.02810382843017578,5.504698753356934,-2.17836332321167
1725892240709608700,0.417608642578125,1.1683168411254883,7.136608123779297,-2.5513339042663574
1725892240728457000,0.43645703125,1.7163782119750977,2.620217800140381,0.10389852523803711
1725892240747305200,0.45530517578125,1.1135177612304688,2.202052116394043,-3.035930871963501
1725892240766153500,0.474153564453125,-0.1851806640625,1.9842491149902344,-1.9149107933044434
1725892240785001700,0.493001708984375,0.2777070999145508,1.6453781127929688,-0.7143114805221558
1725892240803850000,0.51185009765625,-0.12879180908203125,0.3946056365966797,-2.052079439163208
1725892240822698200,0.5306982421875,-0.8143472671508789,-2.0554494857788086,-3.659343719482422
1725892240841546500,0.54954638671875,0.8194737434387207,-0.7188940048217773,-5.478787899017334
1725892240860394800,0.568394775390625,-0.5989726781845093,-4.973631858825684,-8.410202980041504
1725892240879242800,0.58724267578125,-0.6439247131347656,-5.662909030914307,-8.759607315063477
1725892240898091000,0.606091064453125,0.5005121231079102,-5.634665489196777,-7.814659118652344
1725892240916939500,0.624939453125,2.8638668060302734,-6.076854705810547,-6.913265228271484
1725892240935787800,0.643787841796875,3.272355556488037,-5.976110458374023,-6.139427185058594
1725892240954635800,0.6626357421875,2.9899749755859375,-5.34901762008667,-3.7296102046966553
1725892240973484000,0.681484130859375,3.9662132263183594,-3.3161439895629883,-1.209446907043457
1725892240992332300,0.700332275390625,5.056455612182617,-2.6940016746520996,0.059741973876953125
1725892241011180500,0.7191806640625,5.136455059051514,-2.5402445793151855,0.7477569580078125
1725892241030028800,0.73802880859375,4.305424690246582,-1.2904977798461914,2.090390205383301
1725892241048877000,0.756876953125,3.805070400238037,-0.5563158988952637,4.501193046569824
1725892241067725300,0.775725341796875,3.4537692070007324,0.8669652938842773,5.338251113891602
1725892241086573600,0.794573486328125,4.731960296630859,1.953127384185791,7.095955848693848
1725892241105421800,0.813421875,3.1711301803588867,1.297187328338623,8.98736572265625
1725892241124270000,0.83227001953125,0.948297381401062,-1.8200702667236328,5.53147029876709
1725892241143118300,0.851118408203125,-0.332172155380249,-2.716048240661621,2.3414087295532227
1725892241161966600,0.869966552734375,0.425811767578125,-2.114625930786133,0.15253925323486328
1725892241180814800,0.88881494140625,0.6741607189178467,-1.5588750839233398,-1.6522846221923828
1725892241199663000,0.9076630859375,0.8512557744979858,-1.6836638450622559,-2.977879524230957
1725892241218511400,0.926511474609375,8.327713966369629,-1.6713097095489502,-1.8101463317871094
1725892241237359600,0.945359619140625,-0.20908379554748535,-0.7438313961029053,-1.2407279014587402
1725892241256208000,0.964207763671875,-1.2215685844421387,0.01892709732055664,0.6193475723266602
1725892241275056000,0.98305615234375,-1.2027943134307861,-0.35584115982055664,4.887119293212891
1725892241293904400,1.001904296875,0.1326766014099121,-2.7954487800598145,2.48055362701416
1725892241312752600,1.020752685546875,-0.45955395698547363,-4.522152900695801,-0.2796773910522461
1725892241331601000,1.039600830078125,1.0712720155715942,-0.5937929153442383,-0.22295570373535156
1725892241350449200,1.05844921875,-1.5720112323760986,-1.8952436447143555,-2.234370708465576
1725892241369297200,1.077297119140625,-0.8392431735992432,-2.7348971366882324,-3.7975893020629883
1725892241388145700,1.096145751953125,1.7399966716766357,-0.25548791885375977,0.4361581802368164
1725892241406994000,1.114993896484375,1.2949360609054565,0.6702389717102051,3.7645211219787598
1725892241425842000,1.133842041015625,-3.020087242126465,4.000401496887207,3.317078113555908
1725892241444690200,1.152690185546875,0.8675730228424072,1.8040966987609863,-1.2668428421020508
1725892241463538700,1.17153857421875,1.874898910522461,-2.2519145011901855,-3.3397774696350098
1725892241482387000,1.190386962890625,6.574518203735352,-0.9264512062072754,-5.384828567504883
1725892241501235000,1.20923486328125,-5.992032527923584,-3.716249704360962,5.255032062530518
1725892241520083500,1.22808349609375,-1.3255527019500732,4.2495574951171875,-0.2524275779724121
1725892241538931700,1.246931640625,2.630214214324951,0.4296274185180664,-4.098390579223633
1725892241557780000,1.265780029296875,-2.08317232131958,-4.2753214836120605,-1.0067987442016602
1725892241576675000,1.284675048828125,-2.55325984954834,-0.21379947662353516,1.9874053001403809
1725892241595476500,1.3034765625,-2.0486114025115967,2.6264352798461914,-0.21855735778808594
1725892241614324700,1.32232470703125,-1.4745190143585205,0.2749752998352051,-0.16397333145141602
1725892241633173000,1.341173095703125,-0.637035608291626,-5.122954845428467,-2.1121158599853516
1725892241652021200,1.360021240234375,0.30630016326904297,-0.8545780181884766,-1.9820594787597656
1725892241670869500,1.378869384765625,-0.23482370376586914,0.5781078338623047,3.135458469390869
1725892241689717800,1.3977177734375,2.6277382373809814,0.2756061553955078,2.844222068786621
1725892241708566000,1.41656591796875,0.4099762439727783,-3.134157180786133,-0.6446952819824219
1725892241727414300,1.435414306640625,3.3646302223205566,0.004720211029052734,-3.1210556030273438
1725892241746262500,1.454262451171875,3.5412850379943848,4.296295642852783,3.0244827270507812
1725892241765110800,1.47311083984375,4.680908679962158,3.015073776245117,1.0061860084533691
1725892241783959000,1.491958984375,-0.03914284706115723,4.845439434051514,4.122524261474609
1725892241802807300,1.510807373046875,0.42602598667144775,-1.5615830421447754,-1.4725580215454102
1725892241821655600,1.529655517578125,0.8489178419113159,2.8032150268554688,-0.7234096527099609
1725892241840503800,1.54850390625,1.035174012184143,-0.4045524597167969,-0.9534916877746582
1725892241859352000,1.56735205078125,1.3559978008270264,1.5246953964233398,0.9382748603820801
1725892241878200300,1.586200439453125,-2.382608652114868,4.157477378845215,2.5675220489501953
1725892241897048600,1.605048583984375,-2.018301010131836,-2.5513715744018555,-1.2238411903381348
1725892241915896800,1.623896728515625,-1.319875717163086,2.5846195220947266,-1.6008214950561523
1725892241934745000,1.6427451171875,-1.415427327156067,0.7548494338989258,-1.4397506713867188
1725892241953593300,1.66159326171875,-1.9470285177230835,0.4958767890930176,-2.3461661338806152
1725892241972441600,1.680441650390625,-3.220472812652588,-0.7297248840332031,1.7593464851379395
1725892241991290000,1.6992900390625,-3.2282915115356445,-4.90858793258667,-2.1080222129821777
1725892242010138400,1.718138427734375,-2.51694393157959,0.4855618476867676,-4.509808540344238
1725892242028986600,1.736986572265625,-3.632624626159668,2.5801010131835938,-4.811869144439697
1725892242047835000,1.7558349609375,-2.1131420135498047,3.5604419708251953,-0.9492292404174805
1725892242066683100,1.77468310546875,-2.0471246242523193,-1.463606357574463,6.57302713394165
1725892242085531400,1.793531494140625,-3.5222039222717285,-6.707329273223877,0.011243820190429688
1725892242104379600,1.812379638671875,-0.6059578657150269,2.2547788619995117,-3.137721061706543
1725892242123228000,1.831227783203125,1.0338046550750732,-2.536947727203369,1.1131267547607422
1725892242142076200,1.850076171875,2.224658966064453,-12.08157730102539,0.8718867301940918
1725892242160924400,1.86892431640625,1.9578802585601807,-3.1770424842834473,-7.224803447723389
1725892242179772700,1.887772705078125,-0.7686201333999634,11.082637786865234,-2.802607536315918
1725892242198621200,1.90662109375,0.10262763500213623,-5.176778793334961,4.609715461730957
1725892242217469200,1.92546923828125,2.104257822036743,-0.9938421249389648,0.3848533630371094
1725892242236317700,1.944317626953125,1.4522655010223389,5.727626800537109,10.912851333618164
1725892242255166000,1.963166015625,3.5469305515289307,-4.038116931915283,6.028125762939453
1725892242274014200,1.98201416015625,5.532197952270508,1.5356273651123047,1.1062946319580078
1725892242292862500,2.000862548828125,4.946016311645508,0.5051560401916504,-0.04209089279174805
1725892242311710700,2.019710693359375,-2.5347161293029785,-4.203464984893799,0.30001068115234375
1725892242330559000,2.03855908203125,0.725104570388794,-2.765469551086426,0.12812566757202148
1725892242349407200,2.0574072265625,1.9299898147583008,8.119485855102539,-2.3458938598632812
1725892242368255500,2.07625537109375,4.886650562286377,-2.924264430999756,1.743640422821045
1725892242387103700,2.095103759765625,4.913125038146973,-4.156571388244629,-2.1051621437072754
1725892242405952300,2.1139521484375,3.3702685832977295,-1.2868471145629883,1.5170931816101074
1725892242424800500,2.132800537109375,-5.864173889160156,4.674016952514648,0.6579909324645996
1725892242443648800,2.151648681640625,-3.8083038330078125,2.3999786376953125,2.9540205001831055
1725892242462497000,2.1704970703125,-4.515103340148926,1.1430926322937012,2.842876434326172
1725892242481345300,2.18934521484375,-2.423213005065918,4.581343650817871,-7.069920063018799
1725892242500193500,2.208193603515625,-2.1172866821289062,-0.9588198661804199,-5.621313095092773
1725892242519041800,2.227041748046875,-1.9095040559768677,3.029257297515869,-1.3177976608276367
1725892242537890000,2.24589013671875,-7.888062000274658,3.9137444496154785,4.082205772399902
1725892242556738600,2.264738525390625,-6.291042327880859,-2.528233528137207,-2.3378796577453613
1725892242575586800,2.2835869140625,-10.920844078063965,11.0521240234375,-3.2680506706237793
1725892242594435000,2.30243505859375,0.4088459610939026,-2.0182695388793945,2.534564971923828
1725892242613283300,2.321283447265625,-0.6128780841827393,-1.713853359222412,0.34001874923706055
1725892242632131600,2.340131591796875,2.393918752670288,4.23958158493042,-0.06770896911621094
1725892242650979800,2.358979736328125,-0.15504783391952515,-0.07739543914794922,-0.20901155471801758
1725892242669828400,2.377828369140625,0.5843300819396973,-5.3235321044921875,-2.886414051055908
1725892242688676600,2.396676513671875,4.254068374633789,-5.918334007263184,3.8355298042297363
1725892242707524900,2.41552490234375,-2.603854179382324,4.337541580200195,0.1822509765625
1725892242726373000,2.434373046875,-0.3875313401222229,5.73479700088501,-3.6288254261016846
1725892242745221400,2.453221435546875,-2.684135913848877,-3.3383965492248535,-5.369528293609619
1725892242764069600,2.472069580078125,7.936045169830322,-9.11631965637207,-0.02195262908935547
1725892242782918100,2.490918212890625,-1.7520380020141602,3.2292957305908203,4.136868953704834
1725892242801766100,2.50976611328125,-4.444282531738281,10.342994689941406,-0.7233777046203613
1725892242820614700,2.52861474609375,-0.6672942638397217,-6.5446062088012695,-1.9542498588562012
1725892242839463000,2.547462890625,6.447276592254639,-6.744035720825195,-0.5535478591918945
1725892242858311200,2.566311279296875,-0.8089528679847717,8.10305404663086,5.937347888946533
1725892242877159400,2.585159423828125,-3.993824005126953,0.43967103958129883,-7.832551002502441
1725892242896008000,2.604008056640625,3.1688551902770996,-4.719347953796387,2.3775644302368164
1725892242914856200,2.622856201171875,-0.20581424236297607,2.8112168312072754,4.459737300872803
1725892242933704400,2.641704345703125,-3.9462571144104004,4.24616813659668,-0.6285586357116699
1725892242952552700,2.660552734375,-2.756743907928467,2.3957948684692383,-6.199995994567871
1725892242971407600,2.67940771484375,1.1908904314041138,1.5946240425109863,9.266549110412598
1725892242990249200,2.698249267578125,-3.559255599975586,-5.610428810119629,-1.5820374488830566
1725892243009097700,2.71709765625,-4.529805660247803,-0.994140625,-4.031304836273193
1725892243027946000,2.735946044921875,1.6433727741241455,-5.0205841064453125,5.7505269050598145
1725892243046794200,2.754794189453125,-0.9491763710975647,-10.706851959228516,6.749993324279785
1725892243065642500,2.773642578125,-1.580665946006775,3.722815990447998,-0.08820772171020508
1725892243084490800,2.79249072265625,9.179178237915039,-5.353450298309326,8.536466598510742
1725892243103339300,2.81133935546875,5.13369607925415,-6.571927547454834,-0.8534855842590332
1725892243122187500,2.8301875,1.2022850513458252,0.9736452102661133,4.0651044845581055
1725892243141035800,2.849035888671875,1.491005301475525,-4.532172679901123,1.7916607856750488
1725892243159884000,2.867884033203125,-1.2945902347564697,0.048519134521484375,0.4433450698852539
1725892243178732300,2.886732177734375,-1.3712444305419922,-0.14055728912353516,-3.523693084716797
1725892243197580800,2.905580810546875,-2.5986878871917725,-5.207137584686279,1.1965866088867188
1725892243216429000,2.924428955078125,2.859996795654297,-0.9740567207336426,0.04268360137939453
1725892243235277300,2.94327734375,-4.762292861938477,3.6115212440490723,-0.4183063507080078
1725892243254125600,2.96212548828125,-2.206301212310791,2.258225917816162,-2.2230076789855957
1725892243272974000,2.98097412109375,-1.227749228477478,-0.3536367416381836,-0.3097395896911621
1725892243291822300,2.999822265625,-2.0988197326660156,5.726627826690674,1.803889274597168
1725892243310670600,3.018670654296875,-2.490750312805176,2.8150930404663086,1.7722935676574707
1725892243329518800,3.037518798828125,-3.0475857257843018,2.5253829956054688,-1.2738823890686035
1725892243348367000,3.0563671875,1.4501090049743652,-2.28285551071167,0.15256595611572266
1725892243367215600,3.075215576171875,-2.530971050262451,3.387557029724121,-1.8149666786193848
1725892243386064000,3.09406396484375,0.5069708824157715,0.9668445587158203,-2.612905979156494
1725892243404912000,3.112912109375,1.1112518310546875,2.2775344848632812,1.0057601928710938
1725892243423760600,3.1317607421875,-1.9785441160202026,-0.2728433609008789,-0.32237958908081055
1725892243442609000,3.15060888671875,0.6362617015838623,3.3864002227783203,1.4922995567321777
1725892243461457200,3.16945703125,0.11116600036621094,-0.3251919746398926,4.125680446624756
1725892243480305400,3.188305419921875,0.6570870876312256,-0.10366392135620117,0.26999759674072266
1725892243499153700,3.207153564453125,-2.020390510559082,-2.058317184448242,2.2690305709838867
1725892243518002200,3.226002197265625,7.376984596252441,-1.8972911834716797,-0.8492741584777832
1725892243536850400,3.244850341796875,3.496262550354004,-1.9286565780639648,-2.610100746154785
1725892243555698700,3.26369873046875,-1.3875231742858887,1.2870874404907227,-2.3175840377807617
1725892243574547200,3.282547119140625,-4.188129425048828,-0.7268991470336914,0.5937423706054688
1725892243593395500,3.3013955078125,-0.2653541564941406,5.168182373046875,0.23707246780395508
1725892243612243700,3.32024365234375,-3.2796761989593506,2.0475502014160156,2.5428085327148438
1725892243631092200,3.33909228515625,0.8731043338775635,2.5455284118652344,-1.326040267944336
1725892243649940500,3.3579404296875,-2.275607109069824,1.6196460723876953,-1.114121437072754
1725892243668788700,3.376788818359375,-0.31033968925476074,0.5931062698364258,-4.0781049728393555
1725892243687637000,3.395636962890625,5.182512283325195,-0.47563600540161133,-0.24831914901733398
1725892243706485200,3.4144853515625,7.317338943481445,-2.820537567138672,-2.622727394104004
1725892243725333800,3.433333740234375,-0.7435140609741211,-2.8232080936431885,-3.0728182792663574
1725892243744182000,3.45218212890625,-0.7770438194274902,-3.4346237182617188,0.2478504180908203
1725892243763030300,3.4710302734375,0.10117721557617188,2.4041037559509277,-2.2457637786865234
1725892243781878800,3.489878662109375,2.5900044441223145,-4.2086968421936035,6.462864875793457
1725892243800727000,3.50872705078125,2.3563241958618164,-1.8843188285827637,0.7059707641601562
1725892243819575300,3.5275751953125,-10.89354419708252,5.454888343811035,-3.7264437675476074
1725892243838423600,3.546423583984375,-4.360273361206055,-0.8936142921447754,7.757086753845215
1725892243857272000,3.56527197265625,11.678384780883789,2.6990723609924316,14.884440422058105
1725892243876120300,3.584120361328125,6.253179550170898,-0.6929116249084473,2.3609561920166016
1725892243894968600,3.602968505859375,-6.007752418518066,-7.183621883392334,0.7306857109069824
1725892243913817000,3.621817138671875,12.424471855163574,-0.3682413101196289,9.901298522949219
1725892243932665300,3.640665283203125,8.318344116210938,-1.283402919769287,5.135280609130859
1725892243951513600,3.659513671875,3.2592873573303223,-0.5216398239135742,5.148895740509033
1725892243970362000,3.678362060546875,-0.22021913528442383,-3.2124247550964355,2.0463309288024902
1725892243989210400,3.69721044921875,-0.873012363910675,-6.421980857849121,-0.4796128273010254
1725892244008058600,3.71605859375,-1.9436380863189697,-7.6560163497924805,-1.8112702369689941
1725892244026907000,3.734906982421875,-2.3067193031311035,-7.209012508392334,-1.8115273714065552
1725892244045755400,3.75375537109375,-2.031773805618286,-6.156177520751953,-1.8934495449066162
1725892244064603600,3.772603759765625,-1.7575504779815674,-6.773228168487549,-1.1559622287750244
1725892244083452200,3.7914521484375,-1.6056050062179565,-6.93964147567749,-1.1620842218399048
1725892244102300400,3.810300537109375,-2.2189712524414062,-5.440243721008301,-1.5687553882598877
1725892244121148700,3.829148681640625,-3.4020543098449707,-3.150383949279785,-0.6451252698898315
1725892244139997200,3.8479970703125,-2.9208221435546875,-0.760004997253418,-0.7302600145339966
1725892244158845400,3.866845458984375,-4.077479362487793,-0.8173761367797852,-1.109857201576233
1725892244177693700,3.885693603515625,-4.080700397491455,-1.753951072692871,-1.2115181684494019
1725892244196542200,3.904542236328125,-1.9300367832183838,-1.6647634506225586,-0.13952422142028809
1725892244215390500,3.923390380859375,-3.5842947959899902,-1.5706710815429688,-0.5296940803527832
1725892244234238700,3.94223876953125,-4.280142784118652,-2.559436798095703,-2.81789493560791
1725892244253087200,3.961087158203125,-4.417032718658447,-2.9067864418029785,-2.3090035915374756
1725892244271935500,3.979935546875,-3.0989418029785156,-3.488243579864502,0.02244281768798828
1725892244290783700,3.99878369140625,3.475348472595215,-2.0838379859924316,6.435830116271973
1725892244309632300,4.01763232421875,1.5951251983642578,1.7595853805541992,2.890929698944092
1725892244328480500,4.03648046875,0.28792572021484375,0.8850462436676025,0.33248043060302734
1725892244347328800,4.055328857421875,4.931155204772949,-3.069586753845215,3.3820714950561523
1725892244366177300,4.07417724609375,6.378852844238281,-4.989279747009277,3.8902082443237305
1725892244385025500,4.093025634765625,8.29265022277832,-0.4453636407852173,3.936469078063965
1725892244403874000,4.1118740234375,9.036491394042969,1.8723655939102173,2.73844575881958
1725892244422722300,4.130722412109375,8.357864379882812,2.161546230316162,2.490006446838379
1725892244441570600,4.149570556640625,7.149133682250977,1.6291205883026123,2.595608711242676
1725892244460419000,4.168419189453125,4.058642864227295,1.9763891696929932,1.5864810943603516
1725892244479267300,4.187267333984375,3.2159156799316406,2.770313262939453,0.3748502731323242
1725892244498115800,4.20611572265625,3.0412607192993164,3.709376335144043,-0.119415283203125
1725892244516964000,4.224964111328125,1.7670092582702637,5.14967679977417,0.7926797866821289
1725892244535812400,4.243812255859375,-0.6449613571166992,5.638383865356445,0.0035200119018554688
1725892244554660900,4.262660888671875,-1.0143835544586182,3.816084623336792,-0.574824333190918
1725892244573509000,4.281509033203125,-0.142958402633667,2.2486724853515625,-1.8019027709960938
1725892244592357600,4.300357666015625,1.1488356590270996,1.1104202270507812,-2.220097064971924
1725892244611206000,4.319205810546875,2.0626561641693115,-0.4096200466156006,-3.3203468322753906
1725892244630054400,4.338054443359375,2.880805253982544,-0.6120352745056152,-2.832526206970215
1725892244648902700,4.356902587890625,2.021690607070923,-1.1830930709838867,-1.3838691711425781
1725892244667751000,4.3757509765625,-0.3683769702911377,-0.21961164474487305,-0.7665624618530273
1725892244686599400,4.394599365234375,-1.0355494022369385,0.2733689546585083,0.2289142608642578
1725892244705447700,4.41344775390625,-0.5415418148040771,0.763961672782898,-0.22942829132080078
1725892244724296000,4.4322958984375,-0.08630657196044922,0.6211261749267578,-0.024857521057128906
1725892244743144400,4.45114453125,1.3076943159103394,0.11114001274108887,0.9512529373168945
1725892244761992700,4.46999267578125,1.2996522188186646,1.3704689741134644,1.9485054016113281
1725892244780841200,4.48884130859375,0.489751398563385,1.598046898841858,3.139944076538086
1725892244799689500,4.507689453125,0.8603808283805847,1.9100866317749023,3.2016544342041016
1725892244818538000,4.5265380859375,0.5361227989196777,1.3537999391555786,2.6056137084960938
1725892244837386200,4.54538623046875,-0.7817567586898804,1.134160041809082,1.9841728210449219
1725892244856234500,4.564234375,-1.1760938167572021,-0.3345431685447693,-0.03606224060058594
1725892244875083000,4.5830830078125,-0.4058490991592407,-1.2648024559020996,0.09354496002197266
1725892244893931300,4.60193115234375,-0.022184014320373535,-1.2153685092926025,-0.716644287109375
1725892244912779800,4.62077978515625,0.8612786531448364,-1.1549245119094849,-1.065542221069336
1725892244931628000,4.6396279296875,1.391798496246338,-2.0207459926605225,-1.2347946166992188
1725892244950476500,4.6584765625,1.7501519918441772,-2.725660562515259,-2.6079225540161133
1725892244969324800,4.67732470703125,1.68385648727417,-2.396116018295288,-2.108091354370117
1725892244988173300,4.69617333984375,0.9647254943847656,-2.6521713733673096,-1.056314468383789
1725892245007021600,4.715021484375,0.18786227703094482,-1.6745142936706543,-0.6601781845092773
1725892245025870000,4.7338701171875,-0.7746467590332031,-1.8564448356628418,-0.10863685607910156
1725892245044718300,4.75271826171875,1.6616381406784058,0.7929220199584961,0.9879789352416992
1725892245063566600,4.771566650390625,1.5352153778076172,-0.12920928001403809,2.786283493041992
1725892245082415000,4.7904150390625,1.2814831733703613,-1.5766350030899048,2.7676143646240234
1725892245101263400,4.809263427734375,-0.33100032806396484,-1.8466708660125732,2.121885299682617
1725892245120111900,4.82811181640625,-1.4547803401947021,-1.3321999311447144,-0.28778553009033203
1725892245138960100,4.846960205078125,0.5869169235229492,-2.25042724609375,0.6752805709838867
1725892245157808600,4.86580859375,1.3697595596313477,-2.2861335277557373,0.8154315948486328
1725892245176657000,4.884656982421875,0.5565040111541748,-2.1638834476470947,0.3138246536254883
1725892245195505400,4.90350537109375,0.12809038162231445,-1.9598658084869385,-0.6426897048950195
1725892245214353700,4.922353759765625,-0.2760348320007324,-0.08720123767852783,-2.2219772338867188
1725892245233202200,4.9412021484375,-0.6511149406433105,-0.5466266870498657,-1.9431347846984863
1725892245252050400,4.960050537109375,-0.716644287109375,-1.845672845840454,-0.41114139556884766
1725892245270899000,4.97889892578125,0.7956266403198242,-1.52474844455719,0.8296041488647461
1725892245289747200,4.997747314453125,0.33898401260375977,-0.1804843544960022,1.6916608810424805
1725892245308595700,5.016595703125,0.5219054222106934,1.4088435173034668,0.49035167694091797
1725892245327444000,5.03544384765625,-1.3103923797607422,1.8309270143508911,0.14719390869140625
1725892245346292500,5.05429248046875,-4.335725784301758,1.1394155025482178,-0.40598249435424805
1725892245365140700,5.073140625,0.66265869140625,2.5365657806396484,-5.112208366394043
1725892245383989200,5.0919892578125,0.23195219039916992,-0.787717878818512,-3.521055221557617
1725892245402837500,5.11083740234375,0.4602389335632324,-2.0144238471984863,0.50238037109375
1725892245421686000,5.12968603515625,-2.030592441558838,0.3342856168746948,-0.2650947570800781
1725892245440534300,5.1485341796875,-2.2207577228546143,2.3291454315185547,-0.33332347869873047
1725892245459382800,5.1673828125,-1.4860308170318604,1.2373559474945068,0.13463973999023438
1725892245478231000,5.18623095703125,-0.7071456909179688,0.06138896942138672,0.4023609161376953
1725892245497079600,5.20507958984375,-0.0764169692993164,0.7055165767669678,-0.7038488388061523
1725892245515927800,5.223927734375,0.7346329689025879,-0.687373161315918,-1.81465482711792
1725892245534776300,5.2427763671875,-0.04946136474609375,-0.7121386528015137,-1.59004545211792
1725892245553624600,5.26162451171875,-0.6409745216369629,2.310788631439209,-1.2990827560424805
1725892245572473000,5.28047314453125,-0.47223997116088867,1.2067785263061523,-0.15107250213623047
1725892245591321600,5.299321533203125,-0.49822676181793213,-0.11354398727416992,0.09919929504394531
1725892245610169900,5.318169921875,-0.7767863273620605,1.1411807537078857,0.6410140991210938
1725892245629018400,5.337018310546875,0.03429532051086426,-0.16642379760742188,2.195775032043457
1725892245647866600,5.35586669921875,1.4472023248672485,-0.8215041160583496,2.054433822631836
1725892245666715100,5.374715087890625,1.2391283512115479,-1.228111743927002,1.4134559631347656
1725892245685563400,5.3935634765625,0.257051944732666,1.4046134948730469,0.1316366195678711
1725892245704412000,5.412411865234375,-1.9850819110870361,1.9050586223602295,-3.0933971405029297
1725892245723260200,5.43126025390625,-0.03841468691825867,0.8916773796081543,-3.708375930786133
1725892245742108700,5.450108642578125,1.8663018941879272,1.2540974617004395,-3.0317420959472656
1725892245760957000,5.46895703125,1.9195364713668823,2.286280632019043,-1.195082664489746
1725892245779805400,5.487805419921875,0.030626386404037476,1.911475658416748,0.80560302734375
1725892245798653700,5.50665380859375,-1.8324060440063477,1.0040621757507324,1.4482030868530273
1725892245817502700,5.525502685546875,-1.4557785987854004,-0.3857135772705078,1.633255958557129
1725892245836350500,5.5443505859375,-0.21254712343215942,-2.28084135055542,1.2996454238891602
1725892245855199000,5.563198974609375,-0.11625432968139648,-1.5583043098449707,-0.8980684280395508
1725892245874047500,5.582047607421875,0.4945163130760193,-0.9757928848266602,-1.1665964126586914
1725892245892895700,5.600895751953125,0.8196147680282593,-0.7937207221984863,-1.6922526359558105
1725892245911744300,5.619744140625,-0.2732852101325989,-0.43039846420288086,-0.8991117477416992
1725892245930592500,5.638592529296875,-0.9596362709999084,1.224472999572754,-1.4257030487060547
1725892245949441000,5.65744091796875,0.057071566581726074,1.352771282196045,-1.9192438125610352
1725892245968289500,5.67628955078125,0.9487917423248291,0.5488162040710449,-1.0085029602050781
1725892245987137800,5.6951376953125,1.5942386388778687,-1.5705080032348633,0.6886806488037109
1725892246005986300,5.713986328125,1.6870708465576172,-2.7887797355651855,3.2584972381591797
1725892246024834600,5.73283447265625,-0.8274750709533691,-0.17955970764160156,2.915957450866699
1725892246043683000,5.75168310546875,-2.244490385055542,2.7808914184570312,1.8400459289550781
1725892246062531600,5.770531494140625,-0.952877402305603,-5.899656772613525,2.520170211791992
1725892246081379800,5.7893798828125,5.2221150398254395,-4.49119758605957,0.9238605499267578
1725892246100228400,5.808228271484375,1.72005033493042,-3.6915483474731445,0.37665462493896484
1725892246119076600,5.82707666015625,0.9073160886764526,-4.208124160766602,1.0915803909301758
1725892246137925000,5.845925048828125,-0.017229557037353516,-3.524484157562256,-0.777308464050293
1725892246156773600,5.864773681640625,-0.44853949546813965,-0.7398695945739746,-1.3801727294921875
1725892246175622000,5.883621826171875,0.5963056087493896,-1.7512764930725098,-1.0618476867675781
1725892246194470400,5.902470458984375,0.017166852951049805,-0.1578235626220703,-1.008556842803955
1725892246213318700,5.921318603515625,-1.2899893522262573,1.7055346965789795,-1.7090997695922852
1725892246232167200,5.940167236328125,-0.03607594966888428,1.179394245147705,-1.244737148284912
1725892246251015700,5.959015625,0.709641695022583,1.3541319370269775,-1.2297773361206055
1725892246269864000,5.977864013671875,0.3766343593597412,0.5517559051513672,1.8746795654296875
1725892246288712400,5.99671240234375,1.3524833917617798,-1.2905797958374023,1.908273696899414
1725892246307561000,6.01556103515625,3.995213031768799,-1.1936802864074707,2.8318891525268555
1725892246326409200,6.0344091796875,-1.410076379776001,-0.9053521156311035,1.4386672973632812
1725892246345257700,6.0532578125,-1.5548728704452515,-2.503650665283203,0.8807883262634277
1725892246364106000,6.07210595703125,-0.901412844657898,-3.078925609588623,-5.614691734313965
1725892246382954500,6.09095458984375,-0.7175846099853516,-1.793050765991211,-7.9895524978637695
1725892246401803000,6.109802978515625,0.5067476034164429,-0.9070248603820801,-6.003896713256836
1725892246420651300,6.1286513671875,3.758434534072876,4.50442361831665,-8.482782363891602
1725892246439499800,6.147499755859375,-0.11385142803192139,-1.6812114715576172,13.748512268066406
1725892246458348300,6.166348388671875,3.329169273376465,7.166438102722168,9.652989387512207
1725892246477196500,6.185196533203125,-0.01278156042098999,1.604790210723877,7.580723762512207
1725892246496045000,6.204045166015625,-0.6868311166763306,2.6307616233825684,2.212419033050537
1725892246514893600,6.2228935546875,-1.7284743785858154,1.15855073928833,-0.0906071662902832
1725892246533741800,6.241741943359375,0.7029099464416504,-0.6003913879394531,1.422950267791748
1725892246552590300,6.26059033203125,0.4142272472381592,-0.2580866813659668,1.4522576332092285
1725892246571438600,6.2794384765625,1.1130876541137695,-1.045095443725586,-0.20003890991210938
1725892246590287000,6.298287109375,0.6216163635253906,1.1077523231506348,0.3053102493286133
1725892246609135600,6.317135498046875,0.5751891136169434,-1.906651496887207,-1.9208941459655762
1725892246627984100,6.335984130859375,-0.33762311935424805,-1.1973152160644531,-1.4486403465270996
1725892246646832400,6.354832275390625,0.7029829025268555,-2.301971435546875,0.38774728775024414
1725892246665681000,6.373680908203125,0.9358291625976562,-2.9327125549316406,-1.2165064811706543
1725892246684529400,6.392529296875,-0.7330203056335449,-2.2599520683288574,-1.1618781089782715
1725892246703377700,6.411377685546875,-0.38965797424316406,-1.7959198951721191,-1.2073454856872559
1725892246722226200,6.43022607421875,-0.060616493225097656,-0.6697783470153809,-0.928065299987793
1725892246741074700,6.44907470703125,-0.20402288436889648,-1.3257317543029785,-0.8501214981079102
1725892246759923000,6.4679228515625,0.4285316467285156,-2.4025845527648926,-0.9910826683044434
1725892246778771500,6.486771484375,0.9598288536071777,0.29648780822753906,0.29062461853027344
1725892246797620000,6.505619873046875,-0.5249361991882324,0.40836119651794434,0.7539381980895996
1725892246816468200,6.52446826171875,-1.2982802391052246,-1.3671560287475586,-2.6896371841430664
1725892246835316700,6.543316650390625,1.5561027526855469,-0.43749570846557617,0.928255558013916
1725892246854165200,6.562165283203125,-0.08793783187866211,0.736391544342041,2.3231911659240723
1725892246873013500,6.581013427734375,1.1168980598449707,0.8497753143310547,-0.3025507926940918
1725892246891862000,6.599862060546875,0.6997013092041016,0.6648290157318115,-0.06999635696411133
1725892246910710500,6.61871044921875,-0.5120606422424316,1.6730599403381348,1.0771207809448242
1725892246929559000,6.63755908203125,0.21795654296875,2.004150152206421,1.3675813674926758
1725892246948407300,6.6564072265625,0.9691815376281738,1.1936635971069336,0.8980450630187988
1725892246967255800,6.675255859375,1.6874933242797852,2.008734703063965,0.8278641700744629
1725892246986104300,6.694104248046875,0.9422893524169922,2.2526614665985107,2.0645275115966797
1725892247004952600,6.71295263671875,1.7091608047485352,1.1726288795471191,2.0590028762817383
1725892247023801000,6.731801025390625,0.41619062423706055,-3.35772705078125,-2.149488925933838
1725892247042649600,6.750649658203125,0.38545942306518555,-1.1687703132629395,-1.2014727592468262
1725892247061497900,6.769497802734375,-1.2856297492980957,0.020821094512939453,-0.6936092376708984
1725892247080346400,6.788346435546875,-0.02911663055419922,-3.231128215789795,-2.249594211578369
1725892247099195000,6.80719482421875,-1.269726276397705,-2.3681106567382812,-0.25504398345947266
1725892247118043400,6.82604345703125,-0.6745700836181641,-0.866431713104248,1.1971111297607422
1725892247136892000,6.844891845703125,-0.6320457458496094,-0.5165314674377441,-1.3060150146484375
1725892247155740200,6.863740234375,0.8087673187255859,-2.047821044921875,-2.4928417205810547
1725892247174588700,6.882588623046875,0.9505753517150879,-0.2739081382751465,-1.7284321784973145
1725892247193437200,6.901437255859375,0.4727025032043457,0.40271520614624023,-1.7238726615905762
1725892247212285400,6.920285400390625,0.8537774085998535,-0.020954608917236328,-2.8938183784484863
1725892247231134000,6.939134033203125,0.009847640991210938,-0.7937760353088379,-1.4955177307128906
1725892247249982500,6.957982421875,0.2303938865661621,1.088148593902588,-0.5043902397155762
1725892247268831000,6.9768310546875,0.6055445671081543,0.7148241996765137,-1.525099277496338
1725892247287679200,6.99567919921875,-0.2690143585205078,0.3573312759399414,-0.4435124397277832
1725892247306527700,7.01452783203125,-0.06827259063720703,1.1388380527496338,-0.7534894943237305
1725892247325376300,7.033376220703125,0.08926248550415039,2.63718318939209,-2.060042381286621
1725892247344224800,7.052224853515625,0.5910649299621582,1.49566650390625,-1.99055814743042
1725892247363073000,7.071072998046875,3.948864221572876,-2.3644213676452637,-3.6119771003723145
1725892247381921500,7.089921630859375,-2.1393003463745117,3.512840509414673,-8.713410377502441
1725892247400770000,7.10877001953125,-2.148979663848877,-2.363755226135254,-3.83817720413208
1725892247419618600,7.12761865234375,-1.7548179626464844,0.882178783416748,5.004576683044434
1725892247438466800,7.146466796875,-1.9359588623046875,2.915609359741211,8.74476432800293
1725892247457315300,7.1653154296875,-3.0537028312683105,4.061274528503418,10.230714797973633
1725892247476163800,7.184163818359375,-1.5418448448181152,1.6374597549438477,4.519260406494141
1725892247495012400,7.203012451171875,-0.4501028060913086,5.472809314727783,3.111288070678711
1725892247513860900,7.22186083984375,1.5769014358520508,4.855489730834961,4.238654136657715
1725892247532709000,7.240709228515625,0.7333626747131348,0.8366413116455078,4.444307327270508
1725892247551557600,7.2595576171875,-0.0536646842956543,-1.1750965118408203,3.5118660926818848
1725892247570406100,7.27840625,1.324559211730957,-4.111845970153809,-1.9094629287719727
1725892247589254700,7.297254638671875,1.224961519241333,-4.600559234619141,-3.0858752727508545
1725892247608103000,7.31610302734375,0.19385862350463867,-4.456328868865967,-3.1934151649475098
1725892247626951400,7.334951416015625,-0.10068273544311523,-3.5994019508361816,-2.916038990020752
1725892247645800000,7.353800048828125,-1.0294675827026367,-3.7119812965393066,-1.7902474403381348
1725892247664648400,7.3726484375,-1.2841429710388184,-3.9866127967834473,-2.0453124046325684
1725892247683497000,7.3914970703125,0.28803491592407227,-1.425178050994873,-1.4853882789611816
1725892247702345200,7.41034521484375,-0.32421207427978516,-2.589907169342041,-2.969978094100952
1725892247721193700,7.42919384765625,2.467327117919922,0.9680862426757812,-1.1242504119873047
1725892247740042200,7.448042236328125,1.6831560134887695,1.2469725608825684,-1.476435661315918
1725892247758890800,7.466890869140625,1.5501093864440918,-1.1441245079040527,-1.5792813301086426
1725892247777739300,7.4857392578125,0.911078691482544,-1.2164106369018555,-0.6056308746337891
1725892247796587800,7.504587890625,1.1448233127593994,-1.9504709243774414,-1.0785813331604004
1725892247815436300,7.523436279296875,-0.2964801788330078,-0.7513012886047363,-1.2009735107421875
1725892247834284500,7.542284423828125,0.6273066997528076,0.3773016929626465,-0.39861154556274414
1725892247853133000,7.561133056640625,1.9065191745758057,0.7565922737121582,-1.125500202178955
1725892247871981600,7.579981689453125,0.15325021743774414,3.5379061698913574,2.9492621421813965
1725892247890830000,7.598830078125,-1.2614948749542236,2.037708282470703,-0.03884077072143555
1725892247909678600,7.6176787109375,-1.1136841773986816,0.010222911834716797,-0.6493453979492188
1725892247928526800,7.63652685546875,-0.0976247787475586,3.5271897315979004,0.5583724975585938
1725892247947375400,7.655375244140625,1.3290743827819824,3.786071300506592,0.062192440032958984
1725892247966224000,7.674223876953125,0.8267309665679932,-2.634579658508301,-0.7767214775085449
1725892247985072400,7.693072265625,-1.0729336738586426,-2.1109089851379395,-0.6447248458862305
1725892248003921000,7.7119208984375,-1.1567201614379883,-2.5915207862854004,0.8742361068725586
1725892248022769400,7.730769287109375,-0.41593265533447266,1.014862060546875,2.1861963272094727
1725892248041617700,7.74961767578125,-0.22014713287353516,3.1752471923828125,0.8417339324951172
1725892248060466200,7.768466064453125,1.8211784362792969,1.0320749282836914,0.7767491340637207
1725892248079314700,7.787314697265625,1.0492615699768066,0.042079925537109375,0.25370359420776367
1725892248098163200,7.8061630859375,-1.5882329940795898,-1.6484780311584473,0.9325933456420898
1725892248117011700,7.82501171875,-2.179614543914795,-1.3179421424865723,2.349475383758545
1725892248135860200,7.843860107421875,-1.499589443206787,1.0696229934692383,0.32083749771118164
1725892248154708700,7.862708740234375,0.49280834197998047,-1.494983196258545,-2.051259994506836
1725892248173557200,7.88155712890625,0.9664859771728516,-0.17399072647094727,1.1550683975219727
1725892248192405500,7.900405517578125,-0.26759767532348633,1.601010799407959,-2.2895236015319824
1725892248211254000,7.91925390625,0.6133127212524414,-1.3999595642089844,-2.8063886165618896
1725892248230102500,7.9381025390625,-0.8291254043579102,4.635483264923096,0.5298047065734863
1725892248248951000,7.956950927734375,-3.72683048248291,-0.47106075286865234,0.39121055603027344
1725892248267799600,7.975799560546875,1.5287885665893555,-1.84299898147583,1.3129382133483887
1725892248286648000,7.99464794921875,1.1880145072937012,-2.1982293128967285,2.4888663291931152
1725892248305496600,8.01349658203125,-1.434990406036377,-2.9310879707336426,0.40178632736206055
1725892248324345000,8.032344970703125,-1.9829578399658203,-3.6176748275756836,2.066779136657715
1725892248343193300,8.051193359375,-2.186707019805908,-2.8705697059631348,0.10242176055908203
1725892248362041900,8.070041748046876,-0.21137666702270508,-2.6336259841918945,-1.8087077140808105
1725892248380890400,8.088890380859375,0.2745814323425293,-2.9060659408569336,1.786285400390625
1725892248399739000,8.10773876953125,-0.47410058975219727,-3.1068906784057617,1.048055648803711
1725892248418587400,8.12658740234375,0.4396672248840332,-3.602208137512207,0.1256399154663086
1725892248437436000,8.145435791015625,0.12470722198486328,-2.0743093490600586,2.6228127479553223
1725892248456284400,8.164284423828125,0.6154952049255371,-0.5760412216186523,0.47320032119750977
1725892248475133000,8.1831328125,1.96018648147583,0.4739952087402344,-1.256164789199829
1725892248493981400,8.2019814453125,1.5404200553894043,2.881256580352783,0.9352965354919434
1725892248512830000,8.220829833984375,3.6548397541046143,-1.3346056938171387,-2.4441113471984863
1725892248531678500,8.239678466796875,1.3095622062683105,1.3313212394714355,-2.098154067993164
1725892248550526700,8.258526611328126,-0.14184284210205078,1.4708752632141113,-0.49817943572998047
1725892248569375200,8.277375244140625,1.370988368988037,-0.022899866104125977,-0.6233530044555664
1725892248588223700,8.2962236328125,0.9153509140014648,-1.0169570446014404,-1.3118538856506348
1725892248607077600,8.31507763671875,0.9117183685302734,-0.6190440654754639,0.88201904296875
1725892248625920800,8.333920654296875,2.111504077911377,-2.1089560985565186,0.47256898880004883
1725892248644769300,8.352769287109375,0.5448927879333496,-0.23576641082763672,-0.030620574951171875
1725892248663617800,8.37161767578125,0.04300117492675781,1.0562512874603271,0.6076493263244629
1725892248682466300,8.39046630859375,-1.0285968780517578,0.3520088195800781,-0.2488083839416504
1725892248701314800,8.409314697265625,-1.8596572875976562,1.0231988430023193,2.5301690101623535
1725892248720163300,8.428163330078124,5.198261737823486,-2.332876443862915,2.2780818939208984
1725892248739011800,8.44701171875,0.1493396759033203,-0.5630841255187988,-2.753258466720581
1725892248757860400,8.4658603515625,1.4759483337402344,0.591200590133667,1.3614439964294434
1725892248776708900,8.484708984375,3.162679672241211,0.477189302444458,-2.300636053085327
1725892248795557400,8.503557373046876,-1.6078567504882812,-0.553264856338501,-3.112800359725952
1725892248814406000,8.522406005859375,1.6394872665405273,2.5146965980529785,-1.9220643043518066
1725892248833254400,8.54125439453125,3.858224868774414,0.35860610008239746,-0.5886306762695312
1725892248852102700,8.5601025390625,-0.022003173828125,-0.41652369499206543,-2.934295415878296
1725892248870951400,8.578951416015625,-0.3614082336425781,2.86106276512146,-1.2943177223205566
1725892248889799700,8.597799560546875,0.3259458541870117,1.3609623908996582,-1.3297123908996582
1725892248908648200,8.616648193359374,-1.641840934753418,0.9184479713439941,-1.5209980010986328
1725892248927496700,8.63549658203125,0.7944231033325195,1.8481078147888184,2.464421272277832
1725892248946345200,8.65434521484375,2.2283735275268555,0.5948152542114258,-0.28392982482910156
1725892248965193700,8.67319384765625,-1.1456966400146484,1.2460952997207642,-3.3869714736938477
1725892248984042200,8.692042236328126,0.08659696578979492,2.5579476356506348,-0.8181419372558594
1725892249002890800,8.710890869140625,-1.0145468711853027,0.8164315223693848,-2.4657106399536133
1725892249021739300,8.7297392578125,-1.3966360092163086,0.5898826122283936,-1.2647275924682617
1725892249040587800,8.748587890625,1.6459035873413086,-0.5713300704956055,1.2579259872436523
1725892249059436300,8.767436279296875,0.41287803649902344,-1.1017556190490723,-2.320901870727539
1725892249078284800,8.786284912109375,-1.4154582023620605,0.8673696517944336,-1.3582897186279297
1725892249097133300,8.80513330078125,0.3628654479980469,1.0401906967163086,0.30606698989868164
1725892249115981800,8.82398193359375,-0.32228946685791016,1.4565691947937012,-1.7477893829345703
1725892249134830300,8.842830322265625,-0.45452451705932617,2.8965344429016113,-0.5790996551513672
1725892249153678800,8.861678955078125,1.110508918762207,1.936091423034668,1.8069567680358887
1725892249172527400,8.88052734375,-0.7016878128051758,0.7564630508422852,0.05406618118286133
1725892249191376000,8.8993759765625,1.1367883682250977,-0.365081787109375,1.6924476623535156
1725892249210224400,8.918224365234375,0.15379095077514648,-0.7643833160400391,2.1795711517333984
1725892249229073000,8.937072998046874,-0.35135650634765625,-0.06672811508178711,1.594893455505371
1725892249247921400,8.95592138671875,-0.2061142921447754,0.28971242904663086,-0.052179813385009766
1725892249266770000,8.97477001953125,-1.3542656898498535,-1.138484001159668,-1.2386279106140137
1725892249285618400,8.993618408203124,-0.18768072128295898,-2.2798309326171875,1.2817673683166504
1725892249304467000,9.012467041015626,-0.3624429702758789,-3.7795233726501465,0.2957019805908203
1725892249323315500,9.0313154296875,-2.151073932647705,-2.56358003616333,0.32663679122924805
1725892249342164000,9.0501640625,0.9377212524414062,-0.4044971466064453,2.273428440093994
1725892249361012500,9.069012451171876,0.2863345146179199,-0.3253641128540039,-1.2591781616210938
1725892249379861000,9.087861083984375,-0.5534110069274902,0.015551090240478516,1.6282610893249512
1725892249398709500,9.10670947265625,-0.20004844665527344,-1.0582332611083984,0.6892571449279785
1725892249417558000,9.12555810546875,-0.7617132663726807,-1.689314365386963,-0.28657007217407227
1725892249436406500,9.144406494140625,0.3714785575866699,-0.021889209747314453,1.0734128952026367
1725892249455255000,9.163255126953125,-0.08604216575622559,-0.17065668106079102,-2.200971841812134
1725892249474103600,9.182103515625,0.19422125816345215,-0.8373246192932129,-0.5029630661010742
1725892249492952000,9.2009521484375,1.152111530303955,-0.8479413986206055,-1.3531060218811035
1725892249511800600,9.219800537109375,0.14477229118347168,-0.2353973388671875,-1.0319247245788574
1725892249530649000,9.238649169921874,0.5673761367797852,0.16412734985351562,1.5798778533935547
1725892249549497600,9.25749755859375,-1.4629206657409668,-1.1117024421691895,1.7900676727294922
1725892249568346000,9.27634619140625,-1.1012096405029297,-2.3766818046569824,4.125424861907959
1725892249587195000,9.29519482421875,-1.347609043121338,-2.915266990661621,-0.7009496688842773
1725892249606043400,9.31404345703125,-1.2274184226989746,-2.0673184394836426,0.6179013252258301
1725892249624891600,9.3328916015625,0.6575422286987305,-0.3285651206970215,1.1137571334838867
1725892249643740200,9.351740234375,-0.8682351112365723,0.2726011276245117,-3.302427053451538
1725892249662589000,9.3705888671875,0.38170480728149414,1.0609164237976074,0.8734955787658691
1725892249681437400,9.3894375,1.346174955368042,-0.430757999420166,-0.19440507888793945
1725892249700286000,9.408285888671875,-0.1947040557861328,-0.16816091537475586,-0.03769207000732422
1725892249719134500,9.427134521484374,0.1618480682373047,-0.007085323333740234,-0.5621452331542969
1725892249737983000,9.44598291015625,0.27972984313964844,0.4312300682067871,-3.500300168991089
1725892249756831500,9.46483154296875,1.1171674728393555,1.1876521110534668,-0.3553757667541504
1725892249775680000,9.483679931640625,1.367495059967041,0.4337925910949707,0.6118316650390625
1725892249794528500,9.502528564453126,-0.0744023323059082,0.5194435119628906,0.2787003517150879
1725892249813377000,9.521376953125,-0.5463910102844238,0.25071048736572266,0.7622971534729004
1725892249832225500,9.5402255859375,-0.915196418762207,0.12702035903930664,0.40610456466674805
1725892249851074000,9.559073974609374,-0.7745676040649414,0.7642116546630859,1.3492326736450195
1725892249869922600,9.577922607421876,-1.6330790519714355,0.7614426612854004,1.304154872894287
1725892249888771000,9.59677099609375,-1.708909511566162,0.3466768264770508,0.7571449279785156
1725892249907619600,9.61561962890625,-0.09415817260742188,0.08710289001464844,0.7494692802429199
1725892249926468000,9.634468017578126,0.21809959411621094,0.0659794807434082,-0.5264678001403809
1725892249945316600,9.653316650390625,-0.5528101921081543,0.43596982955932617,0.8577094078063965
1725892249964165400,9.672165283203125,-1.41756010055542,-1.170107364654541,0.7231287956237793
1725892249983014000,9.691013916015624,-0.6089639663696289,-1.566884994506836,1.0103344917297363
1725892250001862400,9.7098623046875,0.3158116340637207,-1.515042781829834,1.3764100074768066
1725892250020711000,9.7287109375,2.384222984313965,-1.1333680152893066,-0.662447452545166
1725892250039559400,9.747559326171874,1.3207745552062988,0.3298673629760742,-2.1669678688049316
1725892250058408000,9.766407958984376,0.24473094940185547,-1.3304448127746582,-0.9320306777954102
1725892250077256400,9.78525634765625,0.8038735389709473,-1.8832440376281738,-0.41196250915527344
1725892250096105000,9.80410498046875,0.8180203437805176,-0.12166643142700195,0.07301568984985352
1725892250114953500,9.822953369140626,1.1327433586120605,1.7157635688781738,-1.87691330909729
1725892250133802000,9.841802001953125,-0.685814380645752,1.997849464416504,-1.2422282695770264
1725892250152650500,9.860650390625,1.8204522132873535,-1.158548355102539,1.3346905708312988
1725892250171499000,9.8794990234375,0.8441252708435059,-2.9201533794403076,-0.7222170829772949
1725892250190347800,9.89834765625,-1.7003564834594727,-0.011996984481811523,1.2244482040405273
1725892250209196300,9.9171962890625,2.5060949325561523,-1.10337495803833,-1.0531044006347656
1725892250228044800,9.936044921875,-1.2903566360473633,0.9275703430175781,-1.7488353252410889
1725892250246893300,9.954893310546876,-0.0722341537475586,-0.8640978336334229,0.9868252277374268
1725892250265741800,9.973741943359375,1.7102928161621094,-1.8422982692718506,-0.35639381408691406
1725892250284590300,9.99259033203125,-0.0346527099609375,0.6427066326141357,0.9238417148590088
1725892250303438800,10.01143896484375,1.9017033576965332,0.5856151580810547,-1.5654218196868896
1725892250322287400,10.030287353515625,-1.2013473510742188,2.6178388595581055,0.36969494819641113
1725892250341136100,10.04913623046875,3.287226676940918,0.812065601348877,0.4373342990875244
1725892250359984600,10.067984619140624,0.6336789131164551,0.8724119663238525,-3.9997506141662598
1725892250378833200,10.086833251953125,-1.3090696334838867,1.1641051769256592,1.0801901817321777
1725892250397681700,10.105681640625,3.5618581771850586,0.5936713218688965,-0.18424749374389648
1725892250416530200,10.1245302734375,1.4454302787780762,0.6511180400848389,-1.5615758895874023
1725892250435378700,10.143378662109376,2.035538673400879,2.406627655029297,0.8718762397766113
1725892250454227200,10.162227294921875,1.7912564277648926,1.0586869716644287,-2.821540594100952
1725892250473075700,10.18107568359375,-1.288111686706543,1.2495899200439453,-2.1021065711975098
1725892250491924200,10.19992431640625,2.299215793609619,1.283045768737793,-0.7645487785339355
1725892250510773000,10.21877294921875,-0.07123661041259766,2.344285011291504,-1.5489070415496826
1725892250529621500,10.23762158203125,-0.2823324203491211,1.4712059497833252,0.3277921676635742
1725892250548470000,10.256469970703124,0.774571418762207,-0.747960090637207,-0.1955571174621582
1725892250567318500,10.275318603515625,0.5787959098815918,-1.0711708068847656,1.5615558624267578
1725892250586167000,10.2941669921875,0.43381166458129883,-2.1979641914367676,0.42836904525756836
1725892250605015600,10.313015625,-1.0202827453613281,0.24953889846801758,-0.47084951400756836
1725892250623864000,10.331864013671876,-0.027862548828125,1.3405818939208984,-0.499936580657959
1725892250642712600,10.350712646484375,0.006495475769042969,0.7820067405700684,-0.13002300262451172
1725892250661561000,10.36956103515625,0.6432318687438965,0.3087897300720215,1.2930450439453125
1725892250680409900,10.388409912109376,0.38328123092651367,-0.7822909355163574,1.2706966400146484
1725892250699258400,10.40725830078125,-0.7205801010131836,-2.1385436058044434,-0.7382755279541016
1725892250718107000,10.42610693359375,-0.9523911476135254,-1.935473918914795,1.821197509765625
1725892250736955400,10.444955322265624,1.075782299041748,-2.1849007606506348,4.341662406921387
1725892250755804000,10.463803955078125,0.46145057678222656,-1.572782039642334,-0.4006061553955078
1725892250774652700,10.482652587890625,-0.17907381057739258,1.083737850189209,-0.6105813980102539
1725892250793501200,10.501501220703124,0.677670955657959,1.1096038818359375,-1.1489744186401367
1725892250812349700,10.520349609375,0.8634381294250488,-0.5335683822631836,0.1417064666748047
1725892250831198200,10.5391982421875,0.23262691497802734,-1.9906396865844727,1.1631441116333008
1725892250850046700,10.558046630859375,-0.9915032386779785,-1.223355770111084,0.616856575012207
1725892250868895200,10.576895263671876,0.33292722702026367,-1.345841884613037,0.25152587890625
1725892250887743700,10.59574365234375,-0.7145724296569824,-0.9251227378845215,0.15256071090698242
1725892250906592300,10.61459228515625,0.15744447708129883,-1.2584214210510254,0.9861865043640137
1725892250925441000,10.63344091796875,-0.7879548072814941,-1.3633952140808105,-0.2626156806945801
1725892250944289500,10.65228955078125,-0.39475393295288086,-2.081491470336914,0.42128562927246094
1725892250963138000,10.671137939453125,-0.7109322547912598,-0.9785966873168945,0.04076814651489258
1725892250981986600,10.689986572265624,-0.22173643112182617,-0.19676446914672852,0.4151582717895508
1725892251000835000,10.7088349609375,0.1678905487060547,-0.9723315238952637,0.9602847099304199
1725892251019683800,10.727683837890625,0.010109901428222656,-1.4942750930786133,-1.0680961608886719
1725892251038532400,10.746532470703125,1.0420503616333008,-1.1879382133483887,-0.3601799011230469
1725892251057380900,10.765380859375,0.14574337005615234,-0.08633852005004883,-1.0619568824768066
1725892251076229400,10.7842294921875,0.7408180236816406,-0.7380023002624512,0.33714723587036133
1725892251095078000,10.803077880859375,-0.23310422897338867,-1.0776667594909668,0.26935672760009766
1725892251113926400,10.821926513671874,-0.04623842239379883,-1.0774383544921875,0.2896456718444824
1725892251132775000,10.84077490234375,-0.3894219398498535,-0.6179752349853516,-0.6231966018676758
1725892251151623700,10.859623779296875,-0.8828525543212891,0.7860507965087891,0.45493078231811523
1725892251170472200,10.87847216796875,0.33777379989624023,-0.28950023651123047,0.05759906768798828
1725892251189320700,10.89732080078125,-0.06103658676147461,-0.24753665924072266,0.3866872787475586
1725892251208169200,10.916169189453125,0.7540321350097656,0.2946467399597168,0.882807731628418
1725892251227017700,10.935017822265625,-0.30576086044311523,0.39136743545532227,-0.7913274765014648
1725892251245866200,10.9538662109375,-0.2544364929199219,1.1324124336242676,-0.6295642852783203
1725892251264714800,10.97271484375,0.880925178527832,0.3471698760986328,0.30981922149658203
1725892251283563500,10.9915634765625,-1.3823466300964355,0.881767749786377,1.6666836738586426
1725892251302412000,11.010412109375,-1.7516875267028809,0.025875568389892578,1.7661333084106445
1725892251321260500,11.029260498046876,-0.9995369911193848,-0.26636552810668945,0.5614628791809082
1725892251340109000,11.048109130859375,0.757744312286377,0.431887149810791,1.179764747619629
1725892251358957600,11.06695751953125,0.3414158821105957,0.8109951019287109,0.15025901794433594
1725892251377806300,11.085806396484376,-0.3341536521911621,0.6738724708557129,-0.14769363403320312
1725892251396654800,11.10465478515625,-0.9300026893615723,-0.46306705474853516,0.16544055938720703
1725892251415503400,11.12350341796875,-1.4332804679870605,-1.0544018745422363,0.8204789161682129
1725892251434351900,11.142351806640624,-0.7231850624084473,-1.960853099822998,1.6245336532592773
1725892251453200400,11.161200439453125,0.7978787422180176,-2.7971253395080566,0.8074908256530762
1725892251472049200,11.180049072265625,0.9858126640319824,-0.41923999786376953,0.1813511848449707
1725892251490897700,11.198897705078124,1.5456852912902832,0.44246912002563477,0.17198896408081055
1725892251509746200,11.21774609375,0.7646727561950684,0.0568995475769043,-1.2319486141204834
1725892251528594700,11.2365947265625,0.6393256187438965,-0.48882627487182617,0.8584942817687988
1725892251547443200,11.255443115234375,1.9569711685180664,-1.7089624404907227,0.36164307594299316
1725892251566291700,11.274291748046876,1.393904685974121,-0.15316009521484375,-0.18337631225585938
1725892251585140500,11.293140380859375,0.5512871742248535,0.4077317714691162,-1.6902074813842773
1725892251603989000,11.311989013671875,0.024224281311035156,0.6850547790527344,0.27283167839050293
1725892251622837500,11.33083740234375,3.5079917907714844,-3.9417526721954346,-0.12787342071533203
1725892251641686000,11.34968603515625,0.8362035751342773,0.07950043678283691,-1.2460424900054932
1725892251660534500,11.368534423828125,-0.4174823760986328,1.1472492218017578,-0.9009287357330322
1725892251679383300,11.38738330078125,1.8522748947143555,0.38165807723999023,-2.5435335636138916
1725892251698231800,11.406231689453126,0.4889545440673828,1.024400234222412,-0.7304999828338623
1725892251717080300,11.425080322265625,2.038637161254883,0.7196052074432373,-1.1788747310638428
1725892251735928800,11.4439287109375,0.006108283996582031,1.940037488937378,-1.1519339084625244
1725892251754777300,11.46277734375,0.41792964935302734,-0.08058571815490723,0.04303741455078125
1725892251773626000,11.481626220703125,0.8916845321655273,0.6188981533050537,-0.5193824768066406
1725892251792474600,11.500474609375,1.3384332656860352,-0.4468255043029785,0.007258892059326172
1725892251811323100,11.5193232421875,0.46324634552001953,1.23811936378479,-2.23567271232605
1725892251830171600,11.538171630859376,0.16301631927490234,1.2920109033584595,-0.1537609100341797
1725892251849020200,11.557020263671875,0.2884955406188965,-0.7982168197631836,-1.68495774269104
1725892251867869000,11.575868896484375,-0.12357234954833984,1.7004106044769287,-0.16652393341064453
1725892251886717400,11.594717529296876,3.4986634254455566,2.0370373725891113,0.9425644874572754
1725892251905566000,11.61356591796875,-0.28194665908813477,1.2128949165344238,-3.982335090637207
1725892251924414500,11.63241455078125,-0.08098030090332031,2.3432652950286865,-1.6846637725830078
1725892251943263000,11.651262939453124,1.4061017036437988,0.7820217609405518,-1.4877362251281738
1725892251962111700,11.67011181640625,-0.2652015686035156,-0.1899700164794922,-1.7475898265838623
1725892251980960300,11.688960205078125,-0.48539018630981445,-1.3067684173583984,0.2462449073791504
1725892251999808800,11.707808837890624,0.40430402755737305,-1.5546693801879883,0.2680320739746094
1725892252018657300,11.7266572265625,0.2851405143737793,-0.07310247421264648,0.49033164978027344
1725892252037505800,11.745505859375,0.7418041229248047,0.4339122772216797,-0.9975309371948242
1725892252056354600,11.7643544921875,0.3071131706237793,1.202603816986084,-1.5203237533569336
1725892252075203000,11.783203125,0.8237724304199219,-0.09743595123291016,-0.5275335311889648
1725892252094051600,11.802051513671875,-0.5535149574279785,-0.04771709442138672,2.4366421699523926
1725892252112900000,11.820900146484375,-0.502537727355957,-1.0969467163085938,2.4681835174560547
1725892252131748600,11.83974853515625,-1.2686023712158203,-1.0163016319274902,0.8916683197021484
1725892252150597400,11.858597412109376,-0.1021718978881836,-2.13016939163208,1.7955851554870605
1725892252169446000,11.87744580078125,-0.01149892807006836,-2.558030605316162,1.9323430061340332
1725892252188294400,11.89629443359375,-1.1423816680908203,0.4411606788635254,3.114590644836426
1725892252207143000,11.915142822265626,-0.22704219818115234,-1.1494193077087402,1.2045683860778809
1725892252225991400,11.933991455078125,0.16303682327270508,-1.7929859161376953,0.7141509056091309
1725892252244840200,11.952840087890625,0.6687774658203125,-2.693582057952881,-1.133554220199585
1725892252263688700,11.971688720703124,-0.09142637252807617,0.34120893478393555,-0.8436155319213867
1725892252282537200,11.990537109375,0.6647772789001465,0.8947863578796387,0.5616655349731445
1725892252301385700,12.0093857421875,-1.3785810470581055,-0.807152271270752,0.5637435913085938
1725892252320234200,12.028234130859374,-0.09554243087768555,-2.9431285858154297,2.099834442138672
1725892252339082800,12.047082763671876,-0.43250131607055664,-1.1819448471069336,-0.4011878967285156
1725892252357931500,12.065931640625,-0.22366666793823242,0.018890857696533203,0.08643579483032227
1725892252376780000,12.084780029296875,0.03875923156738281,-1.6728606224060059,-0.5625815391540527
1725892252395628500,12.103628662109376,0.26767396926879883,-0.7869877815246582,0.9155941009521484
1725892252414477000,12.12247705078125,1.3071839809417725,-1.6240553855895996,-1.1963248252868652
1725892252433325600,12.14132568359375,-1.1223692893981934,0.3142738342285156,-1.7889361381530762
1725892252452174300,12.16017431640625,0.8771147727966309,0.6743874549865723,0.5144176483154297
1725892252471022800,12.17902294921875,-1.0515165328979492,-1.942553997039795,1.1127147674560547
1725892252489871400,12.197871337890625,-0.26576900482177734,-3.0459370613098145,1.2160687446594238
1725892252508719900,12.216719970703124,0.17164087295532227,-1.2117276191711426,-0.6976428031921387
1725892252527568600,12.235568603515626,-0.0357666015625,1.2892718315124512,-0.9376940727233887
1725892252546417200,12.254417236328125,1.0086402893066406,0.4562563896179199,0.3605384826660156
1725892252565265700,12.273265625,-0.7881369590759277,-1.1120257377624512,1.991281509399414
1725892252584114200,12.2921142578125,0.31322479248046875,-0.9680166244506836,0.9281387329101562
1725892252602963000,12.310962890625,-1.3004450798034668,0.034193992614746094,-1.1889333724975586
1725892252621811500,12.3298115234375,-1.0099782943725586,1.0194401741027832,-1.0773181915283203
1725892252640660000,12.348659912109374,2.005174160003662,1.465808391571045,0.2684946060180664
1725892252659508500,12.367508544921876,1.2347087860107422,1.816474437713623,1.7379956245422363
1725892252678357200,12.386357177734375,0.002387523651123047,0.9377493858337402,1.237703800201416
1725892252697205800,12.405205810546875,-0.26799678802490234,0.8129749298095703,-0.18271112442016602
1725892252716054300,12.42405419921875,0.6661162376403809,1.8252124786376953,1.685621738433838
1725892252734902800,12.44290283203125,-0.2702937126159668,1.446042537689209,0.13651275634765625
1725892252753751300,12.461751220703125,-1.282895565032959,-0.7736515998840332,0.10037517547607422
1725892252772600000,12.48060009765625,-0.7674970626831055,-2.11859130859375,1.2416744232177734
1725892252791448600,12.499448486328125,-0.18069744110107422,-2.0951008796691895,0.4710521697998047
1725892252810297000,12.518297119140625,-0.9151773452758789,-0.2878713607788086,0.3107633590698242
1725892252829145600,12.5371455078125,-0.7515506744384766,0.013886451721191406,1.21588134765625
1725892252847994000,12.555994140625,1.3795580863952637,-1.8059334754943848,0.8992552757263184
1725892252866843000,12.5748427734375,1.9614648818969727,-0.6315054893493652,-0.29118871688842773
1725892252885691400,12.59369140625,1.3842363357543945,1.3233246803283691,-0.8643646240234375
1725892252904540000,12.612539794921876,0.10382413864135742,0.8508496284484863,-1.2144181728363037
1725892252923388400,12.631388427734375,0.9816198348999023,-1.4367866516113281,-0.33799171447753906
1725892252942237200,12.6502373046875,2.2270593643188477,-1.806386947631836,-0.1585249900817871
1725892252961085700,12.669085693359374,2.127448081970215,0.13565969467163086,-1.288956880569458
1725892252979934200,12.687934326171876,0.7206606864929199,0.8346662521362305,-2.146387815475464
1725892252998782700,12.70678271484375,-0.12998485565185547,-0.6816294193267822,-0.8280329704284668
1725892253017631500,12.725631591796875,2.3396549224853516,-2.536672353744507,0.3707563877105713
1725892253036480000,12.74447998046875,1.593552589416504,0.6084091663360596,-0.4413471221923828
1725892253055328500,12.76332861328125,-1.3455495834350586,1.2218003273010254,-2.103059768676758
1725892253074177000,12.782177001953125,-0.4292173385620117,-1.201051950454712,-1.8224787712097168
1725892253093025800,12.80102587890625,-0.584503173828125,0.47676897048950195,2.104299545288086
1725892253111874300,12.819874267578125,3.2446932792663574,-1.8826184272766113,-0.8331284523010254
1725892253130722800,12.838722900390625,-1.1793632507324219,2.454087018966675,-1.2931499481201172
1725892253149571300,12.8575712890625,0.9861879348754883,0.47771668434143066,0.3352036476135254
1725892253168419800,12.876419921875,0.39586353302001953,1.645525336265564,-3.096541166305542
1725892253187268600,12.8952685546875,-0.07804107666015625,1.6323620080947876,2.2445335388183594
1725892253206117000,12.9141171875,6.044017791748047,0.768129825592041,-2.423340320587158
1725892253224965600,12.932965576171876,-0.3902554512023926,2.332038640975952,-5.737620830535889
1725892253243814100,12.951814208984375,0.5964746475219727,2.4109764099121094,-0.9540307521820068
1725892253262662700,12.97066259765625,0.7028031349182129,1.3685133457183838,-2.7134909629821777
1725892253281511400,12.989511474609374,0.773590087890625,1.790959119796753,0.6185221672058105
1725892253300360000,13.00835986328125,0.7464818954467773,0.734307050704956,-1.681729793548584
1725892253319208400,13.02720849609375,-1.795844554901123,1.5515308380126953,-1.5985088348388672
1725892253338057200,13.04605712890625,-0.8508586883544922,0.7835206985473633,1.1023178100585938
1725892253356905700,13.06490576171875,0.9808926582336426,0.6167378425598145,3.8798141479492188
1725892253375754200,13.083754150390625,0.1644439697265625,-0.8069543838500977,1.2479009628295898
1725892253394602800,13.102602783203125,-0.7373538017272949,0.40494346618652344,-0.6768703460693359
1725892253413451500,13.121451416015624,0.3074054718017578,0.5173134803771973,0.8481411933898926
1725892253432300000,13.140300048828125,-0.24057626724243164,-0.18795108795166016,1.2422761917114258
1725892253451148500,13.1591484375,-0.491818904876709,-1.241727352142334,0.9604239463806152
1725892253469997000,13.1779970703125,0.7819905281066895,-1.443713665008545,0.4283757209777832
1725892253488845600,13.196845458984376,0.415132999420166,-0.26497793197631836,0.1739945411682129
1725892253507694300,13.2156943359375,0.3229246139526367,-0.4028496742248535,-0.9375753402709961
1725892253526542800,13.23454296875,0.5185375213623047,-0.7032971382141113,0.8211221694946289
1725892253545391400,13.253391357421876,0.4174370765686035,-1.3714838027954102,1.0757255554199219
1725892253564240000,13.272239990234375,-0.5194168090820312,-0.5908627510070801,0.10717535018920898
1725892253583088400,13.29108837890625,-0.5836458206176758,-0.025579452514648438,0.5750894546508789
1725892253601937200,13.309937255859374,-0.2882380485534668,-2.1953511238098145,2.997485637664795
1725892253620785700,13.32878564453125,-1.5014081001281738,-2.480745315551758,1.335212230682373
1725892253639634200,13.34763427734375,-1.5186667442321777,-0.40810298919677734,0.9395184516906738
1725892253658483000,13.36648291015625,-0.9802122116088867,-1.3768119812011719,1.4436664581298828
1725892253677331500,13.38533154296875,-0.5952515602111816,-2.673616886138916,3.099912166595459
1725892253696180000,13.404179931640625,-0.6421151161193848,-2.4369149208068848,-1.4784460067749023
1725892253715028500,13.423028564453125,-0.5656414031982422,-0.3722724914550781,0.2797102928161621
1725892253733877200,13.441877197265624,0.6925439834594727,-1.6647615432739258,2.2815346717834473
1725892253752725800,13.460725830078125,-0.028589248657226562,-3.502255439758301,-1.3113255500793457
1725892253771574300,13.47957421875,1.0290684700012207,-1.6118340492248535,-2.0448334217071533
1725892253790422800,13.4984228515625,1.568666934967041,-0.17145395278930664,-1.6788723468780518
1725892253809271300,13.517271240234376,1.2649998664855957,-0.6643409729003906,-2.2116246223449707
1725892253828120000,13.5361201171875,1.056386947631836,-1.2563791275024414,0.34691905975341797
1725892253846968600,13.554968505859375,0.1252598762512207,-1.5800318717956543,-1.9248771667480469
1725892253865817000,13.573817138671876,0.7501521110534668,-0.08554887771606445,-0.07743072509765625
1725892253884665600,13.59266552734375,-0.6622824668884277,0.48815059661865234,0.07962751388549805
1725892253903514400,13.611514404296875,-0.841698169708252,-0.38524532318115234,1.396092414855957
1725892253922363000,13.63036279296875,-0.5826606750488281,-0.8806447982788086,0.9173164367675781
1725892253941211400,13.64921142578125,-0.3191800117492676,-0.016110897064208984,-0.6139898300170898
1725892253960060000,13.668059814453125,0.17793846130371094,1.2901911735534668,0.6230950355529785
1725892253978908700,13.68690869140625,0.5097966194152832,0.6576824188232422,-0.2677130699157715
1725892253997757200,13.705757080078126,-0.08248090744018555,0.4204578399658203,-0.43866872787475586
1725892254016605700,13.724605712890625,-0.5978665351867676,-0.297882080078125,0.6781320571899414
1725892254035454500,13.743454345703125,-2.2688093185424805,-0.6990156173706055,1.6498169898986816
1725892254054303000,13.762302978515624,-2.2815914154052734,-0.9833006858825684,1.5855398178100586
1725892254073151500,13.7811513671875,-0.882418155670166,-1.301811695098877,1.014516830444336
1725892254092000000,13.8,-1.1168079376220703,-0.8909788131713867,1.8463811874389648
1725892254110848500,13.8188486328125,-0.6815452575683594,-0.7825417518615723,1.3876571655273438
1725892254129697000,13.837697021484376,-0.15085315704345703,0.1676468849182129,1.5208659172058105
1725892254148545800,13.8565458984375,0.7085714340209961,-0.4311976432800293,0.8091616630554199
1725892254167394300,13.875394287109375,0.5162901878356934,-1.1410751342773438,-0.3894929885864258
1725892254186242800,13.894242919921876,-0.05233907699584961,-1.5270166397094727,-0.7489771842956543
1725892254205091300,13.91309130859375,0.33959150314331055,-2.191267490386963,-0.02222299575805664
1725892254223940000,13.931940185546875,1.1489205360412598,-0.36705493927001953,-0.6081795692443848
1725892254242788600,13.95078857421875,2.0216288566589355,0.7135939598083496,-1.106555461883545
1725892254261637000,13.96963720703125,2.8140816688537598,1.204500675201416,-2.5853304862976074
1725892254280486000,13.98848583984375,2.7178592681884766,1.602691888809204,-1.9132344722747803
1725892254299334400,14.00733447265625,1.8553695678710938,-0.18010997772216797,-0.5371079444885254
1725892254318183000,14.026182861328126,0.17974472045898438,-0.5372769832611084,-0.17409205436706543
1725892254337031400,14.045031494140625,-0.48329925537109375,-1.2424697875976562,0.1783463954925537
1725892254355880200,14.063880126953125,-0.9909334182739258,-1.2002897262573242,0.28807830810546875
1725892254374728700,14.082728759765626,1.2782678604125977,-0.782224178314209,0.3311285972595215
1725892254393577200,14.1015771484375,-0.2084646224975586,-0.7119596004486084,-1.074113130569458
1725892254412425700,14.12042578125,0.9236106872558594,-0.3165597915649414,0.9943985939025879
1725892254431274200,14.139274169921874,2.204599380493164,0.48523426055908203,-1.4811630249023438
1725892254450123000,14.158123046875,0.8425416946411133,2.253352642059326,-0.9501681327819824
1725892254468971500,14.176971435546875,1.7360105514526367,2.2756330966949463,-1.4126231670379639
1725892254487820000,14.195820068359374,1.3916420936584473,0.9725391864776611,-0.9384715557098389
1725892254506668500,14.21466845703125,1.0775089263916016,0.5538568496704102,-1.008896827697754
1725892254525517300,14.233517333984375,0.9569301605224609,0.31152796745300293,-1.2943611145019531
1725892254544365800,14.25236572265625,1.7596755027770996,-0.03280973434448242,-0.23183250427246094
1725892254563214300,14.27121435546875,1.881525993347168,-1.3757989406585693,-2.0434916019439697
1725892254582063000,14.29006298828125,1.4388504028320312,-0.8587801456451416,-2.785707950592041
1725892254600911600,14.30891162109375,0.526148796081543,1.5125950574874878,-2.750229835510254
1725892254619760000,14.327760009765624,-0.45366430282592773,1.4694221019744873,-3.4698472023010254
1725892254638608600,14.346608642578126,0.1040334701538086,1.586629867553711,-1.4465699195861816
1725892254657457200,14.36545703125,2.1499757766723633,1.5593385696411133,0.8567333221435547
1725892254676306000,14.384305908203125,1.2774591445922852,0.9583430290222168,-0.42295408248901367
1725892254695154400,14.403154541015626,-0.31992053985595703,1.650651454925537,-0.7258071899414062
1725892254714003000,14.4220029296875,-0.2693209648132324,1.5172686576843262,-1.3114027976989746
1725892254732851500,14.4408515625,-1.8059148788452148,1.658177375793457,-1.585994005203247
1725892254751700200,14.4597001953125,-0.9719023704528809,-0.035245418548583984,1.2506299018859863
1725892254770548700,14.478548828125,-0.6800603866577148,-1.188408374786377,0.6857085227966309
1725892254789397200,14.497397216796875,0.6879487037658691,-0.6657452583312988,1.1266999244689941
1725892254808245800,14.516245849609374,0.8056492805480957,-0.44438934326171875,-1.3448333740234375
1725892254827094500,14.535094482421876,-0.8382759094238281,1.8805122375488281,-1.6469292640686035
1725892254845943000,14.553943115234375,1.3903007507324219,1.998213291168213,-0.16411209106445312
1725892254864791600,14.57279150390625,-0.1949911117553711,0.6832499504089355,0.6649413108825684
1725892254883640000,14.59164013671875,-0.23642301559448242,-2.1544270515441895,0.21313190460205078
1725892254902488800,14.61048876953125,-0.3255939483642578,-2.94118070602417,1.491654872894287
1725892254921337300,14.62933740234375,-0.03444671630859375,-2.1484146118164062,2.780949592590332
1725892254940185900,14.648185791015624,-1.8451690673828125,-2.1394968032836914,0.5485763549804688
1725892254959034400,14.667034423828126,-2.318263530731201,-1.7114481925964355,2.4316067695617676
1725892254977883000,14.6858828125,-0.3971433639526367,-3.284918785095215,1.9741368293762207
1725892254996731600,14.704731689453125,-1.3284626007080078,-2.245934009552002,0.7770771980285645
1725892255015580200,14.723580078125,-0.7052955627441406,-1.8549795150756836,0.13684368133544922
1725892255034428700,14.7424287109375,-0.9371757507324219,-0.271939754486084,0.7208981513977051
1725892255053277400,14.76127734375,-0.34508800506591797,-0.3205862045288086,-0.9933559894561768
1725892255072126000,14.7801259765625,-0.5224552154541016,0.2221379280090332,-0.21607494354248047
1725892255090974500,14.798974365234375,0.6284389495849609,-0.9865970611572266,-0.15476179122924805
1725892255109823000,14.817822998046875,0.10804319381713867,-2.2894539833068848,-1.1872644424438477
1725892255128671700,14.836671630859374,0.3085808753967285,-2.029388427734375,-0.7990565299987793
1725892255147520300,14.855520263671876,0.3671908378601074,0.8614201545715332,-0.5112776756286621
1725892255166368800,14.87436865234375,0.9045155048370361,0.02726268768310547,-0.5045976638793945
1725892255185217300,14.89321728515625,0.036237239837646484,-1.247480869293213,0.30765342712402344
1725892255204066000,14.912066162109374,-0.4922370910644531,-1.2110271453857422,1.5237245559692383
1725892255222914600,14.93091455078125,-0.253232479095459,-0.9809675216674805,2.1386847496032715
1725892255241763000,14.94976318359375,-1.3064193725585938,-1.8805975914001465,0.9891138076782227
1725892255260611600,14.968611572265624,-0.7275643348693848,-1.0931963920593262,-0.39783668518066406
1725892255279460400,14.98746044921875,0.2942633628845215,-0.25188398361206055,0.7197265625
1725892255298308900,15.006308837890625,0.6836609840393066,0.29787635803222656,0.8539962768554688
1725892255317157400,15.025157470703125,-1.4937458038330078,1.119208812713623,0.09542989730834961
1725892255336006000,15.044005859375,0.038483619689941406,1.5535740852355957,1.6401257514953613
1725892255354854700,15.062854736328125,0.5868816375732422,1.3862628936767578,-1.6540546417236328
1725892255373703200,15.081703125,0.4097447395324707,1.125413417816162,-3.041865587234497
1725892255392551700,15.1005517578125,1.0525455474853516,1.7121086120605469,0.8469653129577637
1725892255411400200,15.119400146484375,-0.5300507545471191,2.0230560302734375,1.75830078125
1725892255430249000,15.1382490234375,-0.8381690979003906,-0.14614295959472656,0.9281635284423828
1725892255449097500,15.157097412109374,0.1779322624206543,-0.26250791549682617,1.9474844932556152
1725892255467946000,15.175946044921876,0.17452192306518555,-0.5503020286560059,1.3296804428100586
1725892255486794500,15.19479443359375,-0.8025436401367188,-0.3870105743408203,-1.400181770324707
1725892255505643300,15.213643310546875,1.7046079635620117,0.45494508743286133,-2.098639726638794
1725892255524491800,15.23249169921875,0.19170522689819336,1.208517074584961,-0.1840806007385254
1725892255543340300,15.25134033203125,-2.095702648162842,-0.8770675659179688,0.9778881072998047
1725892255562188800,15.270188720703125,-1.4198260307312012,-4.38248872756958,2.8335328102111816
1725892255581037600,15.28903759765625,-0.43751049041748047,-3.786707878112793,1.7959342002868652
1725892255599886000,15.307885986328126,0.0318608283996582,-0.44289731979370117,1.0185208320617676
1725892255618741800,15.32674169921875,0.6402888298034668,0.5012593269348145,0.3171215057373047
1725892255637583400,15.345583251953125,2.636481761932373,-0.16914081573486328,-0.18820476531982422
1725892255656431900,15.364431884765626,3.9372024536132812,-1.9272608757019043,-0.5106091499328613
1725892255675280400,15.3832802734375,3.0723414421081543,0.8054995536804199,-2.0862956047058105
1725892255694129200,15.402129150390625,1.2201223373413086,5.450427532196045,-3.3565821647644043
1725892255712977700,15.420977783203124,-1.1181354522705078,2.7546916007995605,-2.7165801525115967
1725892255731826200,15.439826171875,-0.6675119400024414,-2.189643144607544,-0.4908115863800049
1725892255750674700,15.4586748046875,-0.932124137878418,-1.7932252883911133,1.8377430438995361
1725892255769523200,15.477523193359374,-1.4387273788452148,-2.194554090499878,2.1163601875305176
1725892255788372000,15.4963720703125,1.0551872253417969,-1.9071524143218994,0.9782836437225342
1725892255807220500,15.515220458984375,0.44611072540283203,0.033102989196777344,-0.4238574504852295
1725892255826069000,15.534069091796875,-0.25484561920166016,-0.01628851890563965,-0.7933001518249512
1725892255844917800,15.552917724609374,-0.16956520080566406,-0.9754912853240967,0.7538690567016602
1725892255863766300,15.571766357421875,1.2255573272705078,-0.5673975944519043,-0.28713035583496094
1725892255882614800,15.59061474609375,-0.24956512451171875,1.7658360004425049,-0.9786415100097656
1725892255901463300,15.60946337890625,2.93526554107666,0.8088374137878418,-0.5050668716430664
1725892255920312000,15.62831201171875,2.6864938735961914,-0.40230703353881836,-2.100334644317627
1725892255939160600,15.64716064453125,2.974092960357666,0.9848930835723877,-2.8223729133605957
1725892255958009000,15.666009033203125,0.29125356674194336,2.5915045738220215,-5.754087448120117
1725892255976857600,15.684857666015626,-0.8884015083312988,3.1719350814819336,-3.9153847694396973
1725892255995706400,15.703706298828125,1.9568166732788086,1.6882548332214355,-0.5610456466674805
1725892256014555000,15.722554931640625,2.634951591491699,-0.2163393497467041,-0.30626440048217773
1725892256033403400,15.7414033203125,1.9564270973205566,0.04339408874511719,0.506126880645752
1725892256052252200,15.760252197265626,0.6472816467285156,1.1449999809265137,-1.7769341468811035
1725892256071100700,15.7791005859375,-1.1032423973083496,2.2718453407287598,-3.4200923442840576
1725892256089949200,15.79794921875,-0.2278308868408203,1.5787863731384277,0.28177785873413086
1725892256108797700,15.816797607421876,-0.9525742530822754,-0.2273244857788086,1.013524055480957
1725892256127646500,15.835646484375,-1.4512848854064941,0.0022606849670410156,0.9373884201049805
1725892256146495000,15.854494873046875,-0.06570148468017578,0.7703757286071777,2.4854846000671387
1725892256165343500,15.873343505859374,-0.638181209564209,-0.30208587646484375,2.166694164276123
1725892256184192300,15.892192138671875,-2.6713061332702637,-2.016231060028076,2.875058650970459
1725892256203040800,15.911040771484375,-0.1465458869934082,-3.1985034942626953,6.1243720054626465
1725892256221889300,15.92988916015625,-0.01483297348022461,-4.098323822021484,1.8398404121398926
1725892256240737800,15.94873779296875,-1.6322293281555176,-1.7211637496948242,0.8006987571716309
1725892256259586600,15.967586669921875,1.4765119552612305,-0.7931914329528809,1.3034110069274902
1725892256278435000,15.98643505859375,0.29531097412109375,-1.0449633598327637,-1.4238109588623047
1725892256297283600,16.00528369140625,0.10389423370361328,0.6333270072937012,0.7274751663208008
1725892256316132400,16.02413232421875,1.5108466148376465,1.9708876609802246,-1.425215721130371
1725892256334980900,16.04298095703125,1.0416638851165771,1.638847827911377,-3.273838996887207
1725892256353829400,16.061829345703124,2.4468483924865723,2.4283199310302734,-1.4082589149475098
1725892256372678000,16.080677978515624,1.0771608352661133,1.2349352836608887,-3.430138349533081
1725892256391526700,16.099526611328123,0.5542564392089844,0.4641542434692383,-2.6498427391052246
1725892256410375200,16.118375244140626,1.8131837844848633,1.288912296295166,3.1422195434570312
1725892256429223700,16.1372236328125,-0.9880557060241699,-3.384550094604492,1.759535312652588
1725892256448072400,16.156072509765625,-2.656529426574707,-6.245779514312744,3.723522663116455
1725892256466921000,16.1749208984375,-0.8764095306396484,-4.7237725257873535,2.800690174102783
1725892256485769500,16.19376953125,-1.0113787651062012,-1.8786611557006836,1.145101547241211
1725892256504618000,16.212617919921875,-0.6495857238769531,-1.9505085945129395,0.9509029388427734
1725892256523466800,16.231466796875,0.5449342727661133,-2.3864188194274902,0.3474464416503906
1725892256542315300,16.250315185546874,-0.46744298934936523,-0.253082275390625,-0.24442815780639648
1725892256561163800,16.269163818359374,-0.16649818420410156,0.4449448585510254,-0.05730438232421875
1725892256580012500,16.288012451171873,0.31882381439208984,-0.3529624938964844,-0.9837660789489746
1725892256598861000,16.306861083984376,0.10229825973510742,0.6845269203186035,0.9413323402404785
1725892256617709600,16.32570947265625,1.0714521408081055,-0.1815800666809082,1.0547728538513184
1725892256636558000,16.34455810546875,0.510167121887207,0.820796012878418,-1.1181573867797852
1725892256655406800,16.36340673828125,1.2423715591430664,0.4950594902038574,1.0589652061462402
1725892256674255400,16.38225537109375,1.420910358428955,0.4237785339355469,-0.39048242568969727
1725892256693103900,16.401103759765626,0.31153392791748047,0.6384563446044922,1.7514867782592773
1725892256711952600,16.41995263671875,0.7549357414245605,0.3892679214477539,1.5374436378479004
1725892256730801200,16.43880126953125,-0.14195537567138672,1.2473564147949219,-0.8363409042358398
1725892256749649700,16.457649658203124,-1.018775463104248,1.530571460723877,2.121682643890381
1725892256768498200,16.476498291015623,-1.2522473335266113,0.6592597961425781,4.260656833648682
1725892256787347000,16.495346923828127,-2.579232692718506,-1.200566291809082,1.498384952545166
1725892256806195500,16.514195556640626,-1.4292917251586914,-0.5344104766845703,2.577702522277832
1725892256825044000,16.5330439453125,0.28904199600219727,-0.5063967704772949,2.1274003982543945
1725892256843892700,16.551892822265625,-0.22789430618286133,-0.033718109130859375,1.184546947479248
1725892256862741200,16.5707412109375,-0.1593327522277832,-1.0854239463806152,0.21090221405029297
1725892256881589800,16.58958984375,-0.3055906295776367,-1.8091320991516113,1.0074691772460938
1725892256900438500,16.6084384765625,0.4902830123901367,-2.4082889556884766,1.9257307052612305
1725892256919287000,16.627287109375,1.133890151977539,-1.9775652885437012,1.3283953666687012
1725892256938135600,16.646135498046874,2.489846706390381,-0.1359996795654297,-0.5341441631317139
1725892256956984300,16.664984375,3.4689431190490723,1.0561585426330566,-0.9112660884857178
1725892256975832800,16.683832763671877,3.070969581604004,1.3299674987792969,-2.0266923904418945
1725892256994681300,16.702681396484376,2.117858409881592,1.0885066986083984,-2.26674747467041
1725892257013529900,16.72152978515625,1.6877784729003906,0.24376344680786133,-1.99727463722229
1725892257032378600,16.740378662109375,1.326657772064209,-0.261319637298584,-1.602543830871582
1725892257051227100,16.75922705078125,1.4648232460021973,-1.369173288345337,-1.1311535835266113
1725892257070075600,16.77807568359375,1.7281999588012695,-1.7221662998199463,-1.005246877670288
1725892257088924400,16.79692431640625,1.0539593696594238,-0.3733046054840088,-1.4979476928710938
1725892257107773000,16.81577294921875,0.7471256256103516,0.30765247344970703,-0.3687131404876709
1725892257126621400,16.834621337890624,-1.6915760040283203,0.5682823657989502,-0.9160537719726562
1725892257145470200,16.85347021484375,-2.333817481994629,0.004552602767944336,2.331813335418701
1725892257164318700,16.872318603515627,-0.039813995361328125,-2.3181686401367188,1.886977195739746
1725892257183167200,16.891167236328126,-1.7938041687011719,0.09695005416870117,2.2755255699157715
1725892257202016000,16.91001611328125,0.05368328094482422,0.8804125785827637,-0.28809499740600586
1725892257220864500,16.928864501953125,-0.8294515609741211,1.049777626991272,0.01221466064453125
1725892257239713000,16.947713134765625,1.7640471458435059,-0.3277566432952881,-0.5743751525878906
1725892257258561500,16.9665615234375,2.549443244934082,0.9341995716094971,-2.2363109588623047
1725892257277410300,16.985410400390624,3.112523078918457,1.132968544960022,-2.2088093757629395
1725892257296258800,17.0042587890625,3.702545642852783,-0.28441929817199707,-3.4373619556427
1725892257315107600,17.023107666015626,0.9340920448303223,1.3923981189727783,-4.012895107269287
1725892257333956000,17.0419560546875,1.0968732833862305,1.5952210426330566,-1.7862398624420166
1725892257352804600,17.0608046875,2.044785499572754,1.7223260402679443,-0.7908601760864258
1725892257371653000,17.079653076171876,0.46206188201904297,0.7896170616149902,-0.7092118263244629
1725892257390502000,17.098501953125,0.36415910720825195,-0.34761691093444824,-0.9847216606140137
1725892257409350400,17.117350341796875,-1.3337903022766113,-0.36904430389404297,-0.7125349044799805
1725892257428199000,17.136198974609375,-0.9636168479919434,0.29387569427490234,0.2935981750488281
1725892257447047700,17.155047607421874,-1.3195257186889648,0.965219259262085,0.6646943092346191
1725892257465896200,17.173896240234374,-0.6638836860656738,1.332399606704712,0.7482738494873047
1725892257484744700,17.19274462890625,-0.8855576515197754,0.7988576889038086,0.26027917861938477
1725892257503593500,17.211593505859376,-0.38757991790771484,-1.495567798614502,2.367349624633789
1725892257522442000,17.23044189453125,-0.29247379302978516,-2.2055301666259766,1.516817569732666
1725892257541290500,17.24929052734375,-0.7781095504760742,-0.6765499114990234,0.32182741165161133
1725892257560139000,17.268138916015626,0.48132801055908203,1.8063788414001465,0.5736536979675293
1725892257578987800,17.28698779296875,0.6516399383544922,1.4550971984863281,-0.6622486114501953
1725892257597836300,17.305836181640625,1.2306547164916992,0.9105963706970215,-0.9039874076843262
1725892257616684800,17.324684814453125,0.7175273895263672,0.6605739593505859,-1.314518928527832
1725892257635533600,17.343533447265624,0.4809699058532715,1.1544828414916992,-0.6306371688842773
1725892257654382000,17.362382080078124,-0.12181663513183594,0.12902069091796875,-1.0516223907470703
1725892257673230600,17.381230712890623,-0.706059455871582,-2.5604453086853027,-0.05730628967285156
1725892257692079400,17.400079345703126,-0.7462320327758789,-4.064033508300781,1.910964012145996
1725892257710928000,17.418927978515626,-0.5243105888366699,-2.4091663360595703,1.4520273208618164
1725892257729776400,17.4377763671875,-1.5694408416748047,-0.8048601150512695,-0.20006704330444336
1725892257748625200,17.456625244140625,-1.6969289779663086,-1.68058443069458,2.0768704414367676
1725892257767473700,17.4754736328125,-1.1961350440979004,-4.932834148406982,1.0894289016723633
1725892257786322200,17.494322265625,-1.2842984199523926,-4.395723342895508,0.0028858184814453125
1725892257805171000,17.5131708984375,0.3631777763366699,-2.0309085845947266,0.7123303413391113
1725892257824019500,17.53201953125,-0.18984413146972656,-0.018535137176513672,0.4359321594238281
1725892257842868000,17.550867919921874,0.2870039939880371,-1.051473617553711,1.7641716003417969
1725892257861716700,17.569716796875,0.5777244567871094,-1.7088208198547363,-0.6223287582397461
1725892257880565200,17.588565185546877,0.6930198669433594,0.6962752342224121,-0.4798412322998047
1725892257899413800,17.607413818359376,1.6588070392608643,1.6467952728271484,-0.7031064033508301
1725892257918262500,17.626262451171876,1.0611348152160645,1.365354061126709,-3.2288572788238525
1725892257937111000,17.645111083984375,1.8197298049926758,2.3734121322631836,-1.514631986618042
1725892257955959600,17.66395947265625,2.570857524871826,2.0916500091552734,-1.6859970092773438
1725892257974808300,17.682808349609374,1.4465227127075195,1.2527217864990234,-1.6557772159576416
1725892257993656800,17.70165673828125,0.2776350975036621,1.750082015991211,-0.8215301036834717
1725892258012505300,17.72050537109375,-0.4509897232055664,1.0115680694580078,-0.3411283493041992
1725892258031354000,17.73935400390625,-1.3879594802856445,-0.3895602226257324,2.9753313064575195
1725892258050202600,17.75820263671875,-2.159392833709717,-3.5562233924865723,1.662550926208496
1725892258069051100,17.777051025390627,-2.2816615104675293,-1.4820318222045898,0.004985332489013672
1725892258087899600,17.795899658203126,-0.6780447959899902,0.7409014701843262,1.5450315475463867
1725892258106748400,17.81474853515625,-0.1477813720703125,1.5459318161010742,0.6306915283203125
1725892258125597000,17.833596923828125,-1.1066246032714844,0.3946495056152344,2.6269917488098145
1725892258144445700,17.85244580078125,-1.8717832565307617,-1.8212966918945312,2.2511086463928223
1725892258163294200,17.871294189453124,-2.393026828765869,-1.5936040878295898,2.478976249694824
1725892258182142700,17.890142822265624,-1.630751609802246,-0.7920336723327637,1.4457650184631348
1725892258200991500,17.908991455078127,0.7721734046936035,0.5947184562683105,0.5356206893920898
1725892258219840000,17.927840087890626,2.340196371078491,1.6284737586975098,1.2834882736206055
1725892258238688500,17.9466884765625,1.2575020790100098,0.9511137008666992,0.24604034423828125
1725892258257537000,17.965537109375,1.0424184799194336,0.5249676704406738,-0.0670156478881836
1725892258276385800,17.9843857421875,1.2309694290161133,0.39406394958496094,0.5023040771484375
1725892258295234300,18.003234375,0.29418039321899414,0.7882905006408691,-1.3580787181854248
1725892258314082800,18.022082763671875,-0.06492471694946289,0.8420329093933105,-0.40285229682922363
1725892258332931600,18.040931640625,1.0170388221740723,-0.9871354103088379,-0.8329825401306152
1725892258351780000,18.059780029296874,1.1434717178344727,0.3072986602783203,-1.4375534057617188
1725892258370628600,18.078628662109374,0.6320505142211914,-0.19228744506835938,0.2422490119934082
1725892258389477400,18.097477294921877,1.4356203079223633,-1.4042906761169434,-1.203498363494873
1725892258408326000,18.116325927734376,0.4706292152404785,0.8876895904541016,-0.605905294418335
1725892258427174700,18.135174560546876,0.6755576133728027,1.1088342666625977,-0.8333945274353027
1725892258446023200,18.154023193359375,-1.06536865234375,0.2771015167236328,-0.6018064022064209
1725892258464871700,18.17287158203125,-0.10561180114746094,-2.4233899116516113,0.9684855937957764
1725892258483720200,18.19172021484375,1.1015472412109375,-1.5958516597747803,0.15511655807495117
1725892258502569000,18.21056884765625,0.19163846969604492,0.3075242042541504,-1.002549409866333
1725892258521417500,18.22941748046875,-0.7148714065551758,0.7872655391693115,-0.7418603897094727
1725892258540266000,18.248265869140624,-0.3969879150390625,-0.3347785472869873,0.24359416961669922
1725892258559114800,18.26711474609375,-0.44591617584228516,0.12034964561462402,-0.183485746383667
1725892258577963300,18.28596337890625,-1.2371492385864258,0.2541697025299072,0.8528499603271484
1725892258596811800,18.304811767578126,-0.11093616485595703,0.8087751865386963,1.3699798583984375
1725892258615660500,18.32366064453125,1.8574600219726562,1.8960658311843872,-0.03242349624633789
1725892258634509000,18.342509033203125,2.2286105155944824,0.5174851417541504,-2.297001600265503
1725892258653357600,18.361357666015625,-2.0862836837768555,0.09637236595153809,-2.536067247390747
1725892258672206300,18.380206298828124,2.6912765502929688,0.013229846954345703,0.07940673828125
1725892258691054800,18.399054931640624,2.3900275230407715,1.1086921691894531,-2.8760409355163574
1725892258709903600,18.417903564453123,1.0568194389343262,1.427063226699829,-1.2467563152313232
1725892258728752000,18.436752197265626,3.278599739074707,0.22845029830932617,-2.419065475463867
1725892258747600600,18.4556005859375,0.5207562446594238,0.8016860485076904,-3.6084775924682617
1725892258766449200,18.47444921875,1.2628498077392578,2.5167484283447266,-2.2198100090026855
1725892258785298000,18.4932978515625,-0.9706811904907227,3.135469913482666,-2.417370319366455
1725892258804146400,18.512146484375,0.6803498268127441,2.035731792449951,-0.1894526481628418
1725892258822995000,18.530994873046875,1.1255626678466797,0.577995777130127,0.3027043342590332
1725892258841843700,18.54984375,0.14813566207885742,-0.0793004035949707,-0.11011505126953125
1725892258860692200,18.568692138671874,-1.5366573333740234,0.9221372604370117,-1.214076042175293
1725892258879540700,18.587540771484374,-0.3697333335876465,1.2382125854492188,1.2619829177856445
1725892258898389500,18.606389404296873,-0.07120466232299805,0.24235200881958008,-0.23971080780029297
1725892258917238000,18.625238037109376,-1.491483211517334,-0.10515928268432617,-0.39579105377197266
1725892258936086500,18.64408642578125,0.053238868713378906,-0.9223814010620117,0.8022303581237793
1725892258954935300,18.662935302734375,0.27443838119506836,-0.8287301063537598,0.447235107421875
1725892258973783800,18.68178369140625,-0.08823823928833008,-0.6102728843688965,-0.9271960258483887
1725892258992632600,18.700632568359374,-0.909207820892334,-0.4001622200012207,-0.6453413963317871
1725892259011481000,18.719481201171874,0.17241764068603516,-2.095935344696045,2.2376513481140137
1725892259030329600,18.73832958984375,0.36878013610839844,-4.035482883453369,1.9101314544677734
1725892259049178000,18.75717822265625,-0.8703913688659668,-1.8912620544433594,0.17322826385498047
1725892259068027000,18.77602685546875,-0.6651968955993652,0.38679981231689453,0.41390132904052734
1725892259086875400,18.79487548828125,-1.0253524780273438,-0.5271315574645996,-0.2417464256286621
1725892259105724000,18.813723876953127,-1.0500941276550293,-0.7515811920166016,1.1997008323669434
1725892259124572700,18.83257275390625,-0.9167461395263672,-1.5921764373779297,1.6921958923339844
1725892259143421200,18.851421142578126,-0.8495378494262695,-0.90118408203125,1.2128748893737793
1725892259162269700,18.870269775390625,-0.6308746337890625,-1.108412742614746,0.3333292007446289
1725892259181118500,18.889118408203124,-0.4847984313964844,-0.31195640563964844,1.0430703163146973
1725892259199967000,18.907967041015624,-0.7467532157897949,-0.5274791717529297,0.4960298538208008
1725892259218815500,18.9268154296875,-0.9982442855834961,0.8090300559997559,-0.029166221618652344
1725892259237664300,18.945664306640627,-0.8541069030761719,-0.15251541137695312,0.4461855888366699
1725892259256512800,18.9645126953125,-0.4416203498840332,-0.5845699310302734,0.7670230865478516
1725892259275361500,18.983361572265625,-0.027869701385498047,-0.7027888298034668,-0.3256692886352539
1725892259294210000,19.0022099609375,-0.15509653091430664,0.5669345855712891,-1.6852312088012695
1725892259313058600,19.02105859375,0.21880722045898438,-0.3390378952026367,0.6895108222961426
1725892259331907000,19.039906982421876,0.474215030670166,-2.5113725662231445,-0.32048606872558594
1725892259350755800,19.058755859375,-1.0465545654296875,-1.347653865814209,0.5308284759521484
1725892259369604400,19.077604248046875,0.21203231811523438,-1.2720422744750977,0.6323375701904297
1725892259388452900,19.096452880859374,0.10401201248168945,0.5328593254089355,-0.9253034591674805
1725892259407301600,19.115301513671874,1.3838865756988525,1.4616103172302246,0.13187932968139648
1725892259426150100,19.134150146484377,0.6028652191162109,0.2609891891479492,-0.6490340232849121
1725892259444999000,19.1529990234375,-0.13171863555908203,-0.08942222595214844,1.007136344909668
1725892259463847400,19.171847412109376,-0.7479252815246582,-0.519996166229248,0.7713556289672852
1725892259482696000,19.190696044921875,-0.9021086692810059,-0.3907504081726074,1.467604160308838
1725892259501544400,19.20954443359375,-0.6429133415222168,0.2897377014160156,0.31635475158691406
1725892259520393200,19.228393310546874,0.2546114921569824,0.6757783889770508,0.574974536895752
1725892259539241700,19.24724169921875,-0.02040576934814453,0.08616971969604492,2.0436458587646484
1725892259558090500,19.266090576171877,-0.47220611572265625,-1.1499414443969727,1.138765811920166
1725892259576939000,19.28493896484375,-0.3496689796447754,0.6184630393981934,2.0907816886901855
1725892259595787500,19.30378759765625,1.8056273460388184,0.8449501991271973,0.08685016632080078
1725892259614636300,19.32263623046875,1.3781037330627441,1.2710366249084473,-1.8676698207855225
1725892259633484800,19.34148486328125,-1.90507173538208,1.3932175636291504,1.3449459075927734
1725892259652333300,19.360333251953126,-2.130789279937744,-1.7692499160766602,2.945809841156006
1725892259671181800,19.379181884765625,-0.7858152389526367,-2.5533485412597656,1.914790153503418
1725892259690030600,19.398030517578125,0.13684797286987305,-0.5086088180541992,1.0792121887207031
1725892259708879000,19.416879150390624,1.7751221656799316,0.44145727157592773,0.1923990249633789
1725892259727727900,19.435727783203124,1.4588680267333984,0.6561827659606934,-0.7072105407714844
1725892259746576400,19.454576416015627,1.4010796546936035,1.4543323516845703,-1.673588752746582
1725892259765425000,19.4734248046875,0.25464773178100586,0.6860613822937012,-2.029585838317871
1725892259784273400,19.4922734375,0.8111867904663086,-1.8045058250427246,-1.30525541305542
1725892259833737000,19.541737060546875,0.09702444076538086,0.9218368530273438,-2.2121167182922363
1725892259852585500,19.56058544921875,-0.9034261703491211,-0.8573946952819824,-0.14066553115844727
1725892259871434200,19.579434326171874,2.110915184020996,-3.3123538494110107,0.4737257957458496
1725892259890282800,19.59828271484375,-0.43259143829345703,0.23868823051452637,-0.8623239994049072
1725892259909131300,19.61713134765625,-1.0152406692504883,2.2713327407836914,-0.039816856384277344
1725892259927980000,19.63597998046875,-0.7735738754272461,1.012256145477295,-1.0986535549163818
1725892259946828500,19.65482861328125,0.44655895233154297,-1.5569818019866943,0.25896453857421875
1725892259965677300,19.67367724609375,2.0007505416870117,1.5913491249084473,0.3244457244873047
1725892259984525800,19.69252587890625,3.1317391395568848,0.9958488941192627,-2.2361788749694824
1725892260003374300,19.711374267578126,1.9177303314208984,1.747408390045166,-3.835629463195801
1725892260022223000,19.73022314453125,2.202394485473633,2.5882184505462646,-1.465134859085083
1725892260041071600,19.749071533203125,4.431381702423096,2.2528717517852783,-3.773677349090576
1725892260059920100,19.767920166015625,0.11812877655029297,3.0765180587768555,-4.651994705200195
1725892260078768600,19.7867685546875,0.021703243255615234,1.7374448776245117,-2.104099750518799
1725892260097617400,19.805617431640623,0.915654182434082,2.1449365615844727,0.22499942779541016
1725892260116465700,19.824465576171875,2.9005727767944336,0.553192138671875,0.7826323509216309
1725892260135314400,19.843314453125,-0.5780549049377441,0.7543826103210449,-1.5423734188079834
1725892260154163200,19.8621630859375,-1.654449462890625,1.636779546737671,-0.373593807220459
1725892260173011700,19.88101171875,-1.4413633346557617,1.4753456115722656,1.7806310653686523
1725892260191860200,19.899860107421876,0.018774986267089844,-1.118208885192871,2.865171432495117
1725892260210709000,19.918708984375,-0.1602001190185547,-2.398228645324707,1.471564769744873
1725892260229557500,19.9375576171875,-1.5447707176208496,-1.811497688293457,0.8177299499511719
1725892260248406300,19.95640625,-1.7509956359863281,-1.407698154449463,1.53192138671875
1725892260267254800,19.9752548828125,-1.011530876159668,-2.882246494293213,0.9200897216796875
1725892260286103300,19.994103271484374,-0.20072269439697266,-2.181577205657959,2.108140468597412
1725892260304952000,20.0129521484375,0.6787467002868652,-1.2063889503479004,0.6940665245056152
1725892260323800600,20.031800537109376,0.5392155647277832,1.1477856636047363,-2.459118366241455
1725892260342649000,20.050649169921876,1.4198808670043945,2.8514132499694824,-2.570708751678467
1725892260361497600,20.06949755859375,-0.01835155487060547,1.9309077262878418,-3.3208670616149902
1725892260380346400,20.088346435546875,0.3676333427429199,0.07993936538696289,2.1049108505249023
1725892260399195000,20.10719482421875,-0.9016904830932617,-2.102118968963623,2.4307498931884766
1725892260418043400,20.12604345703125,-0.6894936561584473,-1.623185157775879,3.5525388717651367
1725892260436892200,20.14489208984375,-1.2766427993774414,-2.988740921020508,0.9832963943481445
1725892260455740700,20.16374072265625,-1.0182733535766602,-2.522195339202881,1.4449772834777832
1725892260474589400,20.18258935546875,-1.2316951751708984,-1.4330997467041016,0.03945350646972656
1725892260493438000,20.20143798828125,-1.9622468948364258,-0.990781307220459,1.4224252700805664
1725892260512286500,20.220286376953126,-1.4612669944763184,-4.339938640594482,1.910170555114746
1725892260531135200,20.23913525390625,-1.5695929527282715,-2.9474802017211914,-0.08434915542602539
1725892260549983700,20.257983642578125,-0.7714791297912598,-0.22592544555664062,1.3276748657226562
1725892260568832300,20.276832275390625,-0.4566187858581543,-0.16114568710327148,-0.09319019317626953
1725892260587681000,20.295680908203124,-0.12179422378540039,0.15814542770385742,-0.2707862854003906
1725892260606529500,20.314529541015624,1.2470426559448242,0.4441695213317871,-0.15982723236083984
1725892260625378000,20.3333779296875,0.8355250358581543,1.0498576164245605,-2.134507656097412
1725892260644226600,20.3522265625,0.8700356483459473,2.0660486221313477,-1.6320853233337402
1725892260663075300,20.371075439453126,0.10749673843383789,0.5580840110778809,0.3990187644958496
1725892260681923800,20.389923828125,-0.725008487701416,-1.5517330169677734,0.550727367401123
1725892260700772400,20.4087724609375,-0.3618173599243164,-1.2656288146972656,0.20570611953735352
1725892260719621000,20.42762109375,0.05422067642211914,0.585761547088623,-0.19484376907348633
1725892260738469600,20.4464697265625,-0.06773948669433594,0.763369083404541,0.8237729072570801
1725892260757318100,20.465318115234375,-1.194631576538086,-1.0562076568603516,1.5681872367858887
1725892260776167000,20.4841669921875,-1.9465947151184082,-2.004946231842041,1.4024882316589355
1725892260795015400,20.503015380859374,-0.5119051933288574,-0.9489421844482422,1.216139316558838
1725892260813864200,20.5218642578125,-0.5485939979553223,0.8025383949279785,1.5124497413635254
1725892260832712700,20.540712646484376,-1.1741986274719238,-0.7752394676208496,1.9419183731079102
1725892260851561200,20.559561279296876,-0.8622245788574219,-1.8037643432617188,1.8310937881469727
1725892260870410000,20.578409912109375,1.6284918785095215,-1.071202278137207,1.1816530227661133
1725892260889258500,20.597258544921875,1.196122646331787,0.6971678733825684,0.11987113952636719
1725892260908107000,20.61610693359375,0.46283864974975586,0.7866249084472656,0.30639076232910156
1725892260926955500,20.63495556640625,0.948885440826416,-0.13681650161743164,0.22811079025268555
1725892260945804300,20.65380419921875,2.0980868339538574,-0.9542827606201172,-0.9564425945281982
1725892260964652800,20.67265283203125,-0.10268020629882812,0.6088104248046875,-1.0555806159973145
1725892260983501300,20.691501220703124,-0.12653732299804688,-0.48456668853759766,0.11610126495361328
1725892261002350000,20.71035009765625,0.5854520797729492,-1.9906682968139648,-0.6799874305725098
1725892261021198600,20.729198486328126,2.0593042373657227,-1.9931488037109375,-1.2789585590362549
1725892261040047000,20.748047119140626,0.8015503883361816,0.48302149772644043,-1.015592098236084
1725892261058896000,20.766895751953125,1.8840808868408203,0.7275571823120117,-1.849257230758667
1725892261077744400,20.785744384765625,1.007615566253662,1.55328369140625,-2.5037169456481934
1725892261096593000,20.804593017578124,1.4326262474060059,1.91082763671875,-0.39588403701782227
1725892261115441700,20.823441650390624,1.82135009765625,0.5324687957763672,-1.3341012001037598
1725892261134290200,20.842290283203123,1.6524748802185059,0.6446740627288818,-0.5627908706665039
1725892261153138700,20.861138671875,1.6480798721313477,2.013263702392578,-1.4200100898742676
1725892261171987500,20.879987548828126,1.9282307624816895,2.855337619781494,-1.406430721282959
1725892261190836000,20.8988359375,1.3752250671386719,2.0219388008117676,-1.4863195419311523
1725892261209684500,20.9176845703125,1.597193717956543,1.2654314041137695,-1.209333896636963
1725892261228533200,20.936533203125,0.5509285926818848,2.310861587524414,-1.2190935611724854
1725892261247381800,20.9553818359375,-0.5011801719665527,1.1974966526031494,-0.6829118728637695
1725892261266230300,20.974230224609375,-0.8499956130981445,0.6959712505340576,-0.33429861068725586
1725892261285079000,20.9930791015625,-0.851750373840332,-0.8282725811004639,0.2040119171142578
1725892261303927600,21.011927490234374,0.33892011642456055,0.07847023010253906,-0.26336050033569336
1725892261322776000,21.030776123046873,-0.3645153045654297,-0.4587864875793457,-1.2124719619750977
1725892261341624800,21.049624755859377,0.3466000556945801,-0.5671215057373047,-0.2901911735534668
1725892261360473300,21.068473388671876,0.45824289321899414,-1.4063596725463867,-1.3929252624511719
1725892261379321900,21.08732177734375,2.2737207412719727,-0.6051206588745117,-0.29693031311035156
1725892261398170600,21.106170654296875,1.6992368698120117,0.4183177947998047,-1.8628640174865723
1725892261417019100,21.12501904296875,1.152470588684082,2.3805932998657227,-2.051755666732788
1725892261435867600,21.14386767578125,1.2988190650939941,2.6209354400634766,-2.675126552581787
1725892261454716400,21.16271630859375,2.278637647628784,1.7005085945129395,-1.772409200668335
1725892261473565000,21.18156494140625,2.5201475620269775,1.8562064170837402,-0.22115325927734375
1725892261492413400,21.200413330078124,1.1648402214050293,0.8524408340454102,-1.0226716995239258
1725892261511262200,21.21926220703125,-0.4530491828918457,0.41603612899780273,-3.2412595748901367
1725892261530110700,21.23811083984375,-1.2432947158813477,0.19608116149902344,0.6872034072875977
1725892261548959200,21.256959228515626,-1.2805523872375488,-1.9484024047851562,3.056389808654785
1725892261567808000,21.27580810546875,-3.9123430252075195,-2.22218656539917,3.011697292327881
1725892261586656500,21.294656494140625,-2.7026753425598145,-2.2616705894470215,4.056268215179443
1725892261605505000,21.313505126953125,-2.418027400970459,-3.791123867034912,2.0286378860473633
1725892261624353500,21.332353515625,-3.256340503692627,-3.6843509674072266,2.438870906829834
1725892261643202300,21.351202392578124,-2.461589813232422,-4.735049247741699,4.231176376342773
1725892261662050800,21.37005078125,-2.4237914085388184,-5.764917850494385,2.9692630767822266
1725892261680899300,21.3888994140625,-0.80419921875,-4.482861518859863,1.8875598907470703
1725892261699748000,21.407748046875,-0.5279421806335449,-0.3190279006958008,-1.7038514614105225
1725892261718596600,21.4265966796875,0.41123437881469727,2.7931079864501953,-0.08429956436157227
1725892261737445400,21.4454453125,1.9317841529846191,2.141097068786621,0.7083926200866699
1725892261756294000,21.4642939453125,0.9140281677246094,0.8049530982971191,-3.150043487548828
1725892261775142400,21.483142333984375,0.24896574020385742,2.8544797897338867,-3.0913898944854736
1725892261793991200,21.5019912109375,1.3571879863739014,2.5022644996643066,0.27292633056640625
1725892261812839700,21.520839599609374,-0.39523935317993164,-0.013870716094970703,-0.475801944732666
1725892261831688200,21.539688232421874,-2.102360725402832,-1.5907721519470215,-0.5878598690032959
1725892261850537000,21.558536865234377,-0.6850380897521973,0.5060014724731445,0.5088272094726562
1725892261869385500,21.577385498046876,0.7849133014678955,-0.6134858131408691,-1.0592041015625
1725892261888234000,21.59623388671875,-0.36428213119506836,1.0012192726135254,0.4342494010925293
1725892261907082500,21.61508251953125,0.4011039733886719,0.5133776664733887,1.0399508476257324
1725892261925931300,21.63393115234375,-1.0579042434692383,-1.2812891006469727,-0.7378425598144531
1725892261944779800,21.65277978515625,-1.1689629554748535,-0.6402163505554199,0.4381279945373535
1725892261963628300,21.671628173828125,-1.5805444717407227,-1.4140958786010742,2.3526511192321777
1725892261982477000,21.69047705078125,-2.555098056793213,-2.431727409362793,3.0246381759643555
1725892262001325600,21.70932568359375,0.06483268737792969,-1.385622501373291,1.8525805473327637
1725892262020174000,21.728174072265624,0.4697575569152832,0.7045340538024902,0.05690288543701172
1725892262039022800,21.74702294921875,0.95703125,1.5412302017211914,-0.5562081336975098
1725892262057871400,21.765871337890626,0.8654732704162598,1.105210781097412,-1.0542504787445068
1725892262076720000,21.78472021484375,0.3874015808105469,0.17581987380981445,0.3515653610229492
1725892262095568600,21.803568603515625,-1.057908058166504,-1.362342357635498,1.0521965026855469
1725892262114417200,21.822417236328125,-0.5939836502075195,-2.88803768157959,2.431398868560791
1725892262133266000,21.841265869140624,1.5612707138061523,-3.725497245788574,0.07618045806884766
1725892262152114400,21.860114501953124,-0.4600372314453125,0.9356832504272461,0.5628561973571777
1725892262170963000,21.878962890625,3.497164487838745,-0.8628263473510742,1.600229263305664
1725892262189811500,21.8978115234375,2.2839035987854004,0.5866036415100098,-3.460726737976074
1725892262208660200,21.91666015625,-0.8635692596435547,3.642780303955078,-0.8865811824798584
1725892262227508700,21.9355087890625,0.5203242301940918,0.6194005012512207,-0.1179969310760498
1725892262246357500,21.954357421875,2.5123047828674316,-1.529611587524414,-1.037065029144287
1725892262265206000,21.9732060546875,1.512176513671875,0.5878434181213379,-1.1580276489257812
1725892262284054500,21.992054443359375,3.9163904190063477,1.527954339981079,-1.5880203247070312
1725892262302903300,22.0109033203125,2.690187931060791,2.354118824005127,-2.760559320449829
1725892262321751800,22.029751708984374,2.093738555908203,3.0167245864868164,-2.5028958320617676
1725892262340600300,22.048600341796874,-1.8690853118896484,2.906126022338867,-2.181356430053711
1725892262359449000,22.067448974609373,-2.102545738220215,-0.24881863594055176,1.7175230979919434
1725892262378297600,22.086297607421876,-1.2473077774047852,-0.3243892192840576,1.1417698860168457
1725892262397146000,22.10514599609375,-2.547273635864258,-0.7272367477416992,0.9726941585540771
1725892262415995000,22.123994873046875,-0.16861724853515625,-0.4912838935852051,1.3126249313354492
1725892262434843400,22.142843505859375,0.4717392921447754,0.8261635303497314,-0.8638031482696533
1725892262453692000,22.16169189453125,0.5592613220214844,2.616243839263916,-1.2785212993621826
1725892262472540700,22.180540771484374,0.3858642578125,2.690152406692505,-0.29106640815734863
1725892262491389200,22.19938916015625,1.6105690002441406,0.08213949203491211,-1.2764627933502197
1725892262510237700,22.21823779296875,2.558469295501709,2.8401172161102295,0.18546152114868164
1725892262529086500,22.23708642578125,2.8605713844299316,0.9219760894775391,-3.0030641555786133
1725892262547935000,22.25593505859375,2.6805005073547363,2.382253885269165,-4.880494117736816
1725892262566783500,22.274783447265627,1.7735576629638672,3.062364101409912,-2.391890287399292
1725892262585632300,22.29363232421875,2.4656476974487305,-0.09462881088256836,-1.8153343200683594
1725892262604480800,22.312480712890626,0.40099477767944336,0.43115758895874023,-3.1848480701446533
1725892262623329300,22.331329345703125,-2.6922569274902344,1.8346710205078125,2.5469589233398438
1725892262642178000,22.350177978515624,0.8851509094238281,-2.5995097160339355,3.941166877746582
1725892262661026600,22.369026611328124,-0.643648624420166,-2.5561394691467285,2.724822998046875
1725892262679875300,22.387875244140623,-0.5003986358642578,-1.7769412994384766,3.820908546447754
1725892262698723800,22.406723876953127,-0.5424599647521973,-3.6216554641723633,0.24170589447021484
1725892262717572400,22.425572265625,-1.064310073852539,-1.9250822067260742,0.12688064575195312
1725892262736421000,22.444421142578125,-1.5475349426269531,-1.9173874855041504,-0.32100677490234375
1725892262755269600,22.46326953125,-2.2536115646362305,-0.6814556121826172,0.7579264640808105
1725892262774118100,22.4821181640625,-0.5889978408813477,-1.008732795715332,1.4031858444213867
1725892262792967000,22.500966796875,-1.7624821662902832,-2.198983669281006,-0.8121087551116943
1725892262811815400,22.5198154296875,-1.0129542350769043,-0.5548801422119141,0.8827080726623535
1725892262830664000,22.538663818359375,0.4763031005859375,-3.0842971801757812,1.9833016395568848
1725892262849512700,22.5575126953125,-1.2013564109802246,-3.0383658409118652,-0.9117300510406494
1725892262868361200,22.576361328125,-0.3196704387664795,-1.159614086151123,1.365229606628418
1725892262887210000,22.5952099609375,0.9626078605651855,-1.0562663078308105,0.9792804718017578
1725892262906058500,22.61405859375,-0.41867685317993164,-0.3245968818664551,-2.6368191242218018
1725892262924907000,22.632906982421876,-0.1426229476928711,2.4725842475891113,1.0205411911010742
1725892262943755800,22.651755859375,0.39383459091186523,1.2504310607910156,-0.8906950950622559
1725892262962604300,22.670604248046875,-0.9886622428894043,-0.04764223098754883,-0.5853228569030762
1725892262981452800,22.689452880859374,-0.5441794395446777,-1.3517704010009766,0.11220502853393555
1725892263000301600,22.708301513671874,-1.1410441398620605,-0.9801578521728516,0.05834388732910156
1725892263019150000,22.727150146484377,-0.8868722915649414,-0.013526439666748047,1.5393548011779785
1725892263037998600,22.74599853515625,-0.8101139068603516,-0.32291698455810547,0.5422401428222656
1725892263056847400,22.764847412109376,-1.3112773895263672,0.34668827056884766,0.5688323974609375
1725892263075695900,22.78369580078125,-0.41042661666870117,-0.231964111328125,2.7290029525756836
1725892263094544600,22.802544677734375,-1.622584342956543,-1.7499561309814453,1.4774117469787598
1725892263113393200,22.82139306640625,-0.6976466178894043,-1.51893949508667,-0.471041202545166
1725892263132241700,22.84024169921875,0.7615938186645508,-2.234804153442383,1.533792495727539
1725892263151090400,22.85909033203125,-0.7715363502502441,-3.856213092803955,0.7937479019165039
1725892263169939000,22.87793896484375,-1.030442714691162,-1.889580249786377,1.408353328704834
1725892263188787500,22.896787353515624,1.175764560699463,-1.1742944717407227,2.171309471130371
1725892263207636200,22.91563623046875,1.75201416015625,-0.4803495407104492,-1.271958351135254
1725892263226484700,22.934484619140626,0.8985123634338379,2.4361283779144287,-2.851916551589966
1725892263245333500,22.95333349609375,-0.9619507789611816,2.8208539485931396,0.7228302955627441
1725892263264182000,22.97218212890625,-0.2806224822998047,-2.1765341758728027,0.8329005241394043
1725892263283030500,22.991030517578125,-0.3209085464477539,-4.197128772735596,0.23801374435424805
1725892263301879300,23.00987939453125,-0.1578378677368164,-1.9967312812805176,1.590989112854004
1725892263320727800,23.028727783203124,1.459179401397705,0.00264739990234375,0.7087860107421875
1725892263339576300,23.047576416015627,3.461338996887207,-0.7665553092956543,-2.029160261154175
1725892263358425000,23.066425048828126,-0.05176830291748047,3.440127372741699,-2.581845760345459
1725892263377273600,23.085273681640626,0.3813591003417969,2.5196657180786133,-0.1834239959716797
1725892263396122400,23.104122314453125,-0.07981395721435547,-1.3607115745544434,-0.08346247673034668
1725892263414971000,23.122970947265625,-0.009110450744628906,-2.757002115249634,1.5607049465179443
1725892263433819400,23.1418193359375,3.406811237335205,-0.7626419067382812,-0.5685760974884033
1725892263452668200,23.160668212890624,4.699591636657715,0.9288744926452637,-2.9134600162506104
1725892263471516700,23.1795166015625,4.02985954284668,3.611971855163574,-3.7167932987213135
1725892263490365400,23.198365478515626,1.7416915893554688,4.130431652069092,-4.494731426239014
1725892263509214000,23.2172138671875,1.0958518981933594,3.4842677116394043,-1.8191841840744019
1725892263528062500,23.2360625,0.08791732788085938,3.6112313270568848,-0.9898371696472168
1725892263546911200,23.2549111328125,-0.5688457489013672,2.056539297103882,-0.5161073207855225
1725892263565759700,23.273759765625,-0.44656848907470703,-0.43959498405456543,1.0416069030761719
1725892263584608500,23.2926083984375,1.293278694152832,-2.752899646759033,1.2790436744689941
1725892263603457000,23.31145703125,1.3981480598449707,-0.42252063751220703,0.3475170135498047
1725892263622305500,23.330305419921874,1.0780982971191406,-0.18412542343139648,-2.4875831604003906
1725892263641154300,23.349154296875,-0.12552881240844727,1.9525859355926514,-3.6533761024475098
1725892263660002800,23.3680029296875,-1.4779858589172363,3.2851686477661133,0.8197956085205078
1725892263678851600,23.3868515625,0.18279457092285156,-2.0183467864990234,1.1810030937194824
1725892263697700000,23.4057001953125,1.5668911933898926,-2.0485987663269043,0.5748257637023926
1725892263716548600,23.424548583984375,2.8877315521240234,-0.5132622718811035,-0.9072306156158447
1725892263735397400,23.4433974609375,3.1354453563690186,1.1085638999938965,-2.134061574935913
1725892263754246000,23.462245849609374,1.6943368911743164,3.0905497074127197,-2.852712392807007
1725892263773094700,23.4810947265625,1.4522323608398438,3.29010272026062,0.40672874450683594
1725892263791943200,23.499943115234377,0.8228964805603027,-1.501190185546875,0.08596420288085938
1725892263810791700,23.518791748046876,0.022935867309570312,-2.607640266418457,1.0691776275634766
1725892263829640400,23.537640380859376,-1.5449438095092773,-0.49616527557373047,2.350170612335205
1725892263848489000,23.556489013671875,-2.6665453910827637,-2.094168186187744,1.2126574516296387
1725892263867337700,23.575337646484375,-2.381129741668701,-4.39321231842041,3.206160068511963
1725892263886186200,23.594186279296874,-1.8908171653747559,-6.757023811340332,3.4899773597717285
1725892263905034800,23.61303466796875,-1.0699539184570312,-3.406106948852539,2.3964757919311523
1725892263923883500,23.631883544921877,0.4278378486633301,-1.7659173011779785,-0.0349726676940918
1725892263942732000,23.65073193359375,-0.5816044807434082,0.16930198669433594,0.056124210357666016
1725892263961580800,23.669580810546876,-1.1814851760864258,1.1387872695922852,1.1661534309387207
1725892263980429300,23.68842919921875,-0.2870669364929199,-0.5991387367248535,2.078662395477295
