time,seconds_elapsed,z,y,x
1725892240379764700,0.0877646484375,-3.5136942863464355,-0.5676460862159729,1.0721440315246582
1725892240398613000,0.106613037109375,-2.942535638809204,-5.110952854156494,-0.01763872057199478
1725892240417461200,0.125461181640625,-2.7812674045562744,-4.17083215713501,-0.4797579348087311
1725892240436309500,0.1443095703125,-2.0693044662475586,-2.0547964572906494,-0.8410844206809998
1725892240455157800,0.16315771484375,-1.0210604667663574,-0.39018988609313965,-0.8126792311668396
1725892240474006000,0.182006103515625,-0.39767298102378845,0.5816959738731384,-0.9287435412406921
1725892240492854000,0.20085400390625,-0.2984074354171753,0.836732029914856,-1.2448660135269165
1725892240511702300,0.219702392578125,-0.19944734871387482,0.23716825246810913,-1.2558616399765015
1725892240530550500,0.238550537109375,0.16065743565559387,0.027947064489126205,-0.7375428676605225
1725892240549398800,0.257398681640625,0.6096430420875549,0.6604975461959839,-0.022525638341903687
1725892240568247000,0.2762470703125,0.9941824078559875,1.3119847774505615,0.4466184973716736
1725892240587096000,0.295095947265625,1.0421353578567505,1.496466040611267,0.812526524066925
1725892240605943600,0.313943603515625,0.6582068204879761,1.1907281875610352,1.346727728843689
1725892240624791800,0.332791748046875,0.10659590363502502,0.9228639602661133,1.7905210256576538
1725892240643640000,0.35164013671875,-0.08032871782779694,0.9243911504745483,2.127107620239258
1725892240662488300,0.37048828125,0.03817904740571976,0.6885973215103149,2.102672815322876
1725892240681336300,0.38933642578125,0.3081812858581543,1.8993313312530518,2.756603717803955
1725892240700184600,0.4081845703125,0.8316923975944519,2.8962626457214355,3.24773907661438
1725892240719032800,0.42703271484375,1.3295471668243408,2.1137447357177734,3.180543899536133
1725892240737881000,0.445881103515625,1.8365650177001953,1.4066689014434814,2.983234405517578
1725892240756729300,0.464729248046875,3.018282890319824,-1.2322670221328735,2.946277141571045
1725892240775577600,0.48357763671875,3.50911283493042,-1.5599958896636963,3.513465166091919
1725892240794425900,0.50242578125,3.328296661376953,-1.6714787483215332,3.9951319694519043
1725892240813274000,0.521274169921875,3.1370961666107178,-2.6342015266418457,4.119748592376709
1725892240832122400,0.540122314453125,3.4009897708892822,-3.313788652420044,4.158232688903809
1725892240850970600,0.558970703125,4.071719169616699,-3.4387104511260986,4.511618137359619
1725892240869819000,0.57781884765625,4.616610527038574,-3.118617296218872,4.7947540283203125
1725892240888667100,0.596667236328125,5.17402458190918,-2.5712826251983643,4.81491231918335
1725892240907515400,0.615515380859375,5.439445495605469,-1.6855286359786987,4.701597213745117
1725892240926363400,0.63436328125,5.316661834716797,-1.1684316396713257,4.2220683097839355
1725892240945211600,0.653211669921875,5.188991069793701,-1.113759160041809,3.5485899448394775
1725892240964060000,0.672059814453125,4.9745774269104,-0.8248201608657837,2.8919103145599365
1725892240982908200,0.690908203125,4.470919132232666,-0.14706569910049438,2.462777614593506
1725892241001756400,0.70975634765625,3.6694648265838623,0.6214022040367126,1.9646174907684326
1725892241020604700,0.728604736328125,2.8600687980651855,1.1934770345687866,1.277089238166809
1725892241039453000,0.747452880859375,2.1523821353912354,0.9240856766700745,0.6197986602783203
1725892241058301200,0.76630126953125,1.426369309425354,-0.15745039284229279,0.23312127590179443
1725892241077149400,0.7851494140625,0.9330959320068359,-1.2661700248718262,0.26702427864074707
1725892241095997700,0.803997802734375,0.8261946439743042,-2.437197685241699,0.838182806968689
1725892241114846000,0.822845947265625,0.7870992422103882,-0.1357647031545639,1.282281517982483
1725892241133694200,0.841694091796875,0.1805105358362198,-0.0642935186624527,0.0193185992538929
1725892241152542500,0.86054248046875,-0.11484257876873016,0.10247256606817245,-0.8175661563873291
1725892241171390700,0.879390625,0.13958260416984558,0.3477347791194916,-0.8331431746482849
1725892241190239000,0.898239013671875,0.24801109731197357,-0.1305723488330841,-0.422947496175766
1725892241209087200,0.917087158203125,0.22327107191085815,-0.6739365458488464,0.6338485479354858
1725892241227935500,0.935935546875,0.7733548283576965,0.08384118974208832,2.128329277038574
1725892241246783700,0.95478369140625,1.0375537872314453,-0.7002037763595581,0.9460004568099976
1725892241265632000,0.973632080078125,0.043371398001909256,0.07681624591350555,0.1115591824054718
1725892241284480300,0.992480224609375,-1.4749330282211304,0.5569559335708618,-0.47517645359039307
1725892241303328500,1.01132861328125,-2.131612539291382,1.1033744812011719,-1.1648427248001099
1725892241322176500,1.030176513671875,-1.737910270690918,0.25732678174972534,-0.512133777141571
1725892241341025000,1.04902490234375,-1.1047489643096924,-1.0517563819885254,0.728532612323761
1725892241359873300,1.067873291015625,-0.5464185476303101,-0.49892380833625793,1.4325542449951172
1725892241378721500,1.086721435546875,-0.3035998046398163,-0.4909825623035431,1.0400736331939697
1725892241397569500,1.105569580078125,-0.6875283122062683,-0.42073312401771545,0.48479756712913513
1725892241416418000,1.12441796875,-0.7776308655738831,-1.2945752143859863,0.24656029045581818
1725892241435266300,1.143266357421875,-0.9743293523788452,-0.1568395346403122,0.8717803955078125
1725892241454114600,1.162114501953125,-0.46364638209342957,-0.4451677203178406,-0.020693045109510422
1725892241472962600,1.180962646484375,-0.6661480665206909,1.067333459854126,-0.8022945523262024
1725892241491811000,1.19981103515625,-0.2525925934314728,-1.3373357057571411,-0.8197041749954224
1725892241510659300,1.218659423828125,-0.9486730098724365,-1.0123556852340698,0.9139300584793091
1725892241529507600,1.237507568359375,-0.49021899700164795,-0.20021092891693115,2.2217915058135986
1725892241548355600,1.25635546875,-0.14630211889743805,-0.5395463109016418,-0.19784383475780487
1725892241567204000,1.2752041015625,-0.37720900774002075,0.006872228812426329,-1.6773582696914673
1725892241586052000,1.294052001953125,-0.562911868095398,0.15073087811470032,-0.41470083594322205
1725892241604900600,1.312900634765625,-0.4734202027320862,-0.4378373324871063,0.5083158612251282
1725892241623748900,1.331748779296875,-0.34788748621940613,0.2594648003578186,-0.8041270971298218
1725892241642597000,1.35059716796875,-0.2929096519947052,0.3987419903278351,-2.2405755519866943
1725892241661445400,1.3694453125,-0.25809037685394287,-0.4341721534729004,-1.251585602760315
1725892241680293600,1.388293701171875,-0.32192572951316833,-0.8413135409355164,0.05994110554456711
1725892241699142000,1.407141845703125,-0.23762640357017517,-0.0062613640911877155,-0.9272163510322571
1725892241717990100,1.425990234375,-0.13958260416984558,1.2499819993972778,-2.7854671478271484
1725892241736838400,1.44483837890625,0.23243404924869537,0.3868301212787628,-1.299233078956604
1725892241755686700,1.463686767578125,0.2611446976661682,0.13790272176265717,0.010461059398949146
1725892241774535000,1.482534912109375,0.3533852696418762,-0.4127918779850006,-0.16424626111984253
1725892241793383200,1.501383056640625,-0.4981602132320404,0.7936660647392273,-0.7537307739257812
1725892241812231400,1.5202314453125,-0.5369501113891602,0.22434009611606598,-1.0790163278579712
1725892241831079700,1.53907958984375,0.11392628401517868,0.28206682205200195,0.07307469844818115
1725892241849928000,1.557927978515625,0.1750127524137497,0.20570871233940125,-0.12545634806156158
1725892241868776200,1.576776123046875,0.2981020212173462,-0.1623373180627823,-0.28733551502227783
1725892241887624400,1.59562451171875,-0.16646064817905426,0.8156571984291077,-0.7506764531135559
1725892241906472700,1.61447265625,-0.4013381600379944,0.6357575058937073,-1.3594032526016235
1725892241925321000,1.633321044921875,0.06811141967773438,0.30344706773757935,-0.07383827865123749
1725892241944169200,1.652169189453125,-0.09987638890743256,0.10216713696718216,0.31864234805107117
1725892241963017500,1.671017578125,0.028405211865901947,-0.6498073935508728,0.07002037763595581
1725892241981865700,1.68986572265625,-0.18142683804035187,0.32268932461738586,-0.3462839722633362
1725892242000714200,1.70871435546875,-0.0769689604640007,0.9720385670661926,-0.845360517501831
1725892242019562500,1.7275625,0.2981020212173462,0.5404626131057739,0.02848157100379467
1725892242038410800,1.74641064453125,0.6160571575164795,-0.042913250625133514,1.2239439487457275
1725892242057259000,1.765259033203125,0.6288852691650391,-0.7845031023025513,1.727907419204712
1725892242076107300,1.784107177734375,0.189673513174057,1.0435097217559814,0.47380200028419495
1725892242094955500,1.80295556640625,-0.21197007596492767,1.7099632024765015,-1.105283498764038
1725892242113803800,1.8218037109375,-0.24342961609363556,0.6809614896774292,-0.6880627870559692
1725892242132652000,1.840652099609375,-1.2467750310897827,0.2747364342212677,-0.34292420744895935
1725892242151500300,1.859500244140625,-1.1814124584197998,0.38102689385414124,-0.9369902014732361
1725892242170348500,1.8783486328125,1.2253947257995605,-2.092364549636841,0.7725148797035217
1725892242189196800,1.89719677734375,0.8753692507743835,-1.8083124160766602,2.1206934452056885
1725892242208045000,1.916045166015625,-1.1921026706695557,-0.19104796648025513,-0.5148826241493225
1725892242226893600,1.9348935546875,-0.31123560667037964,-0.0383317656815052,-2.0924408435821533
1725892242245741800,1.953741943359375,-0.8524618148803711,0.7493783831596375,-1.3316088914871216
1725892242264590000,1.972590087890625,-1.6887357234954834,1.1027636528015137,0.2862665057182312
1725892242283438300,1.991438232421875,-1.711643099784851,1.3144283294677734,1.6845359802246094
1725892242302286600,2.01028662109375,-1.2748748064041138,0.04108065739274025,-0.7653372287750244
1725892242321134800,2.029134765625,-0.189673513174057,0.4497492015361786,-3.153207540512085
1725892242339983000,2.047983154296875,1.3087778091430664,0.2545779049396515,-3.1437392234802246
1725892242358831400,2.066831298828125,0.5873464941978455,0.21578797698020935,-1.3200024366378784
1725892242377679600,2.0856796875,-1.6985095739364624,0.06704241037368774,-0.8331431746482849
1725892242396528000,2.104528076171875,-0.9434806704521179,-0.3462076187133789,-1.2326487302780151
1725892242415376400,2.12337646484375,0.8726203441619873,-0.3254382014274597,-1.083903193473816
1725892242434224600,2.142224609375,0.639270007610321,0.2341139316558838,-2.150473117828369
1725892242453073000,2.161072998046875,0.14630211889743805,-0.6837103962898254,-1.8600069284439087
1725892242471921200,2.179921142578125,0.05100720748305321,-0.3764454126358032,-1.2775473594665527
1725892242490769400,2.198769287109375,0.7913753390312195,0.1513417512178421,-0.5979602336883545
1725892242509617700,2.21761767578125,-0.25045454502105713,0.037720900028944016,-0.9107230305671692
1725892242528466200,2.236466064453125,0.406530499458313,-1.4356849193572998,-0.062537282705307
1725892242547314200,2.255314208984375,0.027488915249705315,-0.8629992008209229,0.5660426020622253
1725892242566162700,2.27416259765625,0.5494728684425354,-1.2603667974472046,0.28290674090385437
1725892242585011000,2.293010986328125,0.49510589241981506,-0.541378915309906,1.3158791065216064
1725892242603859200,2.311859130859375,-1.6325361728668213,-1.3657408952713013,1.0773364305496216
1725892242622707500,2.33070751953125,-0.84177166223526,-1.4033091068267822,0.3827831447124481
1725892242641555700,2.3495556640625,0.6362156867980957,-1.2231040000915527,0.616744339466095
1725892242660404000,2.368404052734375,0.4419606626033783,0.39538222551345825,-0.24090979993343353
1725892242679252500,2.38725244140625,-0.7712168097496033,-0.016035201027989388,-1.5823688507080078
1725892242698100700,2.406100830078125,-0.40317076444625854,-0.6436987519264221,-1.6132174730300903
1725892242716949000,2.424948974609375,1.341153621673584,0.5328267812728882,0.45272716879844666
1725892242735797200,2.44379736328125,0.7751874327659607,1.1094831228256226,1.4392738342285156
1725892242754645500,2.4626455078125,-1.320078730583191,0.5404626131057739,-0.16699515283107758
1725892242773493800,2.48149365234375,-1.0558797121047974,-1.3791799545288086,-1.1355212926864624
1725892242792342300,2.50034228515625,1.747684121131897,0.03405570983886719,0.40752315521240234
1725892242811190500,2.5191904296875,1.1056652069091797,0.8177952170372009,1.3757438659667969
1725892242830038800,2.538038818359375,-2.522566080093384,-0.1568395346403122,-0.5726093649864197
1725892242848887000,2.556886962890625,-1.1264346837997437,-1.113759160041809,-0.5619192123413086
1725892242867735300,2.5757353515625,1.8585560321807861,0.8996511101722717,0.17020219564437866
1725892242886583600,2.59458349609375,0.6041452884674072,-0.09330959618091583,-0.5405389666557312
1725892242905432000,2.61343212890625,-1.7033964395523071,-0.827874481678009,-0.28061601519584656
1725892242924280300,2.6322802734375,0.4355465769767761,0.46288278698921204,0.5385536551475525
1725892242943128600,2.651128662109375,1.608101487159729,0.6143772602081299,-0.3551415205001831
1725892242961976800,2.669976806640625,-0.33658650517463684,-0.6678279042243958,0.2086866796016693
1725892242980832000,2.68883203125,-1.5580105781555176,0.6684387922286987,-0.44616037607192993
1725892242999673300,2.70767333984375,0.565049946308136,0.623845636844635,-2.228358268737793
1725892243018521900,2.72652197265625,1.2171480655670166,-0.9195042252540588,-1.1263582706451416
1725892243037370000,2.7453701171875,-1.053741693496704,-1.7469205856323242,0.026648975908756256
1725892243056218400,2.76421826171875,-0.5717694163322449,-0.569173276424408,-0.5927678942680359
1725892243075066600,2.783066650390625,1.165224552154541,-0.029474224895238876,0.8952987194061279
1725892243093915100,2.8019150390625,-0.26450446248054504,-0.9784526824951172,0.49396052956581116
1725892243112763400,2.820763427734375,0.3032943606376648,0.031001387163996696,-0.8236747980117798
1725892243131611600,2.839611572265625,0.5302306413650513,0.06582067906856537,-1.8316017389297485
1725892243150460000,2.8584599609375,0.22327107191085815,-0.11835505068302155,-2.3667192459106445
1725892243169308200,2.87730810546875,0.5845975875854492,0.8764382600784302,-1.693240761756897
1725892243188156700,2.89615673828125,0.14110976457595825,-0.14278964698314667,-1.3224458694458008
1725892243207005000,2.9150048828125,-0.4615083336830139,-0.45097091794013977,-1.4534764289855957
1725892243225853200,2.933853271484375,0.2877173125743866,-0.8764382600784302,-0.24640758335590363
1725892243244701400,2.952701416015625,1.1194096803665161,0.5450441241264343,0.6747764945030212
1725892243263549700,2.9715498046875,0.07147117704153061,0.5047270059585571,0.05658135190606117
1725892243282398200,2.990398193359375,-0.3692677617073059,-0.4757109582424164,-1.0750457048416138
1725892243301246500,3.00924658203125,0.14110976457595825,0.1928805559873581,-1.018846035003662
1725892243320094700,3.0280947265625,0.16859868168830872,0.39538222551345825,-1.2747983932495117
1725892243338943000,3.04694287109375,-0.1744018942117691,0.975703775882721,-1.517006278038025
1725892243357791500,3.06579150390625,-0.16554436087608337,-0.11377356201410294,-1.5988621711730957
1725892243376639700,3.0846396484375,0.620333194732666,0.7237220406532288,-1.0240384340286255
1725892243395488000,3.103488037109375,0.9465349912643433,-0.7029526233673096,-0.5283216834068298
1725892243414336300,3.122336181640625,1.293506145477295,-0.7704532146453857,-1.0512219667434692
1725892243433184800,3.141184814453125,1.1814124584197998,-0.597273051738739,-1.8771110773086548
1725892243452033000,3.160032958984375,0.5256491303443909,0.04566214233636856,-2.122678756713867
1725892243470881300,3.17888134765625,-0.003665188793092966,0.7279980778694153,-2.1345906257629395
1725892243489729500,3.1977294921875,-0.536644697189331,0.7154753804206848,-2.049985885620117
1725892243508578000,3.216578125,-0.5690205693244934,-0.4754055142402649,-1.9864559173583984
1725892243527426300,3.23542626953125,0.5158752799034119,0.5294670462608337,-0.4635699987411499
1725892243546274600,3.254274658203125,1.3402373790740967,0.3883572816848755,0.745942234992981
1725892243565122800,3.273122802734375,1.4233149290084839,-0.13484840095043182,0.6711113452911377
1725892243583971300,3.291971435546875,1.2214241027832031,-0.4033234715461731,0.17234022915363312
1725892243602819600,3.310819580078125,0.4764745235443115,-0.039858926087617874,1.4212533235549927
1725892243621667800,3.329667724609375,-0.5616901516914368,-0.9414953589439392,0.26366451382637024
1725892243640516400,3.348516357421875,0.015577051788568497,0.6534726023674011,0.5275580883026123
1725892243659364600,3.367364501953125,0.24404047429561615,0.4338667094707489,-0.3145190179347992
1725892243678212900,3.386212890625,0.36712974309921265,0.3630063831806183,0.4347066581249237
1725892243697061000,3.40506103515625,-0.43279770016670227,-0.755181610584259,1.0874156951904297
1725892243715909400,3.423909423828125,-0.19730933010578156,1.0279327630996704,0.9838740825653076
1725892243734758000,3.4427578125,0.33200499415397644,0.24510949850082397,-0.3698022663593292
1725892243753606100,3.461606201171875,0.7195987105369568,-0.16355904936790466,0.2554178237915039
1725892243772454400,3.480454345703125,0.25473061203956604,-0.37400195002555847,1.7899101972579956
1725892243791303000,3.499302978515625,-0.7348703145980835,-1.844353437423706,0.9429461359977722
1725892243810151200,3.518151123046875,0.4257727563381195,0.7179188132286072,1.3769655227661133
1725892243828999400,3.53699951171875,1.1850776672363281,1.530979871749878,1.0675625801086426
1725892243847848000,3.555847900390625,-0.23945899307727814,-3.112508773803711,0.7401390671730042
1725892243866696200,3.5746962890625,-1.7712024450302124,0.7108938694000244,2.6261839866638184
1725892243885544400,3.59354443359375,-2.6251914501190186,4.078591346740723,1.2022582292556763
1725892243904392700,3.612392822265625,-3.6780169010162354,-0.3663661479949951,-0.32704174518585205
1725892243923241200,3.6312412109375,-3.2565200328826904,-0.46746426820755005,1.7221041917800903
1725892243942089500,3.65008935546875,-2.914130449295044,-0.8083268404006958,3.4780349731445312
1725892243960937700,3.668937744140625,-3.3188283443450928,-0.6644681692123413,4.467330455780029
1725892243979786200,3.6877861328125,-4.417774200439453,-0.3633118271827698,4.270326614379883
1725892243998634500,3.706634521484375,-5.227169990539551,0.34406960010528564,3.4789512157440186
1725892244017482800,3.725482666015625,-4.861872673034668,1.0517563819885254,2.4334561824798584
1725892244036331300,3.744331298828125,-3.8069093227386475,2.8312056064605713,1.5852704048156738
1725892244055179500,3.763179443359375,-2.964526891708374,4.495506763458252,0.7651845216751099
1725892244074028000,3.782028076171875,-2.776991367340088,4.5404052734375,-0.20547963678836823
1725892244092876300,3.800876220703125,-2.5699081420898438,2.3290746212005615,-1.5359431505203247
1725892244111724500,3.819724609375,-1.7996076345443726,0.4326449930667877,-2.7362923622131348
1725892244130573000,3.838572998046875,-0.6875283122062683,0.03191768378019333,-3.5127015113830566
1725892244149421300,3.85742138671875,0.6356047987937927,0.24022257328033447,-4.129369735717773
1725892244168269600,3.87626953125,1.6218459606170654,0.2386954128742218,-4.815370559692383
1725892244187117800,3.895117919921875,1.830150842666626,0.3828594982624054,-5.467163562774658
1725892244205966300,3.91396630859375,1.8671082258224487,0.4283689260482788,-6.198674201965332
1725892244224814600,3.932814697265625,2.525925874710083,0.5673406720161438,-6.450961112976074
1725892244243663000,3.9516630859375,3.9669559001922607,0.9137009978294373,-6.650713920593262
1725892244262511400,3.970511474609375,6.122697830200195,1.5657991170883179,-6.492805480957031
1725892244281359600,3.989359619140625,7.46690559387207,1.0792453289031982,-5.569788932800293
1725892244300208000,4.0082080078125,7.887791633605957,-0.018784092739224434,-3.1461827754974365
1725892244319056400,4.027056396484375,7.363058567047119,0.7331904768943787,-0.7091376781463623
1725892244337904600,4.045904541015625,5.775421142578125,0.3782780170440674,0.5300015807151794
1725892244356753200,4.064753173828125,3.786445379257202,-2.74965500831604,0.5635991096496582
1725892244375601400,4.083601318359375,2.2812745571136475,-4.310719966888428,0.10331250727176666
1725892244394450000,4.102449951171875,1.6618576049804688,-5.381260395050049,-0.4284452795982361
1725892244413298200,4.121298095703125,1.4343105554580688,-5.052615165710449,-0.9705877900123596
1725892244432146400,4.140146484375,1.6881247758865356,-4.065152168273926,-1.3126720190048218
1725892244450995000,4.158994873046875,1.701563835144043,-2.497978687286377,-1.526780128479004
1725892244469843200,4.17784326171875,1.5845832824707031,-1.2838850021362305,-1.7347795963287354
1725892244488691500,4.19669140625,1.3356558084487915,-0.8132137656211853,-1.715842843055725
1725892244507540000,4.2155400390625,0.9169080257415771,-1.4060579538345337,-1.3871976137161255
1725892244526388200,4.23438818359375,0.535728394985199,-1.9967643022537231,-1.0426697731018066
1725892244545236700,4.25323681640625,0.22999058663845062,-2.3422083854675293,-0.881706953048706
1725892244564085000,4.2720849609375,-0.25961753726005554,-2.0807580947875977,-0.8765146136283875
1725892244582933200,4.290933349609375,-0.8051197528839111,-2.1369576454162598,-0.7732784748077393
1725892244601781800,4.30978173828125,-0.5955931544303894,-2.3596179485321045,-0.548480212688446
1725892244620630000,4.328630126953125,0.23487751185894012,-2.271653413772583,-0.09338594973087311
1725892244639478500,4.347478515625,0.7870992422103882,-2.0266966819763184,0.5110647678375244
1725892244658326800,4.366326904296875,0.694247841835022,-1.2399027347564697,1.0412954092025757
1725892244677175000,4.385175048828125,0.1539379209280014,-1.0844377279281616,1.320155143737793
1725892244696023600,4.4040234375,-0.4663952589035034,-0.9604321718215942,1.3207659721374512
1725892244714871800,4.422871826171875,-0.6444623470306396,-1.457370638847351,1.1142936944961548
1725892244733720300,4.44172021484375,-0.6169734001159668,-1.8049527406692505,0.7535780668258667
1725892244752568600,4.460568603515625,-0.5070177912712097,-1.6424627304077148,0.5596284866333008
1725892244771417000,4.4794169921875,-0.2715294063091278,-1.399949312210083,0.47410741448402405
1725892244790265300,4.498265380859375,-0.4987711012363434,-1.632077932357788,0.168675035238266
1725892244809113600,4.517113525390625,-0.6466003656387329,-2.2667665481567383,-0.1450040340423584
1725892244827962000,4.535962158203125,-0.6148353815078735,-2.400545835494995,-0.22960880398750305
1725892244846810400,4.554810302734375,-0.3634645342826843,-1.9008585214614868,0.019013166427612305
1725892244865659000,4.573658935546875,-0.272751122713089,-1.1577414274215698,0.464944452047348
1725892244884507100,4.592507080078125,-0.5992583632469177,-1.1748456954956055,0.8827759623527527
1725892244903355600,4.611355712890625,-1.1640028953552246,-1.1268928050994873,1.0861939191818237
1725892244922204000,4.630203857421875,-1.7272201776504517,-0.8101593852043152,1.155221700668335
1725892244941052400,4.649052490234375,-2.0748021602630615,-0.13912445306777954,1.0889428853988647
1725892244959900700,4.667900634765625,-1.9862267971038818,-0.5804742574691772,0.8497892618179321
1725892244978749000,4.6867490234375,-2.344499111175537,-0.7484620809555054,0.5190060138702393
1725892244997597400,4.705597412109375,-2.7256786823272705,-1.2331832647323608,0.3895026445388794
1725892245016445700,4.72444580078125,-2.492022752761841,-1.5147919654846191,0.1989128440618515
1725892245035294200,4.743294189453125,-1.5601485967636108,-1.7511966228485107,0.5635991096496582
1725892245054142500,4.762142578125,-0.8478803038597107,-2.188270330429077,1.5837433338165283
1725892245072991000,4.780990966796875,-0.6511818766593933,-2.709948778152466,1.9719479084014893
1725892245091839200,4.799839111328125,-0.5106829404830933,-2.0492985248565674,1.2511274814605713
1725892245110687700,4.818687744140625,-0.5021308660507202,-1.142469882965088,-0.1602756530046463
1725892245129536000,4.837535888671875,-0.13500112295150757,-0.7121156454086304,-0.512133777141571
1725892245148384500,4.856384521484375,0.235793799161911,-0.8281798958778381,0.24839289486408234
1725892245167232800,4.875232666015625,0.5610793232917786,-1.2289072275161743,1.0006728172302246
1725892245186081300,4.894081298828125,0.7971785664558411,-0.97600919008255,1.0660353899002075
1725892245204929500,4.912929443359375,1.045189619064331,-1.0254892110824585,0.581008791923523
1725892245223778000,4.931778076171875,1.1496474742889404,-0.6476693749427795,0.18791727721691132
1725892245242626300,4.950626220703125,0.9816597104072571,-0.11621702462434769,0.2144898921251297
1725892245261474600,4.969474609375,0.9224058389663696,-0.018173227086663246,0.6723330616950989
1725892245280323000,4.988322998046875,0.9245438575744629,-0.38102689385414124,0.8006146550178528
1725892245299171300,5.00717138671875,0.8848376274108887,-1.2502875328063965,0.9047670960426331
1725892245318019800,5.026019775390625,0.6502655744552612,-1.0795507431030273,0.98631751537323
1725892245336868000,5.0448681640625,0.7180715203285217,0.0019853105768561363,0.8412371873855591
1725892245355716600,5.063716552734375,2.283107042312622,2.1390957832336426,0.5153408050537109
1725892245374564900,5.08256494140625,3.034776210784912,2.081979990005493,0.6842449307441711
1725892245393413400,5.101413330078125,2.268446445465088,2.070984363555908,1.4087305068969727
1725892245412261600,5.12026171875,1.9022328853607178,1.308930516242981,1.5919899940490723
1725892245431110100,5.139110107421875,2.03112530708313,1.5178462266921997,1.728212833404541
1725892245449958400,5.15795849609375,2.2168283462524414,1.9213224649429321,1.6967532634735107
1725892245468807000,5.176806884765625,2.2262966632843018,2.039830207824707,1.7801363468170166
1725892245487655200,5.1956552734375,2.056781768798828,1.6720895767211914,1.4798963069915771
1725892245506503700,5.214503662109375,1.6575815677642822,1.004719853401184,1.3094650506973267
1725892245525352200,5.233352294921875,1.2580760717391968,0.43692103028297424,1.3027454614639282
1725892245544200400,5.252200439453125,0.7874047160148621,0.5560396909713745,1.0357975959777832
1725892245563049000,5.271049072265625,0.5516108870506287,0.5022835731506348,0.42157304286956787
1725892245581897200,5.289897216796875,0.34697118401527405,0.7591522336006165,0.6695841550827026
1725892245600745700,5.308745849609375,0.17531819641590118,0.6504182815551758,0.44784024357795715
1725892245619594000,5.327593994140625,-0.258395791053772,0.5545125007629395,0.23403756320476532
1725892245638442500,5.3464423828125,-0.22296564280986786,0.034666575491428375,0.663475513458252
1725892245657290800,5.365290771484375,-0.2672533392906189,0.5096139311790466,1.6970586776733398
1725892245676139300,5.38413916015625,-0.4621191918849945,1.6391029357910156,2.417879104614258
1725892245694987500,5.402987548828125,-0.5326740741729736,0.975092887878418,1.0333541631698608
1725892245713836000,5.4218359375,-0.25900667905807495,0.4647153913974762,0.17967060208320618
1725892245732684300,5.440684326171875,0.1496618688106537,-0.2811505198478699,0.4906007647514343
1725892245751532800,5.45953271484375,0.12614357471466064,-0.4271472096443176,0.9774600267410278
1725892245770381300,5.47838134765625,-0.014660755172371864,-0.5526798963546753,1.1097122430801392
1725892245789229600,5.4972294921875,0.010690134018659592,-1.0300707817077637,0.20715951919555664
1725892245808078000,5.516078125,-0.0030543238390237093,-0.6724094152450562,-0.21342088282108307
1725892245826926800,5.5349267578125,-0.04001164436340332,-0.027947064489126205,-0.06589704006910324
1725892245845774800,5.55377490234375,0.01588248461484909,0.2942841053009033,-0.24121522903442383
1725892245864623000,5.572623046875,0.06627883017063141,0.49831295013427734,-0.3285689055919647
1725892245883471600,5.5914716796875,0.01740964688360691,0.29214608669281006,-0.39362600445747375
1725892245902320000,5.610320068359375,0.03787361457943916,0.10430516302585602,-0.372245728969574
1725892245921168400,5.62916845703125,-0.027488915249705315,0.13301581144332886,-0.4223366379737854
1725892245940017000,5.648016845703125,0.2467893660068512,-0.005650499369949102,-0.3493382930755615
1725892245958865200,5.666865234375,0.1127045527100563,-0.7890845537185669,-0.38293585181236267
1725892245977713700,5.685713623046875,-0.23915356397628784,-1.7576106786727905,-0.7500655651092529
1725892245996562000,5.70456201171875,-0.7852666974067688,-1.8345797061920166,-0.6492729187011719
1725892246015410400,5.723410400390625,-0.8240565657615662,-1.4063634872436523,-0.5842158198356628
1725892246034259000,5.742259033203125,-0.40805765986442566,-0.28237223625183105,-0.9608139395713806
1725892246053107200,5.761107177734375,1.626121997833252,0.17394374310970306,-0.9250783324241638
1725892246071955700,5.779955810546875,0.5943714380264282,0.4021017551422119,-0.7323505282402039
1725892246090804000,5.798803955078125,0.462424635887146,-0.2600756883621216,-1.2772419452667236
1725892246109652500,5.817652587890625,0.3799578845500946,0.19929464161396027,-1.5796200037002563
1725892246128501000,5.8365009765625,0.7730493545532227,0.356286883354187,-1.217071771621704
1725892246147349200,5.855349365234375,0.44470956921577454,0.3321577310562134,-1.0420589447021484
1725892246166197800,5.87419775390625,0.5974257588386536,0.16752967238426208,-0.5713876485824585
1725892246185046300,5.89304638671875,0.7018836140632629,0.10247256606817245,-0.1755472719669342
1725892246203894500,5.91189453125,0.934012234210968,0.8852958083152771,-0.325514554977417
1725892246222743000,5.930742919921875,0.7006618976593018,1.1583523750305176,-0.3749946057796478
1725892246241591300,5.94959130859375,0.4477638900279999,1.0719150304794312,-0.2018144577741623
1725892246260439800,5.968439697265625,0.4663952589035034,0.9375247359275818,-0.5481747984886169
1725892246279288300,5.987288330078125,0.6160571575164795,0.9521854519844055,-0.6614902019500732
1725892246298136600,6.006136474609375,0.6991347670555115,-0.23594652116298676,-0.17676898837089539
1725892246316985000,6.024985107421875,1.156672477722168,-1.106734275817871,-0.46021026372909546
1725892246335833300,6.043833251953125,2.2736387252807617,0.18555018305778503,-0.8462768197059631
1725892246354681900,6.062681884765625,3.7119197845458984,1.0697768926620483,-0.8636864423751831
1725892246373530400,6.0815302734375,5.2485504150390625,2.238361358642578,-0.5616137981414795
1725892246392378600,6.100378662109375,5.145925045013428,2.914283037185669,-0.8456659317016602
1725892246411227100,6.11922705078125,3.5579819679260254,2.4683518409729004,0.04253146052360535
1725892246430075600,6.13807568359375,3.1725261211395264,1.0404554605484009,0.7288380265235901
1725892246448924000,6.156923828125,-3.1306819915771484,-0.05482511222362518,-0.34872743487358093
1725892246467772400,6.1757724609375,-1.5402956008911133,-0.6950113773345947,-0.11751510947942734
1725892246486621000,6.194620849609375,-1.4566071033477783,-0.02611446939408779,-0.18929173052310944
1725892246505469200,6.21346923828125,-2.1578798294067383,-0.9445496797561646,-0.24640758335590363
1725892246524317700,6.232317626953125,-2.975827693939209,-2.2655446529388428,-0.020082179456949234
1725892246543166200,6.251166259765625,-3.646862745285034,-2.992473840713501,-0.5032762289047241
1725892246562014500,6.270014404296875,-2.617555618286133,-2.8006622791290283,-0.8658244609832764
1725892246580863000,6.288863037109375,-2.0919065475463867,-2.6754350662231445,-0.7943533062934875
1725892246599711500,6.30771142578125,-2.794400930404663,-3.1552693843841553,-0.5683333277702332
1725892246618559700,6.326559814453125,-2.718959093093872,-3.3968663215637207,-0.5912407636642456
1725892246637408300,6.345408203125,-1.7800599336624146,-2.1717770099639893,-0.8084031939506531
1725892246656256800,6.3642568359375,-0.45448338985443115,-0.9317215085029602,-1.1269692182540894
1725892246675105000,6.38310498046875,-0.15149445831775665,-0.7933606505393982,-1.0863466262817383
1725892246693953500,6.40195361328125,-0.282524973154068,-1.178816318511963,-0.9085850119590759
1725892246712802000,6.420802001953125,-0.1331685185432434,-1.338557481765747,-0.8933134078979492
1725892246731650300,6.439650390625,0.14996729791164398,-1.3547453880310059,-0.9571487307548523
1725892246750498800,6.458498779296875,0.5787943601608276,-1.123227596282959,-0.7931315302848816
1725892246769347300,6.477347412109375,0.5711585879325867,-0.7133373618125916,-0.7409026026725769
1725892246788195600,6.496195556640625,0.8316923975944519,-0.4289797842502594,-0.704861581325531
1725892246807044000,6.515044189453125,1.1343759298324585,-1.003192663192749,-0.5038870573043823
1725892246825892600,6.533892578125,1.2009601593017578,-1.1711804866790771,0.23251040279865265
1725892246844740900,6.552740966796875,1.2718204259872437,-0.1256854236125946,-0.27695080637931824
1725892246863589400,6.57158935546875,0.8436042666435242,0.3251327872276306,-0.5771908760070801
1725892246882438000,6.59043798828125,0.3601047992706299,-0.006566796451807022,-0.5997928380966187
1725892246901286100,6.6092861328125,0.07055488228797913,-0.1461493968963623,-0.3401753306388855
1725892246920134700,6.628134765625,-0.1130099818110466,-0.26648977398872375,0.07185296714305878
1725892246938983200,6.646983154296875,-0.10903936624526978,-0.20601414144039154,0.4151589870452881
1725892246957831700,6.665831787109375,-0.17806708812713623,0.17119485139846802,0.6210203766822815
1725892246976680000,6.684679931640625,-0.09834922850131989,0.35353797674179077,0.4551706314086914
1725892246995528400,6.703528564453125,-0.24892739951610565,-0.050549060106277466,0.32994332909584045
1725892247014377000,6.722376953125,-0.30543237924575806,-0.28298309445381165,0.5012909173965454
1725892247033225200,6.74122509765625,-0.18234314024448395,-0.18555018305778503,0.6066650748252869
1725892247052073700,6.76007373046875,-0.3530798554420471,-0.16386447846889496,0.4307360351085663
1725892247070922200,6.778922119140625,0.026878049597144127,0.17302745580673218,0.3733147382736206
1725892247089770800,6.797770751953125,-0.06872228533029556,0.49800750613212585,0.34002259373664856
1725892247108619000,6.816618896484375,-0.36285367608070374,0.5532907843589783,0.23678645491600037
1725892247127467500,6.835467529296875,-0.24465134739875793,0.7374665141105652,0.32933247089385986
1725892247146316000,6.85431591796875,0.22510367631912231,1.2625048160552979,0.3271944522857666
1725892247165164500,6.87316455078125,0.037262752652168274,1.3031272888183594,0.3226129710674286
1725892247184012800,6.8920126953125,-0.0027488914784044027,1.2258528470993042,0.168675035238266
1725892247202861300,6.910861328125,0.23426663875579834,1.1772891283035278,-0.03535379841923714
1725892247221709800,6.929709716796875,0,0.8400917649269104,-0.3667479455471039
1725892247240558000,6.94855810546875,-0.49571678042411804,0.7759509682655334,-0.30688318610191345
1725892247259406600,6.967406494140625,-0.23854269087314606,0.34376415610313416,-0.12362375855445862
1725892247278255000,6.986255126953125,-0.029626941308379173,-0.2646571695804596,0.09903645515441895
1725892247297103600,7.005103515625,-0.023212861269712448,-0.03405570983886719,0.24900375306606293
1725892247315951900,7.023951904296875,0.1744018942117691,0.16661337018013,0.32383468747138977
1725892247334800400,7.04280029296875,0.6652317643165588,0.05299251899123192,0.5779544115066528
1725892247353649000,7.06164892578125,1.1294889450073242,-0.29153522849082947,0.674165666103363
1725892247372497400,7.080497314453125,1.0516036748886108,-0.7799215912818909,-0.22441644966602325
1725892247391346000,7.099345947265625,2.3854269981384277,-1.7188208103179932,0.48327040672302246
1725892247410194200,7.118194091796875,2.1142029762268066,-2.696815252304077,1.017166256904602
1725892247429042700,7.137042724609375,0.8023709058761597,-1.881921648979187,0.7175370454788208
1725892247447891200,7.15589111328125,0.5845975875854492,-0.31413722038269043,0.12469277530908585
1725892247466739700,7.17473974609375,0.4156934916973114,0.30711227655410767,0.487546443939209
1725892247485588000,7.193587890625,0.19089524447917938,0.23228132724761963,1.0990221500396729
1725892247504436500,7.2124365234375,0.6979129910469055,-0.10919208079576492,0.9065997004508972
1725892247523285000,7.231284912109375,0.6090322136878967,-1.3226749897003174,0.895604133605957
1725892247542133500,7.250133544921875,0.3329212963581085,-1.5123485326766968,0.8983530402183533
1725892247560982000,7.26898193359375,0.47433650493621826,-0.7985529899597168,0.6515636444091797
1725892247579830300,7.287830322265625,0.7706059217453003,-0.6220130324363708,0.7306706309318542
1725892247598678800,7.3066787109375,1.1508692502975464,0.11346813291311264,0.4652498960494995
1725892247617527300,7.32552734375,0.7556397318840027,0.490677148103714,0.23800818622112274
1725892247636375800,7.344375732421875,0.003970621153712273,0.7050906419754028,0.27343833446502686
1725892247655224000,7.36322412109375,-0.5271763205528259,1.87459135055542,-0.20731224119663239
1725892247674072600,7.382072509765625,-1.1389573812484741,2.182161808013916,-0.09705114364624023
1725892247692921000,7.400921142578125,-1.1462877988815308,2.0685408115386963,0.03672824427485466
1725892247711769600,7.41976953125,-0.6374374032020569,1.4637846946716309,-0.16210824251174927
1725892247730618000,7.4386181640625,-0.025045456364750862,0.7588467597961426,0.14393500983715057
1725892247749466600,7.457466552734375,0.2211330533027649,0.3877464234828949,0.40263625979423523
1725892247768315000,7.47631494140625,0.2657261788845062,-0.3657552897930145,0.6393463611602783
1725892247787163400,7.495163330078125,0.1328630894422531,-0.5917752385139465,0.6827177405357361
1725892247806012000,7.514011962890625,0.12736530601978302,-0.6391173005104065,0.6072759628295898
1725892247824860400,7.5328603515625,-0.4584540128707886,0.15989385545253754,0.16012293100357056
1725892247843709000,7.551708984375,-0.8836159110069275,-0.10125083476305008,-0.47731447219848633
1725892247862557200,7.57055712890625,-0.34086254239082336,0.07864884287118912,-1.075656533241272
1725892247881405700,7.58940576171875,-0.00946840364485979,1.0777181386947632,-0.7760273218154907
1725892247900254200,7.608254150390625,0.3170388340950012,-0.18310672044754028,-0.09185878932476044
1725892247919102700,7.627102783203125,0.6527090072631836,-0.02458730712532997,-0.2427423894405365
1725892247937951200,7.645951171875,0.33567020297050476,0.2835939824581146,-0.7008909583091736
1725892247956799700,7.6647998046875,-0.19181154668331146,0.16600249707698822,-0.8041270971298218
1725892247975648300,7.683648193359375,-0.46883872151374817,0.2893971800804138,-0.7583122849464417
1725892247994496500,7.70249658203125,-0.5699368119239807,-0.11621702462434769,-0.5906298756599426
1725892248013345000,7.721344970703125,-0.7431169748306274,-0.5933024287223816,-0.4440223276615143
1725892248032193500,7.740193603515625,-0.7806851863861084,-0.7887791395187378,-0.1764635592699051
1725892248051042000,7.7590419921875,-0.42852163314819336,-0.8507819175720215,-0.06864593178033829
1725892248069890600,7.777890625,-0.23457208275794983,-1.4909682273864746,0.15065452456474304
1725892248088739000,7.796739013671875,-0.15760311484336853,-1.2273800373077393,0.45242172479629517
1725892248107587600,7.815587646484375,-0.5797106623649597,-1.0306816101074219,0.19463679194450378
1725892248126435800,7.834435791015625,-0.924238383769989,-1.1479676961898804,-0.19387321174144745
1725892248145284400,7.853284423828125,-0.5445859432220459,-0.8058833479881287,-0.4330267608165741
1725892248164132900,7.8721328125,-0.1899789422750473,-0.9625701904296875,-0.5429824590682983
1725892248182981400,7.8909814453125,-0.21288637816905975,-0.625067412853241,-0.437302827835083
1725892248201830000,7.909829833984375,-0.0360410213470459,-0.32940882444381714,-0.4119519293308258
1725892248220678400,7.928678466796875,0.022296564653515816,-0.7145590782165527,0.007406735327094793
1725892248239527000,7.94752685546875,0.5033525824546814,-0.7863357067108154,0.8497892618179321
1725892248258375200,7.966375244140625,0.43340855836868286,-0.2487746775150299,-0.5087739825248718
1725892248277223700,7.9852236328125,0.37629270553588867,-0.9106466770172119,-1.1914154291152954
1725892248296072200,8.004072265625,0.23945899307727814,-0.6794343590736389,-1.0008255243301392
1725892248314920700,8.022920654296875,-0.10537417232990265,-0.40607234835624695,-0.8221476078033447
1725892248333769200,8.041769287109375,-0.37659814953804016,-0.12385283410549164,-0.9012545943260193
1725892248352617700,8.06061767578125,-0.2153298407793045,0.13881902396678925,-0.9754747152328491
1725892248371466200,8.07946630859375,-0.17043127119541168,0.07803797721862793,-0.9727258086204529
1725892248390314800,8.098314697265625,-0.30512696504592896,0.0206166859716177,-0.9061415195465088
1725892248409163300,8.117163330078125,-0.18112140893936157,-0.05971203371882439,-0.651105523109436
1725892248428011500,8.136011474609376,-0.21258094906806946,-0.4692968726158142,-0.6230056881904602
1725892248446860300,8.1548603515625,-0.3637699782848358,-0.44608399271965027,-0.733572244644165
1725892248465708500,8.17370849609375,-0.32131487131118774,-0.13271036744117737,-0.500832736492157
1725892248484557000,8.19255712890625,-0.3591884970664978,-0.4079049527645111,-0.16668972373008728
1725892248503405600,8.211405517578125,-0.9969313144683838,-1.0163263082504272,-0.9009491801261902
1725892248522254000,8.230254150390625,-0.8066469430923462,-1.2854121923446655,-0.9321032762527466
1725892248541102600,8.2491025390625,-0.4535670876502991,-0.9894482493400574,-0.8661298751831055
1725892248559951000,8.267951171875,-0.22174391150474548,-0.8245147466659546,-0.9357684850692749
1725892248578799600,8.286799560546875,-0.18845178186893463,-0.8428406715393066,-0.7503710389137268
1725892248597648100,8.305648193359374,-0.2733619809150696,-1.0285435914993286,-0.7369319796562195
1725892248616501800,8.324501708984375,-0.4266890585422516,-1.11345374584198,-0.7241038084030151
1725892248635345200,8.34334521484375,-0.5048797130584717,-0.8871283531188965,-0.7848848700523376
1725892248654193700,8.362193603515625,-0.5152644515037537,-0.4558578431606293,-0.7836631536483765
1725892248673042000,8.3810419921875,-0.430659681558609,0.04627300798892975,-0.547563910484314
1725892248691890400,8.399890380859375,-0.5378664135932922,0.3269653618335724,-0.5206858515739441
1725892248710739000,8.418739013671875,-0.5632173418998718,0.022449281066656113,-0.33284494280815125
1725892248729587500,8.43758740234375,-0.4260781705379486,-0.32879796624183655,-0.18959715962409973
1725892248748436000,8.45643603515625,-0.2464839369058609,-0.6180424690246582,-0.537790060043335
1725892248767284500,8.475284423828125,-0.28557929396629333,-0.5743656158447266,-0.04940368980169296
1725892248786133000,8.494133056640624,-0.27030766010284424,-0.13271036744117737,-0.10835213959217072
1725892248804981500,8.5129814453125,-0.231212317943573,0.17119485139846802,-0.07078395783901215
1725892248823830000,8.531830078125,-0.3494146466255188,0.004734201822429895,0.2722166180610657
1725892248842678500,8.550678466796874,-0.3295615613460541,0.19440771639347076,0.40782859921455383
1725892248861527000,8.569527099609376,-0.22266021370887756,0.7328850030899048,0.256334125995636
1725892248880375600,8.58837548828125,-0.2260199636220932,0.725860059261322,0.4658607542514801
1725892248899224000,8.60722412109375,-0.03787361457943916,1.0874919891357422,0.5529089570045471
1725892248918072600,8.626072509765624,-0.024434590712189674,0.9805907011032104,0.6927970051765442
1725892248936921000,8.644921142578125,-0.2412915825843811,0.6830995678901672,1.1057416200637817
1725892248955769600,8.66376953125,-0.005803215317428112,0.8706350326538086,1.1677443981170654
1725892248974618000,8.6826181640625,0.23823726177215576,1.2130247354507446,1.1317033767700195
1725892248993466600,8.701466552734376,0.4712821841239929,1.5462514162063599,1.2761728763580322
1725892249012315100,8.720315185546875,0.8087849617004395,1.632994294166565,1.1869865655899048
1725892249031163600,8.73916357421875,0.7880155444145203,1.1940879821777344,1.2486839294433594
1725892249050012200,8.75801220703125,0.8005383014678955,1.0945169925689697,1.4637084007263184
1725892249068860700,8.776860595703125,1.0213658809661865,0.8593340516090393,0.9820414781570435
1725892249087709200,8.795709228515625,0.9621120095252991,0.8807142972946167,0.9292016625404358
1725892249106557400,8.814557373046876,0.9541707634925842,1.1305580139160156,1.1393392086029053
1725892249125406200,8.83340625,1.01708984375,0.8504765033721924,1.0165553092956543
1725892249144254700,8.852254638671875,0.8555161356925964,0.845894992351532,1.2718968391418457
1725892249163103000,8.87110302734375,0.7235693335533142,1.1730130910873413,1.3891829252243042
1725892249181951700,8.88995166015625,0.8179479241371155,0.6513345837593079,1.1249839067459106
1725892249200800300,8.90880029296875,0.5958985686302185,0.4237874448299408,1.3161845207214355
1725892249219648500,8.9276484375,0.5497782826423645,0.28787001967430115,1.3717732429504395
1725892249238497000,8.9464970703125,0.5674933791160583,0.05482511222362518,1.2331069707870483
1725892249257345800,8.965345703125,0.695164144039154,0.16752967238426208,0.9365320801734924
1725892249276194300,8.9841943359375,0.7431169748306274,-0.27748534083366394,0.7984766364097595
1725892249295042600,9.00304248046875,0.6029235124588013,-0.0025961752980947495,0.9353103637695312
1725892249313891300,9.021891357421875,0.3634645342826843,0.30283620953559875,0.8094722032546997
1725892249332739800,9.04073974609375,0.37293294072151184,-0.16325360536575317,0.5290852785110474
1725892249351588400,9.05958837890625,0.20372340083122253,0.1049160286784172,0.562377393245697
1725892249370436600,9.0784365234375,0.27488914132118225,-0.024892739951610565,0.63568115234375
1725892249389285400,9.097285400390625,0.26450446248054504,-0.346513032913208,0.414242684841156
1725892249408134000,9.1161337890625,0.12186752259731293,-0.1101083755493164,0.31955865025520325
1725892249426982400,9.134982421875,-0.06963858753442764,-0.37033677101135254,0.30428701639175415
1725892249445831000,9.153830810546875,-0.20830489695072174,-0.10613775253295898,0.27343833446502686
1725892249464679400,9.172679443359375,-0.24037529528141022,0.06673697382211685,0.07918334752321243
1725892249483528000,9.19152783203125,-0.29443681240081787,-0.11743875592947006,-0.0475710928440094
1725892249502376400,9.21037646484375,-0.30634868144989014,-0.047494735568761826,-0.035964664071798325
1725892249521225000,9.229224853515625,-0.23793183267116547,-0.44608399271965027,-0.1404225379228592
1725892249540073500,9.248073486328124,-0.1487455666065216,-0.5096139311790466,-0.28519749641418457
1725892249558922000,9.266921875,-0.10476330667734146,-0.5273290276527405,-0.4159225523471832
1725892249577770500,9.2857705078125,-0.19730933010578156,-0.2594648003578186,-0.5988765358924866
1725892249596619000,9.304618896484374,-0.17104214429855347,-0.24052800238132477,-0.6541598439216614
1725892249615467500,9.323467529296876,-0.13500112295150757,-0.5297724604606628,-0.8597158193588257
1725892249634316000,9.34231591796875,-0.1288924664258957,-0.3312414288520813,-0.7717512845993042
1725892249653164500,9.36116455078125,-0.0870482325553894,-0.27840161323547363,-0.8484148383140564
1725892249672013000,9.380012939453126,-0.035124726593494415,-0.29703301191329956,-0.8581886291503906
1725892249690861600,9.398861572265625,-0.0030543238390237093,-0.22495095431804657,-0.5466476082801819
1725892249709710000,9.4177099609375,-0.07574722915887833,-0.08353576064109802,-0.5038870573043823
1725892249728558600,9.43655859375,-0.09437860548496246,0.2231183648109436,-0.5909352898597717
1725892249747407000,9.455406982421875,0.1539379209280014,-0.0539088174700737,-0.7723621726036072
1725892249766255600,9.474255615234375,0.19700388610363007,-0.14004075527191162,-0.8734602928161621
1725892249785104100,9.493104248046874,0.03298669680953026,0.12110394239425659,-0.6871465444564819
1725892249803953000,9.511952880859376,-0.044898562133312225,0.16783510148525238,-0.7696132659912109
1725892249822801400,9.530801513671875,0.0030543238390237093,0.03222311660647392,-1.0051016807556152
1725892249841650000,9.54964990234375,0.0461202897131443,-0.22220206260681152,-1.0386991500854492
1725892249860498400,9.56849853515625,-0.013133592903614044,-0.44577857851982117,-0.963257372379303
1725892249879347000,9.587346923828125,-0.06902772188186646,-0.43600472807884216,-0.9904409050941467
1725892249898195500,9.606195556640625,-0.16554436087608337,-0.521831214427948,-0.926910936832428
1725892249917044000,9.6250439453125,-0.12705987691879272,-0.2964221239089966,-0.7888554930686951
1725892249935892500,9.643892578125,-0.0308486707508564,-0.4949531853199005,-0.632168710231781
1725892249954741000,9.662740966796875,-0.013744457624852657,-0.6708822250366211,-0.6828704476356506
1725892249973589500,9.681589599609374,-0.021380268037319183,-0.5264127254486084,-0.6712640523910522
1725892249992438000,9.70043798828125,-0.15760311484336853,-0.8104648590087891,-0.6892845630645752
1725892250011286500,9.71928662109375,-0.337808221578598,-0.651029109954834,-0.769002377986908
1725892250030135300,9.73813525390625,-0.26419901847839355,-0.5025889873504639,-0.604374349117279
1725892250048983800,9.75698388671875,-0.1029307171702385,-0.6278162598609924,-0.8050433993339539
1725892250067832300,9.775832275390625,-0.2153298407793045,-0.6278162598609924,-1.0539708137512207
1725892250086680800,9.794680908203125,-0.3652971386909485,-0.6858484148979187,-1.0219004154205322
1725892250105529300,9.813529296875,-0.33322674036026,-0.6449204683303833,-0.9629519581794739
1725892250124377900,9.8323779296875,-0.11881320178508759,-0.4897608458995819,-0.871627688407898
1725892250143226400,9.851226318359375,-0.1081230640411377,-0.9808961153030396,-0.9953277707099915
1725892250162075000,9.870074951171874,-0.31581708788871765,-1.0056360960006714,-0.7827468514442444
1725892250180923400,9.88892333984375,-0.205861434340477,-0.5823068618774414,-0.8685733675956726
1725892250199772000,9.90777197265625,-0.18142683804035187,-0.9986112117767334,-0.9577596187591553
1725892250218620400,9.926620361328125,-0.1230892539024353,-0.5331322550773621,-0.6727911829948425
1725892250237469000,9.945468994140626,-0.19822561740875244,-0.46715885400772095,-0.7610611319541931
1725892250256317400,9.9643173828125,-0.3894262909889221,-0.4696022868156433,-0.6944769024848938
1725892250275166200,9.983166259765625,-0.476779967546463,-0.15867212414741516,-0.5781071782112122
1725892250294014700,10.0020146484375,-0.5400044918060303,-0.04566214233636856,-0.6291143894195557
1725892250312863200,10.02086328125,-0.31031930446624756,0.37400195002555847,-0.5732202529907227
1725892250331711700,10.039711669921875,-0.4657844007015228,-0.009010255336761475,-0.4235583543777466
1725892250350560300,10.058560302734374,-0.3484983444213867,0.40485063195228577,0.20013457536697388
1725892250369408800,10.07740869140625,-0.11484257876873016,0.5899426341056824,0.030925029888749123
1725892250388257300,10.09625732421875,-0.3176496922969818,0.42134398221969604,0.36170831322669983
1725892250407105800,10.115105712890625,-0.21960589289665222,0.596662163734436,0.7233402729034424
1725892250425954600,10.13395458984375,-0.1695149689912796,0.5661189556121826,0.7575486898422241
1725892250444803000,10.152802978515625,-0.12034036219120026,0.8736893534660339,1.0608429908752441
1725892250463651600,10.171651611328125,0.3084867000579834,1.4897464513778687,0.8803325295448303
1725892250482500000,10.1905,0.18600831925868988,1.4992148876190186,1.1656063795089722
1725892250501348600,10.2093486328125,0.34666576981544495,1.4033091068267822,1.3259583711624146
1725892250520197000,10.228197021484375,0.4831940531730652,1.2078323364257812,1.2172244787216187
1725892250539045600,10.247045654296874,0.508544921875,1.4274382591247559,1.2343286275863647
1725892250557894100,10.26589404296875,0.5696313977241516,0.8895718455314636,1.1970659494400024
1725892250576742700,10.28474267578125,0.41386088728904724,0.9057597517967224,1.3583341836929321
1725892250595591400,10.30359130859375,0.5549706816673279,0.5193877816200256,1.2969422340393066
1725892250614440000,10.32243994140625,0.6447677612304688,0.4604393243789673,1.2321906089782715
1725892250633288400,10.341288330078125,0.7363975048065186,0.6549997329711914,1.088331937789917
1725892250652137000,10.360136962890625,0.8310815095901489,0.16569706797599792,1.0483202934265137
1725892250670985500,10.3789853515625,0.5711585879325867,0.16294817626476288,1.3094650506973267
1725892250689834000,10.397833984375,0.5949822664260864,0.3168860971927643,1.227914571762085
1725892250708682500,10.4166826171875,0.6985238790512085,0.2341139316558838,0.9600503444671631
1725892250727531300,10.43553125,0.4584540128707886,-0.12996147572994232,1.1518619060516357
1725892250746379800,10.4543798828125,0.2006690800189972,0.3092502951622009,1.3073270320892334
1725892250765228300,10.473228271484375,0.1328630894422531,0.3251327872276306,1.3030508756637573
1725892250784076800,10.492076904296875,0.26419901847839355,-0.07101303339004517,1.0000619888305664
1725892250802925300,10.51092529296875,0.31093016266822815,-0.020922118797898293,0.9469167590141296
1725892250821773800,10.52977392578125,0.2724456787109375,-0.11957678198814392,1.0541235208511353
1725892250840622600,10.54862255859375,0.10048725455999374,0.21639885008335114,0.9368374943733215
1725892250859471000,10.56747119140625,0.007941242307424545,0.05177079141139984,0.7828995585441589
1725892250878319600,10.586319580078126,-0.01588248461484909,0.05085449293255806,0.4918225109577179
1725892250897168100,10.605168212890625,-0.07422006875276566,-0.14248420298099518,0.4059959948062897
1725892250916016600,10.6240166015625,-0.1380554437637329,0.019394956529140472,0.22273656725883484
1725892250934865200,10.642865234375,-0.1698204129934311,0.057268574833869934,0.18700097501277924
1725892250953713700,10.661713623046875,-0.29474225640296936,-0.025503603741526604,-0.08666644245386124
1725892250972562400,10.6805625,-0.258395791053772,0.050549060106277466,-0.1608865112066269
1725892250991411000,10.699410888671874,-0.22418737411499023,-0.12140937149524689,-0.19540037214756012
1725892251010259500,10.718259521484375,-0.19639302790164948,0.14950916171073914,-0.3707185685634613
1725892251029108000,10.73710791015625,-0.12095122784376144,0.03436114266514778,-0.36216646432876587
1725892251047956500,10.75595654296875,-0.09590577334165573,0.027336198836565018,-0.45562875270843506
1725892251066805000,10.774804931640626,0.02107483521103859,-0.02458730712532997,-0.3951531648635864
1725892251085653500,10.793653564453125,-0.01649334840476513,0.04230238497257233,-0.50144362449646
1725892251104502300,10.812502197265625,-0.03543015569448471,0.02367101050913334,-0.5891027450561523
1725892251123350800,10.831350830078126,-0.10079269111156464,0.01695149764418602,-0.6471349000930786
1725892251142199300,10.85019921875,-0.08582650125026703,-0.02519817277789116,-0.8175661563873291
1725892251161047800,10.8690478515625,-0.032681263983249664,-0.1302669197320938,-0.9061415195465088
1725892251179896300,10.887896240234374,-0.07391463965177536,0.16294817626476288,-0.9305761456489563
1725892251198745000,10.9067451171875,-0.07360920310020447,-0.1153007298707962,-0.8988111615180969
1725892251217593600,10.925593505859375,-0.1640172004699707,-0.19165882468223572,-0.8206204771995544
1725892251236442000,10.944442138671874,-0.1383608728647232,0.01206457894295454,-0.9977712631225586
1725892251255290600,10.96329052734375,0.011911863461136818,-0.16814053058624268,-1.1654536724090576
1725892251274139100,10.98213916015625,0.008246674202382565,-0.22769984602928162,-0.973031222820282
1725892251292987600,11.000987548828125,0.016187917441129684,-0.5905535221099854,-1.0286198854446411
1725892251311836400,11.01983642578125,-0.06566796451807022,-0.295811265707016,-1.139797329902649
1725892251330685000,11.038684814453125,-0.12034036219120026,-0.4234820008277893,-0.9437097311019897
1725892251349533400,11.057533447265625,-0.07544180005788803,-0.6870701313018799,-0.8520799875259399
1725892251368382000,11.0763818359375,-0.04428769648075104,-0.7163916826248169,-0.7299070358276367
1725892251387230500,11.09523046875,-0.027488915249705315,-0.8862120509147644,-0.7189114689826965
1725892251406079000,11.114078857421875,-0.1230892539024353,-0.5548179149627686,-0.7323505282402039
1725892251424927700,11.132927734375,-0.2003636509180069,-0.8794925808906555,-0.7201332449913025
1725892251443776300,11.1517763671875,-0.37201663851737976,-1.0902409553527832,-0.8004619479179382
1725892251462624800,11.170624755859375,-0.38759371638298035,-1.1073451042175293,-0.7024181485176086
1725892251481473300,11.189473388671875,-0.3448331654071808,-1.2316560745239258,-0.7561742663383484
1725892251500321800,11.20832177734375,-0.34208428859710693,-1.179121732711792,-0.7760273218154907
1725892251519170300,11.22717041015625,-0.2822195291519165,-1.0890191793441772,-0.7234929800033569
1725892251538018800,11.246018798828125,-0.4428769648075104,-1.2563961744308472,-0.8609375357627869
1725892251556867600,11.26486767578125,-0.5500837564468384,-1.0300707817077637,-0.7234929800033569
1725892251575716000,11.283716064453126,-0.4633409380912781,-0.607046902179718,-0.715246319770813
1725892251594564600,11.302564697265625,-0.33658650517463684,-0.4243983030319214,-0.8126792311668396
1725892251613413000,11.3214130859375,-0.4575377106666565,-0.8904881477355957,-0.7647263407707214
1725892251632261600,11.34026171875,-0.555276095867157,-0.6256782412528992,-0.631557822227478
1725892251651110400,11.3591103515625,-0.6258309483528137,-0.1455385386943817,-0.8025999665260315
1725892251669959000,11.377958984375,-0.6212494969367981,0.0591011680662632,-0.8578832149505615
1725892251688807400,11.396807373046874,-0.526565432548523,0.34315329790115356,-0.6248382925987244
1725892251707656000,11.415656005859375,-0.5632173418998718,0.41645705699920654,-0.4482983946800232
1725892251726504400,11.43450439453125,-0.35735589265823364,0.4793761372566223,-0.24701844155788422
1725892251745353200,11.453353271484374,-0.23182319104671478,0.5636754631996155,-0.07536543905735016
1725892251764201700,11.47220166015625,-0.2571740746498108,0.5948295593261719,0.1320231556892395
1725892251783050200,11.49105029296875,-0.26358816027641296,0.5303833484649658,0.3473529815673828
1725892251801898800,11.509898681640625,-0.19394956529140472,0.8202387094497681,0.4802160859107971
1725892251820747300,11.528747314453126,-0.08643736690282822,1.0554215908050537,0.627434492111206
1725892251839595800,11.547595703125,0.005192350596189499,1.254258155822754,0.9172898530960083
1725892251858444500,11.566444580078125,0.27397283911705017,1.4735585451126099,0.96890789270401
1725892251877293000,11.58529296875,0.07330377399921417,1.0648900270462036,1.3870447874069214
1725892251896141600,11.6041416015625,0.3277289569377899,1.0514509677886963,1.3897937536239624
1725892251914990000,11.622989990234375,0.6227766275405884,1.326951026916504,1.1304816007614136
1725892251933838600,11.641838623046874,0.6258309483528137,1.5010474920272827,1.284114122390747
1725892251952687400,11.660687255859376,0.879339873790741,1.307403326034546,1.2303580045700073
1725892251971536000,11.679535888671875,0.9782999157905579,0.9472985863685608,1.0370193719863892
1725892251990384400,11.69838427734375,0.9837977290153503,1.1027636528015137,1.1200969219207764
1725892252009233000,11.71723291015625,0.9660826325416565,0.6537780165672302,1.1295653581619263
1725892252028081400,11.736081298828125,0.8567378520965576,0.624456524848938,1.0635919570922852
1725892252046930200,11.75493017578125,0.9040798544883728,0.634230375289917,0.9466113448143005
1725892252065778700,11.77377880859375,1.1065815687179565,0.4970912039279938,0.7328086495399475
1725892252084627200,11.792627197265626,0.9370665550231934,0.2338084876537323,0.9444733262062073
1725892252103475700,11.811475830078125,0.7849612236022949,0.06490438431501389,1.0165553092956543
1725892252122324500,11.830324462890625,0.6539307236671448,0.4656316637992859,0.9585232138633728
1725892252141173000,11.849173095703126,0.7721330523490906,-0.023365577682852745,0.8739184141159058
1725892252160021500,11.868021484375,0.5867356061935425,0.004123337101191282,0.9414190053939819
1725892252178870000,11.8868701171875,0.4514290690422058,0.04627300798892975,1.2208895683288574
1725892252197718500,11.905718505859374,0.27977606654167175,-0.3068068325519562,0.8568142056465149
1725892252216567300,11.9245673828125,0.25534147024154663,0.08292489498853683,0.8394045829772949
1725892252235415800,11.943415771484375,0.17837251722812653,-0.08261945843696594,0.6717221736907959
1725892252254264300,11.962264404296874,0.12400554865598679,0.08872810751199722,0.5177842378616333
1725892252273112800,11.98111279296875,0.030543239787220955,-0.15561780333518982,0.6179660558700562
1725892252291961600,11.999961669921875,-0.0204639695584774,0.10125083476305008,0.35957029461860657
1725892252310810000,12.01881005859375,-0.1285870373249054,-0.1565341055393219,0.1738673895597458
1725892252329658600,12.03765869140625,-0.2987128794193268,-0.1049160286784172,-0.114460788667202
1725892252348507100,12.056507080078125,-0.27397283911705017,-0.09239330142736435,-0.01977674663066864
1725892252367356000,12.07535595703125,-0.2837466895580292,0.011759147047996521,-0.1196531355381012
1725892252386204400,12.094204345703124,-0.32009315490722656,0.049021899700164795,-0.21372631192207336
1725892252405053000,12.113052978515626,-0.2889390289783478,-0.10858121514320374,-0.29100072383880615
1725892252423901400,12.1319013671875,-0.27091851830482483,0.07773254066705704,-0.367053359746933
1725892252442750000,12.15075,-0.08643736690282822,-0.2136499583721161,-0.3856847584247589
1725892252461598700,12.1695986328125,-0.008552107028663158,-0.2133445292711258,-0.37774351239204407
1725892252480447200,12.188447265625,-0.056810423731803894,-0.1821904182434082,-0.4376082420349121
1725892252499295700,12.207295654296875,-0.1585194170475006,-0.1415679156780243,-0.6700422763824463
1725892252518144300,12.226144287109374,-0.21410810947418213,-0.03497200831770897,-0.7308233380317688
1725892252536992800,12.24499267578125,0.05558869615197182,-0.4247037470340729,-0.7836631536483765
1725892252555841500,12.263841552734375,-0.0412333719432354,-0.09605848789215088,-0.6706531643867493
1725892252574690000,12.28268994140625,-0.08491020649671555,-0.2652680277824402,-0.5970439910888672
1725892252593538600,12.30153857421875,-0.26542073488235474,-0.26160284876823425,-0.5891027450561523
1725892252612387000,12.320386962890625,-0.2510654330253601,-0.011148282326757908,-0.8639918565750122
1725892252631235600,12.339235595703125,-0.027488915249705315,-0.20021092891693115,-1.1294126510620117
1725892252650084400,12.35808447265625,0.006414080038666725,-0.1974620372056961,-0.8090140223503113
1725892252668932900,12.376932861328125,-0.03237583488225937,-0.5984947681427002,-0.6990583539009094
1725892252687781400,12.395781494140625,-0.16279546916484833,-0.3452913165092468,-0.8306997418403625
1725892252706630000,12.4146298828125,-0.13072505593299866,-0.4549415409564972,-0.8267291188240051
1725892252725478400,12.433478515625,-0.11331541836261749,-0.3825540542602539,-0.7497601509094238
1725892252744327200,12.4523271484375,-0.06811141967773438,-0.4839576184749603,-0.7051670551300049
1725892252763175700,12.47117578125,-0.14538581669330597,-0.6821832656860352,-0.8423061966896057
1725892252782024200,12.490024169921876,-0.3802633285522461,-0.4641045033931732,-0.7534253597259521
1725892252800872700,12.508872802734375,-0.3695732057094574,-0.6476693749427795,-0.651105523109436
1725892252819721500,12.527721435546875,-0.2712239623069763,-0.6876810193061829,-0.6843976378440857
1725892252838570000,12.546570068359374,-0.4108065664768219,-0.9078977704048157,-0.685924768447876
1725892252857418500,12.56541845703125,-0.5412262082099915,-1.0560325384140015,-0.6327795386314392
1725892252876267000,12.58426708984375,-0.47555822134017944,-0.9014837145805359,-0.5955168008804321
1725892252895115800,12.60311572265625,-0.3078758418560028,-0.7496837973594666,-0.6055960655212402
1725892252913964300,12.62196435546875,-0.2409861534833908,-0.919198751449585,-0.7167734503746033
1725892252932812800,12.640812744140625,-0.3032943606376648,-1.047785758972168,-0.7778599262237549
1725892252951661300,12.659661376953125,-0.4202749729156494,-0.9280562996864319,-0.6178133487701416
1725892252970510000,12.678510009765626,-0.33658650517463684,-0.43233954906463623,-0.5613083839416504
1725892252989358600,12.697358642578125,-0.2202167510986328,-0.1931859850883484,-0.7543416619300842
1725892253008207000,12.71620703125,-0.31581708788871765,-0.5254964232444763,-0.8868992924690247
1725892253027055600,12.7350556640625,-0.47525280714035034,-0.57008957862854,-0.7854957580566406
1725892253045904100,12.753904052734375,-0.44379326701164246,-0.08231402933597565,-0.7073050737380981
1725892253064753000,12.7727529296875,-0.32650721073150635,0.39477136731147766,-0.8746820092201233
1725892253083601400,12.791601318359374,-0.32100942730903625,0.10125083476305008,-0.8646027445793152
1725892253102450000,12.810449951171876,-0.4862483739852905,0.1571449637413025,-0.437302827835083
1725892253121298400,12.82929833984375,-0.30604326725006104,0.46227192878723145,-0.28183773159980774
1725892253140147200,12.848147216796875,-0.1945604383945465,0.3556760251522064,-0.22441644966602325
1725892253158995700,12.86699560546875,-0.1487455666065216,0.5236638188362122,0.249920055270195
1725892253177844200,12.88584423828125,0.015577051788568497,0.3727802336215973,0.2645808160305023
1725892253196692700,12.904692626953125,-0.15149445831775665,0.14462223649024963,0.7233402729034424
1725892253215541500,12.92354150390625,0.27947062253952026,0.36453354358673096,0.7712931632995605
1725892253234390000,12.94239013671875,0.4248564541339874,0.9045380353927612,0.5394699573516846
1725892253253238500,12.961238525390625,0.5537489056587219,1.4350740909576416,0.7254782915115356
1725892253272087000,12.980087158203125,0.6368265151977539,1.2875502109527588,0.8986584544181824
1725892253290935800,12.998935791015626,0.5012145638465881,1.335808515548706,1.1762964725494385
1725892253309784300,13.017784423828125,0.7153226733207703,1.2658644914627075,0.940197229385376
1725892253328632800,13.0366328125,0.7092140316963196,1.4595086574554443,0.996702253818512
1725892253347481300,13.0554814453125,0.5604684352874756,1.226769208908081,1.3491712808609009
1725892253366329900,13.074329833984375,0.5204567909240723,0.7502946853637695,1.522656798362732
1725892253385178600,13.0931787109375,0.6725621223449707,0.6669116020202637,1.265788197517395
1725892253404027100,13.112027099609374,0.7156280875205994,0.49800750613212585,1.3348158597946167
1725892253422875600,13.130875732421876,0.7156280875205994,0.5206094980239868,1.3894883394241333
1725892253441724200,13.14972412109375,0.8753692507743835,0.14340050518512726,1.2273037433624268
1725892253460572700,13.16857275390625,0.8127555847167969,0.2649625837802887,1.1628574132919312
1725892253479421400,13.18742138671875,0.6927206516265869,0.018784092739224434,1.2566251754760742
1725892253498270000,13.20627001953125,0.7168498039245605,-0.0487164668738842,1.1231513023376465
1725892253517118500,13.225118408203125,0.7953459620475769,-0.03497200831770897,1.0767254829406738
1725892253535967000,13.243967041015624,0.7565560340881348,-0.19379685819149017,1.089859127998352
1725892253554815700,13.262815673828126,0.39217519760131836,0.05085449293255806,1.1213186979293823
1725892253573664300,13.281664306640625,0.3225366175174713,0.10766492038965225,1.0083086490631104
1725892253592512800,13.3005126953125,0.4050033390522003,-0.434783011674881,0.7774018049240112
1725892253611361500,13.319361572265626,0.06230820715427399,-0.09361502528190613,0.7489965558052063
1725892253630210000,13.3382099609375,-0.15179990231990814,0.2897026240825653,0.7129555344581604
1725892253649058600,13.35705859375,-0.14599667489528656,-0.04841103404760361,0.48479756712913513
1725892253667907000,13.375906982421874,-0.16523891687393188,-0.32788166403770447,0.42859798669815063
1725892253686755600,13.394755615234375,-0.3347539007663727,0.04810560122132301,0.3424660563468933
1725892253705604400,13.413604248046875,-0.3436114490032196,0.052687086164951324,0.2407570779323578
1725892253724452900,13.432452880859374,-0.3393353819847107,-0.42592546343803406,0.20105087757110596
1725892253743301400,13.45130126953125,-0.3808741867542267,0.04932733252644539,0.0193185992538929
1725892253762150000,13.47014990234375,-0.3796524703502655,0.20662501454353333,-0.15905392169952393
1725892253780998700,13.48899853515625,-0.324063777923584,-0.02367101050913334,-0.3154352903366089
1725892253799847200,13.50784716796875,-0.231212317943573,0.12140937149524689,-0.3615556061267853
1725892253818695700,13.52669580078125,-0.1588248461484909,-0.1360701322555542,-0.4522690176963806
1725892253837544200,13.545544189453125,-0.21319180727005005,0.1516471803188324,-0.632168710231781
1725892253856393000,13.56439306640625,-0.24740023910999298,0.05696314200758934,-0.7525090575218201
1725892253875241500,13.583241455078126,-0.20952661335468292,-0.15012001991271973,-0.8749874234199524
1725892253894090000,13.602090087890625,-0.16310089826583862,0.05971203371882439,-0.9021708965301514
1725892253912938500,13.6209384765625,-0.24006985127925873,0.019394956529140472,-1.056108832359314
1725892253931787300,13.639787353515626,-0.3078758418560028,0.17363831400871277,-1.1562906503677368
1725892253950635800,13.6586357421875,-0.20341797173023224,-0.1204930767416954,-1.1471277475357056
1725892253969484300,13.677484375,-0.1127045527100563,-0.19074252247810364,-1.077183723449707
1725892253988332800,13.696332763671874,-0.06750056147575378,0.0206166859716177,-0.9482911825180054
1725892254007181300,13.715181396484375,0.023212861269712448,-0.13240493834018707,-1.0264818668365479
1725892254026030000,13.734030029296875,0.04520399495959282,-0.4338667094707489,-1.0887900590896606
1725892254044878600,13.752878662109374,0.013744457624852657,-0.39507678151130676,-1.2271510362625122
1725892254063727000,13.77172705078125,0.018325943499803543,-0.23991714417934418,-1.3206132650375366
1725892254082575600,13.79057568359375,0.02932151034474373,-0.4799869954586029,-1.0887900590896606
1725892254101424400,13.80942431640625,0.021991131827235222,-0.8165735006332397,-1.0713804960250854
1725892254120273000,13.82827294921875,-0.04825831577181816,-0.679739773273468,-0.9876919984817505
1725892254139121400,13.847121337890625,-0.07360920310020447,-0.7799215912818909,-0.8679624795913696
1725892254157970200,13.86597021484375,-0.08613193035125732,-0.8657481074333191,-0.8826232552528381
1725892254176818700,13.884818603515624,-0.20830489695072174,-0.9680679440498352,-0.7754164934158325
1725892254195667200,13.903667236328126,-0.2922987937927246,-1.0096067190170288,-0.9614248275756836
1725892254214515700,13.922515625,-0.45509424805641174,-0.9411898851394653,-0.9400445222854614
1725892254233364200,13.9413642578125,-0.3081812858581543,-1.302211046218872,-0.9143882393836975
1725892254252213000,13.960212890625,-0.210442915558815,-1.299462080001831,-0.8123738169670105
1725892254271061500,13.9790615234375,-0.07941242307424545,-1.113759160041809,-0.6156753301620483
1725892254289910000,13.997909912109375,-0.13775001466274261,-1.0089958906173706,-0.8065705895423889
1725892254308758500,14.016758544921874,-0.32070401310920715,-0.5432115197181702,-0.8328377604484558
1725892254327607000,14.03560693359375,-0.3949240744113922,-0.337350070476532,-0.87254399061203
1725892254346455800,14.054455810546875,-0.5928442478179932,-0.12110394239425659,-0.8902590870857239
1725892254365304300,14.07330419921875,-0.7113520503044128,-0.2689332067966461,-0.7598394155502319
1725892254384152800,14.09215283203125,-0.7681624889373779,0.17455461621284485,-0.5454258918762207
1725892254403001600,14.111001708984375,-0.7504473924636841,0.32360562682151794,-0.5283216834068298
1725892254421850000,14.12985009765625,-0.7562506198883057,0.28725916147232056,-0.20425790548324585
1725892254440698600,14.14869873046875,-0.574212908744812,0.34315329790115356,-0.04512763395905495
1725892254459547100,14.167547119140625,-0.4834994673728943,0.24602578580379486,0.052916161715984344
1725892254478396000,14.18639599609375,-0.3130682110786438,0.27809619903564453,0.24106250703334808
1725892254497244400,14.205244384765624,-0.22785256803035736,0.2539670467376709,0.3067304790019989
1725892254516093000,14.224093017578125,-0.11728604137897491,0.3248273432254791,0.3989710509777069
1725892254534941400,14.24294140625,-0.017104214057326317,0.2747364342212677,0.5073995590209961
1725892254553790000,14.2617900390625,0.009773836471140385,0.3523162603378296,0.6934078931808472
1725892254572638700,14.280638671875,0.10384701192378998,0.5581777095794678,0.6674461364746094
1725892254591487200,14.2994873046875,0.11606431007385254,0.8691078424453735,0.7691551446914673
1725892254610335700,14.318335693359375,0.25809037685394287,1.4680607318878174,0.839099109172821
1725892254629184300,14.337184326171876,0.6038398146629333,1.898414969444275,0.9310342669487
1725892254648033000,14.356032958984375,0.6123919486999512,1.658345103263855,1.2523491382598877
1725892254666881500,14.374881591796875,0.7046325206756592,1.1675152778625488,1.3219877481460571
1725892254685730000,14.39372998046875,0.8420770764350891,0.8434515595436096,1.1549161672592163
1725892254704578800,14.412578857421876,0.8460476994514465,0.975092887878418,1.2218059301376343
1725892254723427300,14.43142724609375,1.035415768623352,1.0945169925689697,1.124678373336792
1725892254742275800,14.45027587890625,1.0961968898773193,0.8327614068984985,1.088026523590088
1725892254761124400,14.469124267578126,1.0207550525665283,0.9100357890129089,1.045266032218933
1725892254779972900,14.487972900390625,0.9541707634925842,0.45280352234840393,1.1145991086959839
1725892254798821600,14.506821533203125,0.7232639193534851,0.5325213670730591,1.293582558631897
1725892254817670100,14.525670166015624,0.685084879398346,0.5795579552650452,1.1295653581619263
1725892254836518700,14.5445185546875,0.8439096808433533,0.3214675784111023,1.0761146545410156
1725892254855367200,14.5633671875,0.7278453707695007,0.494647741317749,1.2373830080032349
1725892254874216000,14.5822158203125,0.7809906005859375,0.4228711426258087,1.0290781259536743
1725892254893064400,14.601064453125,0.6679806113243103,0.4641045033931732,0.9093486070632935
1725892254911913000,14.619912841796875,0.5412262082099915,0.055741410702466965,1.0486257076263428
1725892254930761500,14.638761474609375,0.4367683231830597,0.3174969553947449,0.9218713045120239
1725892254949610200,14.6576103515625,0.46914416551589966,0.3614792227745056,0.812221109867096
1725892254968458800,14.676458740234375,0.5558869242668152,-0.052687086164951324,0.5025126338005066
1725892254987307300,14.695307373046875,0.3689623177051544,0.0435241162776947,0.5886445641517639
1725892255006155800,14.71415576171875,0.22876885533332825,0.02977965772151947,0.3797288239002228
1725892255025004500,14.733004638671876,0.12431098520755768,-0.25274530053138733,0.09353867173194885
1725892255043853000,14.75185302734375,-0.024434590712189674,-0.19562944769859314,-0.021609341725707054
1725892255062701600,14.77070166015625,-0.11209368705749512,0.12354740500450134,-0.16821688413619995
1725892255081550000,14.789550048828126,-0.11423171311616898,0.1467602699995041,-0.14286600053310394
1725892255100398800,14.80839892578125,-0.09865466505289078,0.10888664424419403,-0.09277509152889252
1725892255119247400,14.827247314453125,-0.07360920310020447,0.16355904936790466,-0.19814926385879517
1725892255138095900,14.846095947265624,-0.06719512492418289,-0.030085090547800064,-0.3795761168003082
1725892255156944400,14.8649443359375,0.053756099194288254,-0.1971566081047058,-0.261984646320343
1725892255175793200,14.883793212890625,0.12034036219120026,-0.1562286615371704,-0.3771326541900635
1725892255194641700,14.9026416015625,0.13255766034126282,-0.1363755613565445,-0.5884918570518494
1725892255213490200,14.921490234375,0.05589412897825241,-0.34437501430511475,-0.5533671379089355
1725892255232339000,14.9403388671875,0.029626941308379173,-0.4607447683811188,-0.594295084476471
1725892255251187500,14.9591875,-0.10537417232990265,-0.1464548259973526,-0.9763910174369812
1725892255270036000,14.978035888671876,-0.1750127524137497,-0.23167046904563904,-1.168202519416809
1725892255288884500,14.996884521484375,-0.13775001466274261,-0.48823368549346924,-1.08268141746521
1725892255307733000,15.01573291015625,-0.17043127119541168,-0.18096868693828583,-1.0286198854446411
1725892255326581800,15.034581787109374,-0.2052505612373352,-0.30711227655410767,-0.9485966563224792
1725892255345430300,15.05343017578125,-0.22999058663845062,-0.3162752389907837,-0.7109702229499817
1725892255364278800,15.07227880859375,-0.04367683082818985,0.19013166427612305,-0.5707767605781555
1725892255383127600,15.09112744140625,0.11178825795650482,-0.05787943676114082,-0.6654608249664307
1725892255401976000,15.10997607421875,-0.003970621153712273,-0.24572035670280457,-0.5869646668434143
1725892255420824600,15.128824462890625,-0.11484257876873016,-0.19074252247810364,-0.685924768447876
1725892255439673000,15.147673095703125,-0.12095122784376144,-0.16752967238426208,-0.7250201106071472
1725892255458521900,15.16652197265625,-0.2993237376213074,-0.6192641854286194,-0.6052906513214111
1725892255477370400,15.185370361328125,-0.42302384972572327,-0.7307469844818115,-0.7271581888198853
1725892255496219000,15.204218994140625,-0.2767217457294464,-0.34437501430511475,-0.9211077094078064
1725892255515067400,15.2230673828125,-0.029626941308379173,-0.2438877671957016,-0.8884264826774597
1725892255533916200,15.241916259765626,-0.04825831577181816,-0.5899426341056824,-0.9620356559753418
1725892255552764700,15.2607646484375,-0.38728827238082886,-1.0041090250015259,-1.1804198026657104
1725892255571613200,15.27961328125,-0.6459894776344299,-0.8297070860862732,-1.2182934284210205
1725892255590461700,15.298461669921876,-0.6310232877731323,-1.0264055728912354,-1.0912336111068726
1725892255609310500,15.317310546875,-0.6585122346878052,-1.198364019393921,-0.9379065036773682
1725892255628166000,15.336165771484374,-0.5210676789283752,-1.1656826734542847,-0.6892845630645752
1725892255647007500,15.355007568359374,-0.5253437161445618,-1.6833906173706055,-0.7299070358276367
1725892255665856000,15.37385595703125,-0.7220421433448792,-1.6213878393173218,-0.9956332445144653
1725892255684704800,15.392704833984375,-0.5109884142875671,-0.70753413438797,-0.9989929795265198
1725892255703553300,15.41155322265625,-0.3271180987358093,0.11377356201410294,-1.1187224388122559
1725892255722401800,15.43040185546875,-0.36254823207855225,-0.1925751268863678,-1.2946515083312988
1725892255741250600,15.44925048828125,-0.5696313977241516,-0.1156061589717865,-1.1086431741714478
1725892255760099000,15.46809912109375,-0.8659008145332336,0.21487168967723846,-0.9058361053466797
1725892255778947600,15.486947509765624,-0.9819651246070862,0.18555018305778503,-0.7564796805381775
1725892255797796000,15.505796142578125,-0.7849612236022949,0.4699077308177948,-0.18532110750675201
1725892255816644900,15.524644775390625,-0.5794052481651306,0.5303833484649658,-0.06192641705274582
1725892255835493400,15.543493408203124,-0.41416633129119873,0.3730856776237488,0.059024810791015625
1725892255854342000,15.562341796875,-0.500298261642456,0.37980517745018005,0.3574322462081909
1725892255873190400,15.5811904296875,-0.2919933497905731,0.4384481906890869,0.4518108665943146
1725892255892039200,15.6000390625,-0.20738859474658966,0.3828594982624054,0.6341540217399597
1725892255910887700,15.6188876953125,-0.0922405794262886,0.2838993966579437,0.7883973717689514
1725892255929736200,15.637736083984375,0.025350889191031456,0.34468045830726624,0.8021417856216431
1725892255948585000,15.6565849609375,0.2419024556875229,0.7603739500045776,0.7691551446914673
1725892255967433500,15.67543359375,0.6826413869857788,1.557857871055603,0.5437459945678711
1725892255986282000,15.694281982421876,0.8142827749252319,1.9869904518127441,0.8797216415405273
1725892256005130500,15.713130615234375,0.8060360550880432,1.8220568895339966,1.3164899349212646
1725892256023979000,15.73197900390625,0.7476984858512878,1.1760674715042114,1.3668862581253052
1725892256042827800,15.750827880859376,0.6954695582389832,1.0636682510375977,1.4084250926971436
1725892256061676300,15.76967626953125,0.9224058389663696,1.4433207511901855,1.1533890962600708
1725892256080524800,15.78852490234375,1.0974185466766357,1.4301871061325073,1.080085277557373
1725892256099373600,15.80737353515625,1.1340705156326294,1.3608540296554565,1.1692715883255005
1725892256118222000,15.82622216796875,1.3640609979629517,0.9161444306373596,0.9252310395240784
1725892256137070600,15.845070556640625,1.4214823246002197,0.577725350856781,0.8244383931159973
1725892256155919400,15.86391943359375,1.2675443887710571,0.39568766951560974,0.9841794967651367
1725892256174767900,15.882767822265626,1.3292417526245117,0.21548254787921906,0.8247438073158264
1725892256193616400,15.901616455078125,1.1948515176773071,-0.0746782198548317,0.996091365814209
1725892256212465000,15.92046484375,0.8549052476882935,0.040775224566459656,1.2040908336639404
1725892256231313700,15.939313720703124,0.7104357481002808,0.13545925915241241,1.209588646888733
1725892256250162200,15.958162109375,0.7916807532310486,-0.49312058091163635,1.088331937789917
1725892256269010700,15.9770107421875,0.6753110289573669,-0.08536835014820099,1.2709804773330688
1725892256287859500,15.995859375,0.5580250024795532,-0.264046311378479,1.170798659324646
1725892256306708000,16.0147080078125,0.5082395076751709,-0.46257734298706055,0.9438624382019043
1725892256325556500,16.033556396484375,0.3094030022621155,-0.054214250296354294,0.8546761870384216
1725892256344405000,16.052405029296875,0.31642794609069824,-0.36453354358673096,0.6857720613479614
1725892256363253800,16.071253662109374,0.287106454372406,-0.43081238865852356,0.5596284866333008
1725892256382102300,16.090102294921873,0.11575887352228165,0.1876882016658783,0.20105087757110596
1725892256400950800,16.10895068359375,0.15027274191379547,-0.4995346665382385,0.007406735327094793
1725892256419799600,16.127799560546876,0.1127045527100563,-0.3174969553947449,0.1164461001753807
1725892256438648000,16.14664794921875,-0.23029601573944092,-0.16478078067302704,-0.0322994738817215
1725892256457496600,16.16549658203125,-0.5940660238265991,-0.23716825246810913,-0.71463543176651
1725892256476345000,16.184344970703126,-0.6783653497695923,0.06673697382211685,-0.575663685798645
1725892256495193900,16.20319384765625,-0.5760455131530762,0.20112723112106323,-0.7421243786811829
1725892256514042400,16.22204248046875,-0.562911868095398,0.043829549103975296,-0.5915461778640747
1725892256532891000,16.240890869140625,-0.3643808364868164,-0.14859285950660706,-0.4220311939716339
1725892256551739600,16.25973974609375,-0.14202606678009033,-0.34895649552345276,-0.33712100982666016
1725892256570588200,16.278588134765624,-0.010384701192378998,-0.29245150089263916,-0.5362629294395447
1725892256589436700,16.297436767578127,0.015271619893610477,-0.30863943696022034,-0.6819541454315186
1725892256608285400,16.316285400390626,0.018325943499803543,-0.6042979955673218,-0.7106648087501526
1725892256627134000,16.335134033203126,-0.1597411334514618,0.1204930767416954,-0.6602684855461121
1725892256645982500,16.353982421875,-0.08063415437936783,-0.16936226189136505,-0.8019890785217285
1725892256664831200,16.372831298828125,-0.14660754799842834,-0.28756460547447205,-0.880790650844574
1725892256683679700,16.3916796875,-0.15088360011577606,-0.4332558512687683,-0.8206204771995544
1725892256702528300,16.4105283203125,-0.30054548382759094,-0.5826122760772705,-1.0402263402938843
1725892256721376800,16.429376708984375,-0.4621191918849945,-0.16050471365451813,-1.0597740411758423
1725892256740225500,16.4482255859375,-0.28008151054382324,-0.4995346665382385,-1.1819469928741455
1725892256759074000,16.467073974609374,-0.23732095956802368,-0.8174898028373718,-1.0787107944488525
1725892256777922600,16.485922607421877,-0.35124725103378296,-0.6125446557998657,-0.8697950839996338
1725892256796771300,16.504771240234376,-0.38850998878479004,-0.5963567495346069,-0.9846376776695251
1725892256815619800,16.523619873046876,-0.38667741417884827,-0.6794343590736389,-0.8508582711219788
1725892256834468400,16.54246826171875,-0.2938259541988373,-0.836732029914856,-0.5897135734558105
1725892256853316900,16.56131689453125,-0.34238970279693604,-1.0041090250015259,-0.4541015923023224
1725892256872165600,16.58016552734375,-0.4355465769767761,-0.8153517842292786,-0.3878227770328522
1725892256891014100,16.59901416015625,-0.6026180982589722,-0.7841976881027222,-0.27053675055503845
1725892256909862700,16.617862548828125,-0.7742711305618286,-1.014188289642334,-0.35727953910827637
1725892256928711400,16.63671142578125,-0.8518509268760681,-1.0343468189239502,-0.4174497127532959
1725892256947560000,16.655559814453124,-0.814588189125061,-1.2023346424102783,-0.5185478329658508
1725892256966408400,16.674408447265623,-0.8170316219329834,-1.1867575645446777,-0.5545888543128967
1725892256985257200,16.69325732421875,-0.7238747477531433,-0.8355103135108948,-0.5579485893249512
1725892257004105700,16.712105712890626,-0.6084213256835938,-0.6644681692123413,-0.8242856860160828
1725892257022954200,16.730954345703125,-0.5717694163322449,-0.5080868005752563,-1.0270928144454956
1725892257041802800,16.749802734375,-0.646905779838562,-0.17058399319648743,-1.0448077917099
1725892257060651500,16.768651611328124,-0.758083164691925,-0.08017600327730179,-0.9336304664611816
1725892257079500000,16.7875,-0.6798924803733826,-0.03558287397027016,-0.8111520409584045
1725892257098348500,16.8063486328125,-0.5696313977241516,-0.061850059777498245,-0.7219657897949219
1725892257117197300,16.825197265625,-0.4920515716075897,0.29397866129875183,-0.7570905089378357
1725892257136045800,16.8440458984375,-0.3992001414299011,0.5575668215751648,-0.7967967391014099
1725892257154894300,16.862894287109373,-0.4621191918849945,0.25274530053138733,-0.6752346754074097
1725892257173743000,16.8817431640625,-0.56382817029953,0.35353797674179077,-0.4119519293308258
1725892257192591600,16.900591552734376,-0.49052441120147705,0.3217730224132538,-0.2167806327342987
1725892257211440000,16.919440185546875,-0.26480987668037415,0.17394374310970306,0.0022143847309052944
1725892257230288600,16.93828857421875,-0.268169641494751,0.0642935186624527,0.224569171667099
1725892257249137400,16.957137451171874,-0.21471896767616272,0.004428769461810589,0.4967094361782074
1725892257267986000,16.97598583984375,-0.14508038759231567,0.2606865465641022,0.6631700992584229
1725892257286834400,16.99483447265625,-0.09162971377372742,0.5920807123184204,0.8965204358100891
1725892257305683200,17.01368310546875,0.09896009415388107,1.0300707817077637,0.8812488317489624
1725892257324531700,17.03253173828125,0.25992295145988464,1.5654937028884888,0.8565087914466858
1725892257343380200,17.051380126953124,0.3271180987358093,1.6977459192276,1.1405608654022217
1725892257362229000,17.07022900390625,0.3588830530643463,1.6684244871139526,1.3598613739013672
1725892257381077500,17.089077392578126,0.37781986594200134,1.465311884880066,1.3571124076843262
1725892257399926000,17.107926025390626,0.3704894781112671,1.4692825078964233,1.2688424587249756
1725892257418774800,17.12677490234375,0.471587598323822,1.465617299079895,1.272813081741333
1725892257437623300,17.145623291015625,0.6514872908592224,1.2441788911819458,1.3250420093536377
1725892257456471800,17.164471923828124,0.823445737361908,0.976620078086853,1.1897355318069458
1725892257475320600,17.183320556640624,1.0384701490402222,0.7976366877555847,1.1103230714797974
1725892257494169000,17.202169189453127,1.0821470022201538,0.5300779342651367,0.96890789270401
1725892257513017600,17.221017578125,0.9602794051170349,0.3917170464992523,1.1579705476760864
1725892257531866000,17.2398662109375,1.0060943365097046,0.2649625837802887,1.0855830907821655
1725892257550715000,17.25871484375,1.016784429550171,0.3559814393520355,1.1521673202514648
1725892257569563400,17.2775634765625,1.0946696996688843,0.17516547441482544,1.219667911529541
1725892257588412200,17.296412109375,1.120631456375122,0.14889828860759735,1.162551999092102
1725892257607260700,17.3152607421875,1.0421353578567505,0.13454297184944153,1.22638738155365
1725892257626109200,17.334109130859375,0.9993748068809509,-0.06154462695121765,1.0962731838226318
1725892257644957700,17.352957763671874,0.9309579133987427,0.022754713892936707,1.022663950920105
1725892257663806500,17.371806396484374,0.970969557762146,0.15592323243618011,0.8000037670135498
1725892257682655000,17.390655029296877,0.8225294351577759,-0.0007635809597559273,0.6506473422050476
1725892257701503500,17.40950341796875,0.40805765986442566,-0.012980876490473747,0.5666534304618835
1725892257720352300,17.428352294921876,0.11056652665138245,0.06612611562013626,0.41638070344924927
1725892257739200800,17.44720068359375,0.05894844979047775,-0.0539088174700737,0.07826705276966095
1725892257758049300,17.46604931640625,-0.03329212963581085,-0.09911280870437622,-0.14683662354946136
1725892257776898000,17.48489794921875,-0.17287473380565643,0.4546361267566681,-0.15416699647903442
1725892257795746600,17.50374658203125,-0.16004657745361328,0.0899498388171196,-0.19570580124855042
1725892257814595000,17.522594970703125,-0.09071341902017593,0.15042544901371002,-0.16852232813835144
1725892257833443800,17.54144384765625,0.04367683082818985,-0.13851359486579895,-0.10682497918605804
1725892257852292400,17.560292236328124,0.05864302068948746,-0.12385283410549164,-0.1862373948097229
1725892257871140900,17.579140869140623,0.025961752980947495,-0.033139415085315704,-0.04482220485806465
1725892257889989600,17.59798974609375,0.13775001466274261,-0.305585116147995,-0.020693045109510422
1725892257908838100,17.616838134765626,0.16126830875873566,-0.0902552679181099,-0.16332997381687164
1725892257927686700,17.635686767578125,0.08521563559770584,0.07864884287118912,-0.32765260338783264
1725892257946535400,17.654535400390625,0.13133592903614044,-0.045967575162649155,-0.37346744537353516
1725892257965384000,17.673384033203124,0.08521563559770584,-0.09208786487579346,-0.36369362473487854
1725892257984232400,17.692232421875,0.020158538594841957,0.07773254066705704,-0.5655844211578369
1725892258003081200,17.711081298828127,-0.03848448023200035,0.04413498193025589,-0.7317396402359009
1725892258021929700,17.7299296875,-0.05589412897825241,-0.10797034949064255,-0.6941714882850647
1725892258040778200,17.7487783203125,-0.060781046748161316,-0.3556760251522064,-0.7201332449913025
1725892258059627000,17.767626953125,-0.23548837006092072,0.06062832847237587,-0.8673516511917114
1725892258078475500,17.7864755859375,-0.3442223072052002,-0.18402300775051117,-1.0228166580200195
1725892258097324000,17.805323974609376,-0.2706131041049957,-0.32910341024398804,-1.0603848695755005
1725892258116172800,17.8241728515625,-0.10018182545900345,-0.06246092543005943,-0.6349175572395325
1725892258135021300,17.843021240234375,-0.03695731982588768,-0.35537058115005493,-0.5466476082801819
1725892258153869800,17.861869873046874,-0.23243404924869537,-0.48334676027297974,-0.40553784370422363
1725892258172718600,17.880718505859374,-0.23762640357017517,-0.6299542784690857,-0.7063887715339661
1725892258191567000,17.899567138671873,-0.25961753726005554,-0.264046311378479,-0.8025999665260315
1725892258210415600,17.91841552734375,-0.2461785078048706,-0.5841394662857056,-0.7234929800033569
1725892258229264100,17.93726416015625,-0.258395791053772,-0.9363030195236206,-0.6834813356399536
1725892258248113000,17.95611279296875,-0.41294458508491516,-0.8208495378494263,-0.5811614990234375
1725892258266961400,17.97496142578125,-0.4214966893196106,-0.9992220401763916,-0.6251437664031982
1725892258285810200,17.99381005859375,-0.43279770016670227,-0.8138245940208435,-0.7149408459663391
1725892258304658700,18.01265869140625,-0.4379900395870209,-0.9793689846992493,-0.83467036485672
1725892258323507200,18.031507080078125,-0.5766563415527344,-0.9640973210334778,-1.0307579040527344
1725892258342355700,18.050355712890624,-0.6795870661735535,-0.6714931130409241,-1.0808488130569458
1725892258361204500,18.06920458984375,-0.6230821013450623,-0.9402735829353333,-1.0979530811309814
1725892258380053000,18.088052978515623,-0.7290670871734619,-0.9540180563926697,-1.1804198026657104
1725892258398901500,18.106901611328126,-0.7345649003982544,-0.7948877811431885,-0.9657008647918701
1725892258417750300,18.125750244140626,-0.5971203446388245,-0.6461422443389893,-1.0316742658615112
1725892258436598800,18.144598876953125,-0.5751292109489441,-0.1467602699995041,-0.862159252166748
1725892258455447300,18.163447265625,-0.565049946308136,-0.2860374450683594,-0.9776127338409424
1725892258474296000,18.182296142578124,-0.6814196705818176,-0.5600103139877319,-0.8679624795913696
1725892258493144600,18.20114453125,-0.6230821013450623,-0.20998476445674896,-0.61201012134552
1725892258511993000,18.2199931640625,-0.4841103255748749,-0.06734783947467804,-0.6013200283050537
1725892258530841900,18.238841796875,-0.4303542375564575,0.029474224895238876,-0.6550761461257935
1725892258549690400,18.2576904296875,-0.49571678042411804,0.06001746281981468,-0.6181188225746155
1725892258568539100,18.2765390625,-0.4514290690422058,0.49831295013427734,-0.5741365551948547
1725892258587387600,18.2953876953125,-0.4514290690422058,0.37552911043167114,-0.5154935121536255
1725892258606236200,18.314236083984376,-0.3136790692806244,0.04780016839504242,-0.26015204191207886
1725892258625084700,18.333084716796876,-0.2153298407793045,0.024892739951610565,0.13874267041683197
1725892258643933400,18.351933349609375,0.06230820715427399,0.5560396909713745,0.203799769282341
1725892258662782000,18.370781982421875,0.01954767294228077,0.47296205163002014,0.1634826809167862
1725892258681630500,18.38963037109375,-0.03145953640341759,0.4692968726158142,0.5858956575393677
1725892258700479200,18.408479248046874,0.11636973917484283,0.74540776014328,0.6500364542007446
1725892258719327700,18.42732763671875,0.09040798991918564,0.8724676370620728,0.8580359220504761
1725892258738176300,18.44617626953125,0.24465134739875793,1.2020292282104492,0.9411135315895081
1725892258757025000,18.46502490234375,0.3426951467990875,1.496466040611267,0.9179006814956665
1725892258775873500,18.48387353515625,0.5439751148223877,1.7823506593704224,1.014111876487732
1725892258794722000,18.50272216796875,0.8112284541130066,1.825722098350525,1.1155154705047607
1725892258813570800,18.52157080078125,0.8188642263412476,1.4631738662719727,1.3305398225784302
1725892258832419300,18.54041943359375,0.8555161356925964,1.0645846128463745,1.3519201278686523
1725892258851268000,18.55926806640625,0.9175189137458801,0.985783040523529,1.2941933870315552
1725892258870116600,18.57811669921875,1.0305289030075073,0.7903063297271729,1.173242211341858
1725892258888965000,18.596965087890624,1.036942958831787,0.9686788320541382,1.374522089958191
1725892258907813600,18.615813720703127,1.2006547451019287,0.5844448804855347,1.2251657247543335
1725892258926662400,18.634662353515626,1.1417062282562256,0.5111411213874817,1.0855830907821655
1725892258945511000,18.653510986328126,1.06443190574646,0.3889681398868561,1.209588646888733
1725892258964359400,18.672359375,1.0302234888076782,0.14309507608413696,1.1643846035003662
1725892258983208200,18.691208251953125,1.0650427341461182,0.3874409794807434,1.0846667289733887
1725892259002056700,18.710056640625,1.2076796293258667,-0.10888664424419403,0.8180242776870728
1725892259020905200,18.7289052734375,0.9486730098724365,0.046883873641490936,0.9426407217979431
1725892259039754000,18.74775390625,0.6695078015327454,0.21975859999656677,1.126205563545227
1725892259058602500,18.7666025390625,0.6866120100021362,-0.09911280870437622,0.9728785157203674
1725892259077451000,18.785450927734374,0.6395754218101501,-0.233503058552742,0.7755692005157471
1725892259096299800,18.8042998046875,0.5290089249610901,-0.05085449293255806,0.710512101650238
1725892259115148300,18.823148193359376,0.38881543278694153,-0.10247256606817245,0.5577958822250366
1725892259133997000,18.8419970703125,0.20708316564559937,-0.005345067009329796,0.4444804787635803
1725892259152845600,18.860845458984375,0.05711585655808449,0.06979130208492279,0.2902371287345886
1725892259171694000,18.879694091796875,-0.08429934084415436,-0.09636391699314117,0.08804088830947876
1725892259190542600,18.89854248046875,-0.19608759880065918,-0.1259908676147461,-0.02496909722685814
1725892259209391400,18.917391357421874,-0.31093016266822815,-0.08200860023498535,-0.1407279670238495
1725892259228240000,18.936239990234377,-0.2834412455558777,0.1104138121008873,-0.2574031352996826
1725892259247088400,18.95508837890625,-0.2935205399990082,-0.013897174037992954,-0.4012618064880371
1725892259265937200,18.973937255859376,-0.29504770040512085,-0.1510363221168518,-0.47181668877601624
1725892259284785700,18.99278564453125,-0.20861032605171204,-0.05543597787618637,-0.4336376488208771
1725892259303634200,19.01163427734375,-0.10934479534626007,-0.13942988216876984,-0.4211149215698242
1725892259322483000,19.03048291015625,-0.08521563559770584,-0.12873975932598114,-0.40401068329811096
1725892259341331500,19.04933154296875,-0.11362084746360779,0.039248060435056686,-0.25587597489356995
1725892259360180000,19.068179931640625,-0.10690133273601532,-0.14981459081172943,-0.40889760851860046
1725892259379028700,19.08702880859375,-0.2409861534833908,0.011148282326757908,-0.5765799880027771
1725892259397877200,19.105877197265624,-0.12522727251052856,-0.0795651376247406,-0.6801216006278992
1725892259416726000,19.12472607421875,-0.12980876863002777,-0.060933761298656464,-0.6984475255012512
1725892259435574500,19.143574462890626,-0.1493564397096634,0.12385283410549164,-0.6553815603256226
1725892259454423000,19.162423095703126,-0.1695149689912796,-0.2136499583721161,-0.826423704624176
1725892259473271800,19.181271728515625,-0.25320345163345337,-0.25579962134361267,-0.8349757790565491
1725892259492120300,19.200120361328125,-0.30970844626426697,-0.13271036744117737,-0.9733366966247559
1725892259510968800,19.21896875,-0.2608392536640167,0.10155627131462097,-0.9724203944206238
1725892259529817300,19.2378173828125,-0.15088360011577606,-0.27137666940689087,-0.9351575970649719
1725892259548666000,19.256666015625,-0.21960589289665222,-0.3672824501991272,-0.9766964316368103
1725892259567514600,19.2755146484375,-0.5006036758422852,-0.625067412853241,-0.9699769020080566
1725892259586363100,19.294363037109374,-0.4770853817462921,-0.7414371371269226,-0.9782235622406006
1725892259605212000,19.3132119140625,-0.21502439677715302,-0.6397281289100647,-0.9379065036773682
1725892259624060400,19.332060302734376,-0.12003492563962936,-0.8211549520492554,-0.8429170250892639
1725892259642909000,19.350908935546876,-0.3753764033317566,-1.0731366872787476,-1.1254420280456543
1725892259661757700,19.3697578125,-0.6902772188186646,-0.9973894953727722,-1.1294126510620117
1725892259680606200,19.388606201171875,-0.5705476999282837,-1.2289072275161743,-1.083903193473816
1725892259699455000,19.407455078125,-0.5476402640342712,-1.4320197105407715,-1.1251366138458252
1725892259718303500,19.426303466796874,-0.684473991394043,-1.3303108215332031,-0.8624647259712219
1725892259737152000,19.445152099609373,-0.5100721120834351,-1.0077741146087646,-0.7415134906768799
1725892259756000800,19.464000732421876,-0.34177884459495544,-0.9647082090377808,-0.7531198859214783
1725892259774849300,19.482849365234376,-0.42791077494621277,-0.7096721529960632,-0.8957568407058716
1725892259833737000,19.541737060546875,-0.3952295184135437,-0.0001527161948615685,-0.6834813356399536
1725892259852585500,19.56058544921875,-0.35674503445625305,0.20143266022205353,-0.613231897354126
1725892259871434200,19.579434326171874,-0.4477638900279999,-0.264046311378479,-0.5771908760070801
1725892259890282800,19.59828271484375,-0.47097674012184143,0.04993819445371628,-0.38843363523483276
1725892259909131300,19.61713134765625,-0.3646862804889679,0.42745262384414673,-0.40370526909828186
1725892259927980000,19.63597998046875,-0.21197007596492767,0.44211336970329285,-0.20517420768737793
1725892259946828500,19.65482861328125,-0.18387030065059662,0.30222535133361816,0.031230462715029716
1725892259965677300,19.67367724609375,-0.2577849328517914,0.0951421856880188,0.2144898921251297
1725892259984525800,19.69252587890625,-0.15699224174022675,0.41462448239326477,0.5455785989761353
1725892260003374300,19.711374267578126,-0.059864748269319534,0.7591522336006165,0.5529089570045471
1725892260022223000,19.73022314453125,-0.03909534588456154,0.4659371078014374,0.42707082629203796
1725892260041071600,19.749071533203125,0.010384701192378998,0.7365502119064331,0.6830231547355652
1725892260059920100,19.767920166015625,0.4001164436340332,1.4347686767578125,0.6781362891197205
1725892260078768600,19.7867685546875,0.7238747477531433,1.7768529653549194,0.487546443939209
1725892260097617400,19.805617431640623,0.8265000581741333,1.4139991998672485,0.6653081178665161
1725892260116465700,19.824465576171875,0.7611374855041504,1.133001446723938,1.097800374031067
1725892260135314400,19.843314453125,0.7171552777290344,1.0768018960952759,1.1210132837295532
1725892260154163200,19.8621630859375,0.8301652073860168,1.0749692916870117,0.9395864009857178
1725892260173011700,19.88101171875,0.8991929292678833,1.070082426071167,1.1521673202514648
1725892260191860200,19.899860107421876,0.9828814268112183,0.8972076177597046,1.4368302822113037
1725892260210709000,19.918708984375,1.0793980360031128,0.7402154207229614,1.596876859664917
1725892260229557500,19.9375576171875,1.0665699243545532,0.268627792596817,1.6200897693634033
1725892260248406300,19.95640625,0.9486730098724365,0.12996147572994232,1.5712205171585083
1725892260267254800,19.9752548828125,1.0702351331710815,0.3565923273563385,1.4411063194274902
1725892260286103300,19.994103271484374,0.998763918876648,0.2228129357099533,1.569998860359192
1725892260304952000,20.0129521484375,0.7189878225326538,-0.12843431532382965,1.4630974531173706
1725892260323800600,20.031800537109376,0.5387827157974243,0.35048365592956543,1.3158791065216064
1725892260342649000,20.050649169921876,0.6316341757774353,-0.06612611562013626,1.1674389839172363
1725892260361497600,20.06949755859375,0.823445737361908,-0.21395538747310638,0.9169843792915344
1725892260380346400,20.088346435546875,0.8362739086151123,-0.3605629503726959,0.7850375771522522
1725892260399195000,20.10719482421875,0.5381718873977661,-0.11988221108913422,0.7282271981239319
1725892260418043400,20.12604345703125,0.2987128794193268,-0.06368265300989151,0.6194932460784912
1725892260436892200,20.14489208984375,-0.06719512492418289,-0.020922118797898293,0.24625486135482788
1725892260455740700,20.16374072265625,-0.20647229254245758,-0.07406735420227051,0.05994110554456711
1725892260474589400,20.18258935546875,-0.3848448097705841,0.2386954128742218,-0.05978839099407196
1725892260493438000,20.20143798828125,-0.3481929302215576,0.2594648003578186,0.008628465235233307
1725892260512286500,20.220286376953126,-0.3659079968929291,0.1464548259973526,-0.1398116797208786
1725892260531135200,20.23913525390625,-0.3652971386909485,0.15500694513320923,-0.20578506588935852
1725892260549983700,20.257983642578125,-0.25961753726005554,-0.12110394239425659,-0.19845469295978546
1725892260568832300,20.276832275390625,-0.17165300250053406,-0.13881902396678925,-0.2375500351190567
1725892260587681000,20.295680908203124,-0.164322629570961,-0.03375028073787689,-0.2778671085834503
1725892260606529500,20.314529541015624,-0.19914191961288452,-0.08689551800489426,-0.3615556061267853
1725892260625378000,20.3333779296875,-0.2968802750110626,0.16783510148525238,-0.36338818073272705
1725892260644226600,20.3522265625,-0.19792018830776215,0.044440411031246185,-0.4849502742290497
1725892260663075300,20.371075439453126,-0.10079269111156464,-0.13209950923919678,-0.6584358811378479
1725892260681923800,20.389923828125,-0.30054548382759094,0.054214250296354294,-0.7207440733909607
1725892260700772400,20.4087724609375,-0.5094612240791321,0.0896444097161293,-0.880179762840271
1725892260719621000,20.42762109375,-0.5528326034545898,0.028557928279042244,-1.0109049081802368
1725892260738469600,20.4464697265625,-0.35063639283180237,-0.11927134543657303,-1.0884846448898315
1725892260757318100,20.465318115234375,-0.3023780584335327,-0.304974228143692,-1.110475778579712
1725892260776167000,20.4841669921875,-0.3707949221134186,-0.48212501406669617,-1.1746165752410889
1725892260795015400,20.503015380859374,-0.37812530994415283,-0.44241881370544434,-1.1074215173721313
1725892260813864200,20.5218642578125,-0.23457208275794983,-0.44241881370544434,-0.9809724688529968
1725892260832712700,20.540712646484376,-0.07574722915887833,-0.7368556261062622,-1.0780999660491943
1725892260851561200,20.559561279296876,-0.2309068888425827,-0.8425352573394775,-1.0628283023834229
1725892260870410000,20.578409912109375,-0.32559093832969666,-0.9506583213806152,-0.9675334692001343
1725892260889258500,20.597258544921875,-0.2938259541988373,-1.0105230808258057,-0.909501314163208
1725892260908107000,20.61610693359375,-0.2107483446598053,-1.2835795879364014,-0.9974658489227295
1725892260926955500,20.63495556640625,-0.30970844626426697,-1.4814997911453247,-1.0121265649795532
1725892260945804300,20.65380419921875,-0.36163195967674255,-1.523038625717163,-0.9711986184120178
1725892260964652800,20.67265283203125,-0.389120876789093,-1.2322670221328735,-0.8129846453666687
1725892260983501300,20.691501220703124,-0.36712974309921265,-1.111926555633545,-0.982805073261261
1725892261002350000,20.71035009765625,-0.5277871489524841,-1.0447314977645874,-1.037782907485962
1725892261021198600,20.729198486328126,-0.5326740741729736,-1.004414439201355,-0.9125556349754333
1725892261040047000,20.748047119140626,-0.6316341757774353,-0.6354520916938782,-0.8007673621177673
1725892261058896000,20.766895751953125,-0.593149721622467,-0.4326449930667877,-0.7891609072685242
1725892261077744400,20.785744384765625,-0.5693259835243225,-0.12660172581672668,-0.7066941857337952
1725892261096593000,20.804593017578124,-0.4477638900279999,-0.15592323243618011,-0.6810378432273865
1725892261115441700,20.823441650390624,-0.48075059056282043,-0.017256930470466614,-0.46601346135139465
1725892261134290200,20.842290283203123,-0.4667007029056549,0.09636391699314117,-0.31757333874702454
1725892261153138700,20.861138671875,-0.4557051360607147,0.09697478264570236,-0.2992473840713501
1725892261171987500,20.879987548828126,-0.2675587832927704,0.23197589814662933,-0.20578506588935852
1725892261190836000,20.8988359375,-0.10934479534626007,0.5569559335708618,-0.03840812295675278
1725892261209684500,20.9176845703125,0.004886918235570192,0.6101012229919434,0.0862082913517952
1725892261228533200,20.936533203125,0.1337793916463852,0.660802960395813,0.17172935605049133
1725892261247381800,20.9553818359375,0.2364046722650528,0.874605655670166,0.3366628587245941
1725892261266230300,20.974230224609375,0.3659079968929291,0.9631810188293457,0.5645154118537903
1725892261285079000,20.9930791015625,0.43004879355430603,0.8660535216331482,0.7642682194709778
1725892261303927600,21.011927490234374,0.40805765986442566,0.8141300082206726,1.0623701810836792
1725892261322776000,21.030776123046873,0.6291907429695129,0.9692896604537964,1.2077560424804688
1725892261341624800,21.049624755859377,0.6407971382141113,1.0920735597610474,1.2718968391418457
1725892261360473300,21.068473388671876,0.730594277381897,1.2111921310424805,1.3048834800720215
1725892261379321900,21.08732177734375,0.6792816519737244,1.0004438161849976,1.3971240520477295
1725892261398170600,21.106170654296875,0.7067705392837524,0.9717331528663635,1.4484367370605469
1725892261417019100,21.12501904296875,0.7935133576393127,0.9802852272987366,1.3739112615585327
1725892261435867600,21.14386767578125,0.9217949509620667,1.0236566066741943,1.3354268074035645
1725892261454716400,21.16271630859375,1.1160500049591064,0.985783040523529,1.2022582292556763
1725892261473565000,21.18156494140625,1.0879502296447754,0.5013672709465027,1.4728713035583496
1725892261492413400,21.200413330078124,0.9419534802436829,0.4549415409564972,1.4288890361785889
1725892261511262200,21.21926220703125,0.9217949509620667,0.8232930302619934,1.200425624847412
1725892261530110700,21.23811083984375,0.9810488224029541,0.3559814393520355,1.03365957736969
1725892261548959200,21.256959228515626,0.7819069027900696,0.19593487679958344,1.0794744491577148
1725892261567808000,21.27580810546875,0.5583304166793823,0.33765551447868347,1.2517383098602295
1725892261586656500,21.294656494140625,0.4043924808502197,0.040775224566459656,0.9328668713569641
1725892261605505000,21.313505126953125,0.2864955961704254,0.11713331937789917,0.7153990268707275
1725892261624353500,21.332353515625,0.33169957995414734,-0.08689551800489426,0.8076395988464355
1725892261643202300,21.351202392578124,0.2632827162742615,0.06582067906856537,0.6805797219276428
1725892261662050800,21.37005078125,0.09896009415388107,0.1879936307668686,0.6457604169845581
1725892261680899300,21.3888994140625,-0.047036588191986084,0.0487164668738842,0.3158934414386749
1725892261699748000,21.407748046875,-0.08002328872680664,0.10186170041561127,0.09476039558649063
1725892261718596600,21.4265966796875,0.025045456364750862,-0.17363831400871277,0.08254310488700867
1725892261737445400,21.4454453125,-0.017104214057326317,-0.47235119342803955,0.022678354755043983
1725892261756294000,21.4642939453125,-0.1185077652335167,-0.13515383005142212,-0.18379394710063934
1725892261775142400,21.483142333984375,-0.1026252806186676,-0.07773254066705704,-0.3187950551509857
1725892261793991200,21.5019912109375,-0.0054977829568088055,-0.029474224895238876,-0.37988153100013733
1725892261812839700,21.520839599609374,-0.0054977829568088055,-0.030085090547800064,-0.25526511669158936
1725892261831688200,21.539688232421874,-0.12095122784376144,0.09880737960338593,-0.47639816999435425
1725892261850537000,21.558536865234377,-0.20219624042510986,-0.0795651376247406,-0.6529380679130554
1725892261869385500,21.577385498046876,-0.2309068888425827,0.09819651395082474,-0.7280744314193726
1725892261888234000,21.59623388671875,-0.30543237924575806,0.13301581144332886,-0.7665589451789856
1725892261907082500,21.61508251953125,-0.28466299176216125,-0.0746782198548317,-0.7592285871505737
1725892261925931300,21.63393115234375,-0.3750709891319275,0.3559814393520355,-0.60406893491745
1725892261944779800,21.65277978515625,-0.2101374864578247,0.15745039284229279,-0.7580068111419678
1725892261963628300,21.671628173828125,-0.049480047076940536,-0.4595230221748352,-0.8587995171546936
1725892261982477000,21.69047705078125,-0.16004657745361328,-0.25549420714378357,-0.9760855436325073
1725892262001325600,21.70932568359375,-0.23212862014770508,-0.2078467458486557,-0.9760855436325073
1725892262020174000,21.728174072265624,-0.19730933010578156,-0.36544984579086304,-0.8722385764122009
1725892262039022800,21.74702294921875,-0.053145237267017365,-0.6934842467308044,-0.9760855436325073
1725892262057871400,21.765871337890626,0.08674279600381851,-0.633008599281311,-1.039615511894226
1725892262076720000,21.78472021484375,0.13500112295150757,-0.7026472091674805,-1.0225112438201904
1725892262095568600,21.803568603515625,-0.07391463965177536,-0.7838922142982483,-1.075656533241272
1725892262114417200,21.822417236328125,-0.39278605580329895,-1.03129243850708,-1.1727839708328247
1725892262133266000,21.841265869140624,-0.5204567909240723,-1.338557481765747,-1.3010655641555786
1725892262152114400,21.860114501953124,-0.5186241865158081,-1.417969822883606,-1.2857940196990967
1725892262170963000,21.878962890625,-0.6041452884674072,-1.8535164594650269,-1.3200024366378784
1725892262189811500,21.8978115234375,-0.5662716627120972,-1.4039199352264404,-1.0579414367675781
1725892262208660200,21.91666015625,-0.5412262082099915,-0.8871283531188965,-1.1055889129638672
1725892262227508700,21.9355087890625,-0.5479456782341003,-0.9372192621231079,-1.492266297340393
1725892262246357500,21.954357421875,-0.6151408553123474,-1.0917680263519287,-1.2106575965881348
1725892262265206000,21.9732060546875,-0.7605266571044922,-0.9219476580619812,-1.0567196607589722
1725892262284054500,21.992054443359375,-0.813060998916626,-0.6647735834121704,-0.8820123672485352
1725892262302903300,22.0109033203125,-0.7770199775695801,-0.34895649552345276,-0.7115811109542847
1725892262321751800,22.029751708984374,-0.5711585879325867,0.11774418503046036,-0.6352230310440063
1725892262340600300,22.048600341796874,-0.277332603931427,0.8422298431396484,-0.640720784664154
1725892262359449000,22.067448974609373,-0.2718348205089569,0.5667297840118408,-0.6211731433868408
1725892262378297600,22.086297607421876,-0.3549124300479889,0.453719824552536,-0.21922409534454346
1725892262397146000,22.10514599609375,-0.2528980076313019,0.7157807946205139,0.20715951919555664
1725892262415995000,22.123994873046875,-0.26878049969673157,0.47265663743019104,0.40691229701042175
1725892262434843400,22.142843505859375,-0.1081230640411377,0.32971426844596863,0.7092903852462769
1725892262453692000,22.16169189453125,0.1380554437637329,0.6638572812080383,0.8974367380142212
1725892262472540700,22.180540771484374,0.2938259541988373,0.7945823669433594,1.1100176572799683
1725892262491389200,22.19938916015625,0.39828383922576904,0.8629992008209229,1.2022582292556763
1725892262510237700,22.21823779296875,0.41783151030540466,0.5954404473304749,1.2993857860565186
1725892262529086500,22.23708642578125,0.4050033390522003,0.7646499872207642,1.359250545501709
1725892262547935000,22.25593505859375,0.5155698657035828,1.5105159282684326,1.2957205772399902
1725892262566783500,22.274783447265627,0.6737838387489319,1.2075269222259521,1.0318269729614258
1725892262585632300,22.29363232421875,0.6615665555000305,1.3962842226028442,1.1185697317123413
1725892262604480800,22.312480712890626,0.9608902931213379,1.458592414855957,1.2413536310195923
1725892262623329300,22.331329345703125,1.1600322723388672,0.7640390992164612,1.2431862354278564
1725892262642178000,22.350177978515624,0.9700532555580139,0.9424116611480713,1.3739112615585327
1725892262661026600,22.369026611328124,0.915686309337616,0.86544269323349,1.84549880027771
1725892262679875300,22.387875244140623,0.7538071274757385,0.3663661479949951,1.9621740579605103
1725892262698723800,22.406723876953127,0.4770853817462921,0.37491825222969055,1.7966296672821045
1725892262717572400,22.425572265625,0.5687150955200195,0.2435823380947113,1.9249112606048584
1725892262736421000,22.444421142578125,0.4874700903892517,0.18371757864952087,1.7025564908981323
1725892262755269600,22.46326953125,0.43432486057281494,0.26679518818855286,1.496084213256836
1725892262774118100,22.4821181640625,0.46425724029541016,0.0334448479115963,1.127732753753662
1725892262792967000,22.500966796875,0.3500255048274994,0.34865108132362366,0.7599921226501465
1725892262811815400,22.5198154296875,0.48563748598098755,0.004734201822429895,0.6365974545478821
1725892262830664000,22.538663818359375,0.4007273018360138,-0.16264274716377258,0.3885863721370697
1725892262849512700,22.5575126953125,0.12156209349632263,0.33276858925819397,0.23831361532211304
1725892262868361200,22.576361328125,-0.013439024798572063,0.043829549103975296,-0.09460768103599548
1725892262887210000,22.5952099609375,-0.1490510106086731,-0.04535670951008797,-0.23571744561195374
1725892262906058500,22.61405859375,-0.23518294095993042,0.2942841053009033,-0.41958773136138916
1725892262924907000,22.632906982421876,-0.3231474757194519,0.01695149764418602,-0.5814669132232666
1725892262943755800,22.651755859375,-0.28038692474365234,0.043829549103975296,-0.5099957585334778
1725892262962604300,22.670604248046875,-0.17104214429855347,0.20387612283229828,-0.5344303250312805
1725892262981452800,22.689452880859374,-0.1380554437637329,-0.01359174121171236,-0.6272817850112915
1725892263000301600,22.708301513671874,-0.16187916696071625,-0.11255183815956116,-0.6236165761947632
1725892263019150000,22.727150146484377,-0.11484257876873016,-0.40149086713790894,-0.7506764531135559
1725892263037998600,22.74599853515625,-0.18081597983837128,-0.17058399319648743,-0.9211077094078064
1725892263056847400,22.764847412109376,-0.22296564280986786,-0.08689551800489426,-0.8429170250892639
1725892263075695900,22.78369580078125,-0.2003636509180069,-0.5560396909713745,-0.8691841959953308
1725892263094544600,22.802544677734375,-0.42394015192985535,-0.22556181252002716,-1.010293960571289
1725892263113393200,22.82139306640625,-0.2987128794193268,0.03405570983886719,-0.9321032762527466
1725892263132241700,22.84024169921875,-0.14721840620040894,-0.6556106209754944,-0.9950223565101624
1725892263151090400,22.85909033203125,-0.2993237376213074,-0.7038689255714417,-1.2131011486053467
1725892263169939000,22.87793896484375,-0.32070401310920715,-0.64278244972229,-1.2302052974700928
1725892263188787500,22.896787353515624,-0.4404335021972656,-0.8529199361801147,-1.4220168590545654
1725892263207636200,22.91563623046875,-0.6206386089324951,-0.6281217336654663,-1.4433971643447876
1725892263226484700,22.934484619140626,-0.38667741417884827,-0.7319687008857727,-1.3731476068496704
1725892263245333500,22.95333349609375,-0.1178968995809555,-0.9188933372497559,-1.4782164096832275
1725892263264182000,22.97218212890625,-0.41233372688293457,-0.9683734178543091,-1.5289181470870972
1725892263283030500,22.991030517578125,-0.6731730103492737,-1.0624465942382812,-1.3639847040176392
1725892263301879300,23.00987939453125,-0.5974257588386536,-1.19866943359375,-1.4617230892181396
1725892263320727800,23.028727783203124,-0.7275399565696716,-1.4845541715621948,-1.3499348163604736
1725892263339576300,23.047576416015627,-0.7257073521614075,-1.3165663480758667,-1.0139591693878174
1725892263358425000,23.066425048828126,-0.46547895669937134,-0.7441860437393188,-0.9278272390365601
1725892263377273600,23.085273681640626,-0.2571740746498108,-0.5884155035018921,-1.0921498537063599
1725892263396122400,23.104122314453125,-0.2981020212173462,-0.46257734298706055,-0.983415961265564
1725892263414971000,23.122970947265625,-0.42821621894836426,-0.8223767280578613,-0.9040035009384155
1725892263433819400,23.1418193359375,-0.6499601006507874,-0.8107702732086182,-0.5991820096969604
1725892263452668200,23.160668212890624,-0.5558869242668152,-0.6348412036895752,-0.19051344692707062
1725892263471516700,23.1795166015625,-0.3964512348175049,-0.11377356201410294,-0.026190826669335365
1725892263490365400,23.198365478515626,-0.056810423731803894,0.5031998753547668,-0.04818195849657059
1725892263509214000,23.2172138671875,0.13683371245861053,0.6320923566818237,-0.025579962879419327
1725892263528062500,23.2360625,0.18570289015769958,0.5551233887672424,0.16500984132289886
1725892263546911200,23.2549111328125,0.3481929302215576,0.9283617734909058,0.5730675458908081
1725892263565759700,23.273759765625,0.37812530994415283,0.9705114364624023,0.9114866256713867
1725892263584608500,23.2926083984375,0.3072649836540222,0.5447386503219604,1.117348074913025
1725892263603457000,23.31145703125,0.22785256803035736,0.586888313293457,1.2285254001617432
1725892263622305500,23.330305419921874,0.21807873249053955,1.034041404724121,1.2865575551986694
1725892263641154300,23.349154296875,0.4318813979625702,1.7102686166763306,1.3183225393295288
1725892263660002800,23.3680029296875,0.6872228980064392,1.2307398319244385,1.303661823272705
1725892263678851600,23.3868515625,0.7428115606307983,1.169653296470642,1.2706750631332397
1725892263697700000,23.4057001953125,0.8112284541130066,1.2686134576797485,1.412395715713501
1725892263716548600,23.424548583984375,0.6707295179367065,0.9937242865562439,1.450269341468811
1725892263735397400,23.4433974609375,0.4838049113750458,0.893542468547821,1.479590892791748
1725892263754246000,23.462245849609374,0.7324268817901611,0.7970257997512817,1.5028036832809448
