time,seconds_elapsed,z,y,x
1725631158852317700,0.019317626953125,0.36401644349098206,-0.11522424966096878,0.5242905020713806
1725631158862353000,0.029352783203125,0.3291684687137604,-0.050305433571338654,0.5878109335899353
1725631158872386800,0.03938671875,0.30928653478622437,0.02645396627485752,0.6290284991264343
1725631158882420700,0.049420654296875,0.3011423349380493,0.12078872323036194,0.6378259658813477
1725631158892455000,0.059454833984375,0.32141152024269104,0.20795229077339172,0.6395301818847656
1725631158902488800,0.06948876953125,0.39890018105506897,0.2864300608634949,0.615146815776825
1725631158912523800,0.079523681640625,0.5137373208999634,0.37668028473854065,0.5975878238677979
1725631158922558000,0.089557861328125,0.653501033782959,0.46539366245269775,0.5666109919548035
1725631158932591900,0.099591796875,0.7566676735877991,0.6138460040092468,0.5310431718826294
1725631158942625800,0.109625732421875,0.6416401863098145,0.9031635522842407,0.5715540647506714
1725631158952660700,0.11966064453125,0.5317439436912537,1.0541383028030396,0.6008140444755554
1725631158962695000,0.12969482421875,0.6169012188911438,1.1502766609191895,0.5794184803962708
1725631158972728800,0.139728759765625,0.8190860152244568,1.0768146514892578,0.438495934009552
1725631158982762800,0.1497626953125,0.9575389623641968,1.1576639413833618,0.29472091794013977
1725631158992798000,0.1597978515625,0.9654729962348938,1.4320687055587769,0.1897532343864441
1725631159002832000,0.169831787109375,0.8594815731048584,1.7554718255996704,0.051910948008298874
1725631159012865800,0.17986572265625,0.7753403782844543,1.9275649785995483,-0.1220608502626419
1725631159022900700,0.189900634765625,0.8345514535903931,1.8679938316345215,-0.29563504457473755
1725631159032935000,0.199934814453125,1.0024303197860718,1.518497109413147,-0.45046091079711914
1725631159042968800,0.20996875,1.2275683879852295,0.9939981698989868,-0.5768612027168274
1725631159053002800,0.220002685546875,1.4369319677352905,0.5294533371925354,-0.6240651607513428
1725631159063038000,0.230037841796875,1.578052043914795,0.2888290584087372,-0.5620555877685547
1725631159073071900,0.24007177734375,1.727739691734314,0.25883111357688904,-0.42088770866394043
1725631159083105800,0.250105712890625,1.9021871089935303,0.32347190380096436,-0.2875453531742096
1725631159093140000,0.260139892578125,1.9424610137939453,0.5879080295562744,-0.158974289894104
1725631159103175000,0.2701748046875,2.020475387573242,0.7416118383407593,-0.1202002465724945
1725631159113208800,0.280208740234375,2.152621269226074,0.9403656125068665,-0.09022976458072662
1725631159123242800,0.29024267578125,2.2343273162841797,1.4135006666183472,0.015511048957705498
1725631159133277000,0.30027685546875,2.278165102005005,1.982293725013733,0.10669022798538208
1725631159143311600,0.3103115234375,2.3644979000091553,2.5981576442718506,0.08681318163871765
1725631159153345800,0.320345703125,2.5275089740753174,3.2765955924987793,-0.04961812123656273
1725631159163380000,0.3303798828125,2.7376623153686523,3.8411991596221924,-0.35552796721458435
1725631159173413600,0.34041357421875,2.95629620552063,4.230147361755371,-0.8505699634552002
1725631159183448800,0.35044873046875,3.107978105545044,4.243785381317139,-1.347853183746338
1725631159193482800,0.360482666015625,3.1507303714752197,4.132630348205566,-1.7178348302841187
1725631159203517000,0.370516845703125,3.144462823867798,4.225452423095703,-1.9876357316970825
1725631159213550800,0.38055078125,3.136995553970337,3.994539499282837,-2.3874380588531494
1725631159223585800,0.390585693359375,3.0454225540161133,3.697718858718872,-2.9414217472076416
1725631159233620000,0.400619873046875,2.8769586086273193,3.730283737182617,-3.487271785736084
1725631159243654000,0.41065380859375,2.67521071434021,3.8917906284332275,-3.9657154083251953
1725631159253687800,0.420687744140625,2.5439515113830566,4.174188137054443,-4.462470531463623
1725631159263723000,0.430722900390625,2.4807398319244385,4.593672275543213,-4.930386066436768
1725631159273756700,0.440756591796875,2.491997718811035,4.751002311706543,-5.351226329803467
1725631159283790800,0.450790771484375,2.357913017272949,4.731891632080078,-5.716332912445068
1725631159293825000,0.460824951171875,1.9948409795761108,4.706580638885498,-5.974369049072266
1725631159303860000,0.47085986328125,1.476511836051941,4.6383233070373535,-6.073805332183838
1725631159313894000,0.480893798828125,0.98240065574646,4.373178958892822,-6.108331203460693
1725631159323927800,0.490927734375,0.4975561797618866,4.473310947418213,-5.9118804931640625
1725631159333961700,0.500961669921875,0.004482125397771597,4.701834678649902,-5.451458930969238
1725631159343996700,0.51099658203125,-0.2467503696680069,4.285881519317627,-4.851348400115967
1725631159354030800,0.52103076171875,-0.4347911775112152,3.815248727798462,-3.9705753326416016
1725631159364065000,0.53106494140625,-0.6928144097328186,3.4915075302124023,-2.9398255348205566
1725631159374098700,0.5410986328125,-0.9978192448616028,3.4140625,-2.1433539390563965
1725631159384134000,0.5511337890625,-1.2067351341247559,3.3555984497070312,-1.886828899383545
1725631159394167800,0.561167724609375,-1.2056630849838257,3.2239272594451904,-1.9746755361557007
1725631159404201700,0.57120166015625,-0.9772864580154419,2.7665092945098877,-2.122283458709717
1725631159414236000,0.58123583984375,-0.6690735220909119,2.0730032920837402,-2.1203227043151855
1725631159424270800,0.591270751953125,-0.3539499044418335,1.5300575494766235,-1.8391577005386353
1725631159434305000,0.601304931640625,-0.08721843361854553,1.5644021034240723,-1.390326976776123
1725631159444338700,0.611338623046875,0.1643911600112915,1.9593265056610107,-1.001708984375
1725631159454372900,0.621372802734375,0.2891884446144104,2.46886944770813,-0.6576652526855469
1725631159464407800,0.63140771484375,0.12102419137954712,2.786423683166504,-0.3003111779689789
1725631159474441700,0.641441650390625,-0.2527429163455963,3.0050113201141357,-0.04272284731268883
1725631159484476000,0.651475830078125,-0.5667447447776794,3.215456485748291,0.009311593137681484
1725631159494509800,0.661509765625,-0.8441919684410095,3.3412904739379883,-0.09296049922704697
1725631159504544800,0.671544677734375,-1.0192159414291382,3.5849597454071045,-0.16142557561397552
1725631159514579000,0.681578857421875,-1.010316252708435,3.7061619758605957,-0.1618507206439972
1725631159524612900,0.69161279296875,-0.864637017250061,2.191521406173706,0.11354489624500275
1725631159534646500,0.701646484375,-0.8512243032455444,1.1122467517852783,0.1295904517173767
1725631159544681500,0.711681396484375,-0.6698752641677856,0.8748279213905334,-0.4403662383556366
1725631159554715600,0.721715576171875,-0.20390363037586212,0.9720337390899658,-1.161527156829834
1725631159564749600,0.73174951171875,0.04714670404791832,0.7813481688499451,-1.7687110900878906
1725631159574783500,0.741783447265625,0.17015105485916138,0.7149932384490967,-2.1043601036071777
1725631159584818700,0.751818603515625,0.2725684940814972,0.7252547144889832,-2.34706711769104
1725631159594852600,0.7618525390625,0.3802119195461273,0.817984938621521,-2.594806432723999
1725631159604886500,0.771886474609375,0.49493607878685,0.8904338479042053,-2.7740237712860107
1725631159614921500,0.78192138671875,0.6481018662452698,0.8715553879737854,-2.8427939414978027
1725631159624955600,0.79195556640625,0.7954819798469543,0.8740563988685608,-2.7837414741516113
1725631159634989600,0.801989501953125,0.9312861561775208,0.9275569319725037,-2.6931183338165283
1725631159645023500,0.8120234375,1.0642237663269043,1.1489959955215454,-2.7419228553771973
1725631159655058700,0.82205859375,1.164522647857666,1.2597062587738037,-2.823566436767578
1725631159665092600,0.832092529296875,1.2457524538040161,1.1691409349441528,-2.8040573596954346
1725631159675126500,0.84212646484375,1.194074034690857,1.0631277561187744,-2.5585460662841797
1725631159685160700,0.85216064453125,0.9524809122085571,1.013782024383545,-2.1413376331329346
1725631159695195600,0.862195556640625,0.5038877725601196,1.182398796081543,-1.4829072952270508
1725631159705229600,0.8722294921875,-0.9391313791275024,2.4515950679779053,0.27291131019592285
1725631159715263500,0.882263427734375,-1.9745992422103882,1.8288201093673706,1.2058079242706299
1725631159725297700,0.892297607421875,-1.2675940990447998,2.184030294418335,1.2171989679336548
1725631159735332600,0.90233251953125,-0.5378896594047546,2.398610830307007,0.9802284836769104
1725631159745366500,0.912366455078125,-0.30860772728919983,2.2963063716888428,0.8924102187156677
1725631159755400700,0.922400634765625,-0.40697330236434937,2.135805606842041,0.9140479564666748
1725631159765434600,0.9324345703125,-0.4638344347476959,1.9576576948165894,0.9743043184280396
1725631159775469600,0.942469482421875,-0.37664082646369934,1.5296785831451416,1.0474038124084473
1725631159785503700,0.952503662109375,-0.20724008977413177,0.7754065990447998,1.0933188199996948
1725631159795537700,0.96253759765625,-0.023678569123148918,0.017353229224681854,1.0612348318099976
1725631159805571600,0.972571533203125,0.1864759922027588,-0.5418629050254822,0.8951703310012817
1725631159815606500,0.9826064453125,0.33472615480422974,-0.8255864977836609,0.6062183976173401
1725631159825640700,0.992640625,0.38786235451698303,-0.9437898397445679,0.18524187803268433
1725631159835674600,1.002674560546875,0.45531320571899414,-1.0792969465255737,-0.34200260043144226
1725631159845708500,1.01270849609375,0.4848646819591522,-1.2271205186843872,-0.8988744020462036
1725631159855743700,1.02274365234375,0.5836882591247559,-1.379058837890625,-1.3016974925994873
1725631159865777400,1.03277734375,0.6974356174468994,-1.6196906566619873,-1.3561660051345825
1725631159875811600,1.0428115234375,0.8406546711921692,-1.9122711420059204,-1.1884535551071167
1725631159885845800,1.052845703125,0.8706264495849609,-1.8225582838058472,-1.167932391166687
1725631159895880700,1.062880615234375,0.6790036559104919,-1.4131855964660645,-1.434530258178711
1725631159905914600,1.07291455078125,0.32625412940979004,-0.9857069849967957,-1.6617090702056885
1725631159915948500,1.082948486328125,-0.07729373127222061,-0.3817053437232971,-1.8063323497772217
1725631159925982500,1.092982421875,-0.5486226677894592,0.1312924474477768,-1.9329856634140015
1725631159936017400,1.103017333984375,-1.008919358253479,0.6358017325401306,-2.0508625507354736
1725631159946051600,1.113051513671875,-1.3052953481674194,0.47408315539360046,-1.5768784284591675
1725631159956085800,1.123085693359375,-1.24691903591156,0.49274587631225586,-1.199263095855713
1725631159966119400,1.133119384765625,-1.2489206790924072,0.8057307004928589,-1.1761153936386108
1725631159976154600,1.143154541015625,-1.4270696640014648,0.9741817116737366,-1.3536354303359985
1725631159986188500,1.1531884765625,-1.4418933391571045,0.7510809898376465,-1.5744398832321167
1725631159996222500,1.163222412109375,-1.4793375730514526,0.28941142559051514,-1.5479702949523926
1725631160006256600,1.173256591796875,-1.3869484663009644,-0.4189673364162445,-1.4117152690887451
1725631160016291600,1.18329150390625,-1.2359484434127808,-1.2451776266098022,-1.5222134590148926
1725631160026325800,1.19332568359375,-1.029486060142517,-2.09511661529541,-1.8417928218841553
1725631160036359400,1.203359375,-0.8461614847183228,-2.889139175415039,-2.1221137046813965
1725631160046393600,1.2133935546875,-0.6611897349357605,-3.4466474056243896,-2.17090106010437
1725631160056428500,1.223428466796875,-0.41259512305259705,-3.5614140033721924,-2.016716957092285
1725631160066462500,1.23346240234375,-0.18959929049015045,-3.4164958000183105,-1.6108357906341553
1725631160076496600,1.24349658203125,-0.1250455230474472,-2.8432469367980957,-1.164489507675171
1725631160086530600,1.253530517578125,-0.09841390699148178,-2.221794366836548,-0.9587200880050659
1725631160096565500,1.2635654296875,-0.11078744381666183,-1.7645162343978882,-0.816948413848877
1725631160106599700,1.273599609375,-0.11725813150405884,-1.1794437170028687,-0.7636172771453857
1725631160116633600,1.283633544921875,-0.05540831759572029,-0.9532172083854675,-0.8053580522537231
1725631160126668800,1.293668701171875,0.032124195247888565,-0.8936399221420288,-0.7911045551300049
1725631160136702500,1.303702392578125,0.18731386959552765,-1.2545868158340454,-0.6985819935798645
1725631160146736600,1.313736572265625,0.3525075912475586,-1.9507086277008057,-0.45471230149269104
1725631160156770800,1.323770751953125,0.42890381813049316,-2.582028865814209,-0.007623643614351749
1725631160166805500,1.333805419921875,0.3349573314189911,-2.9102892875671387,0.5072436928749084
1725631160176839700,1.343839599609375,0.1364319622516632,-2.6802399158477783,0.9074875116348267
1725631160186873600,1.35387353515625,-0.11442475765943527,-1.8900424242019653,1.0218327045440674
1725631160196907500,1.363907470703125,-0.2828320264816284,-0.9698842167854309,1.0149462223052979
1725631160206942500,1.3739423828125,-0.3912610411643982,-0.2833644151687622,1.0741972923278809
1725631160216976600,1.3839765625,-0.4443932771682739,0.29094111919403076,1.2239093780517578
1725631160227010600,1.394010498046875,-0.5493358969688416,0.7704576253890991,1.243683099746704
1725631160237044500,1.40404443359375,-0.7530347108840942,1.2546334266662598,1.0794733762741089
1725631160247079700,1.41407958984375,-0.9605151414871216,1.4692453145980835,0.6718317866325378
1725631160257113600,1.424113525390625,-1.2797274589538574,1.4732519388198853,0.28034213185310364
1725631160267147500,1.4341474609375,-1.4252077341079712,1.3042395114898682,0.08642752468585968
1725631160277181700,1.444181640625,-1.3511803150177002,1.1292979717254639,0.17274785041809082
1725631160287216600,1.454216552734375,-1.35896635055542,0.606203019618988,0.4181506931781769
1725631160297250600,1.46425048828125,-1.2556062936782837,0.295911580324173,0.5208332538604736
1725631160307284500,1.474284423828125,-1.1932893991470337,0.16553707420825958,0.5120163559913635
1725631160317318700,1.484318603515625,-1.2046165466308594,0.19426651298999786,0.5422748923301697
1725631160327353600,1.494353515625,-1.3691434860229492,-0.0658542811870575,0.6584760546684265
1725631160337387500,1.504387451171875,-1.5732146501541138,-0.2339601069688797,0.7985960841178894
1725631160347421700,1.514421630859375,-1.719705581665039,-0.35796061158180237,0.9473426342010498
1725631160357455600,1.52445556640625,-1.5051616430282593,-0.47437116503715515,1.0423985719680786
1725631160367490600,1.534490478515625,-1.0887067317962646,-0.5899848341941833,0.9182723760604858
1725631160377524700,1.544524658203125,-0.5882264971733093,0.12301059067249298,0.782687246799469
1725631160387558700,1.55455859375,-0.016513431444764137,0.4762978255748749,0.5520322322845459
1725631160397592600,1.564592529296875,0.41810354590415955,0.5256443023681641,0.3783918023109436
1725631160407627500,1.57462744140625,0.551994800567627,0.26564258337020874,0.17160026729106903
1725631160417661700,1.58466162109375,0.47297748923301697,-0.07317804545164108,-0.03933735936880112
1725631160427695600,1.594695556640625,0.40796521306037903,-0.23270300030708313,-0.21709804236888885
1725631160437729500,1.6047294921875,0.4689739942550659,-0.2584115266799927,-0.3600408136844635
1725631160447764700,1.6147646484375,0.23410050570964813,-0.663726806640625,-0.35970231890678406
1725631160457798400,1.62479833984375,0.05439334735274315,-1.075146198272705,-0.24033336341381073
1725631160467832600,1.63483251953125,-0.03704974800348282,-1.4552810192108154,-0.1929919421672821
1725631160477866800,1.64486669921875,0.009467058815062046,-1.5724592208862305,0.04620501026511192
1725631160487901700,1.654901611328125,0.13635443150997162,-1.465448021888733,0.38428130745887756
1725631160497935600,1.664935546875,0.3708336651325226,-1.3452671766281128,0.5403568148612976
1725631160507969500,1.674969482421875,0.5617471933364868,-1.316271185874939,0.5716963410377502
1725631160518003700,1.685003662109375,0.6502915024757385,-0.8546414375305176,0.7710469365119934
1725631160528038400,1.695038330078125,0.8235235214233398,-0.8848978877067566,0.9990505576133728
1725631160538071800,1.70507177734375,1.0851709842681885,-0.777702271938324,1.187903881072998
1725631160548106000,1.71510595703125,1.3141392469406128,-1.1118112802505493,1.0427448749542236
1725631160558140000,1.725139892578125,0.9695296287536621,-0.8705174326896667,0.7375526428222656
1725631160568174800,1.7351748046875,0.7720360159873962,-0.2995777428150177,0.6003939509391785
1725631160578209000,1.745208984375,0.8598797917366028,-0.2179710865020752,0.5496658682823181
1725631160588242700,1.75524267578125,1.0018390417099,-0.10145485401153564,0.43772122263908386
1725631160598276900,1.76527685546875,1.01068115234375,-0.19015181064605713,0.22110649943351746
1725631160608311800,1.775311767578125,0.8911598324775696,-0.13872404396533966,0.022737760096788406
1725631160618345700,1.785345703125,0.8469183444976807,0.07075513899326324,-0.01725572906434536
1725631160628380000,1.7953798828125,1.0092400312423706,0.2955358028411865,0.08104661107063293
1725631160638413800,1.805413818359375,1.187796950340271,0.05295152962207794,0.18538880348205566
1725631160648449000,1.815448974609375,1.0364694595336914,-0.3470246195793152,0.3186571002006531
1725631160658482700,1.825482666015625,0.7392526865005493,-0.16676224768161774,0.4851311445236206
1725631160668516900,1.835516845703125,0.6954939961433411,0.18104657530784607,0.5075685977935791
1725631160678551800,1.8455517578125,0.8479800820350647,0.4287724196910858,0.32810696959495544
1725631160688585700,1.855585693359375,0.9944214820861816,0.9060724377632141,0.1288899928331375
1725631160698620000,1.865619873046875,0.8351426720619202,0.922982394695282,-0.1849701702594757
1725631160708653800,1.87565380859375,0.5942283272743225,0.8416199088096619,-0.38747480511665344
1725631160718688800,1.885688720703125,0.5938510298728943,0.8118240237236023,-0.25428706407546997
1725631160728722700,1.89572265625,0.7682207226753235,0.8649506568908691,0.05338846519589424
1725631160738756900,1.9057568359375,0.9478954672813416,0.986051619052887,0.3404667377471924
1725631160748790800,1.915790771484375,0.8771848082542419,1.2238361835479736,0.4134400188922882
1725631160758825700,1.92582568359375,0.6813991069793701,1.4878896474838257,0.4280645549297333
1725631160768860000,1.93585986328125,0.7089998126029968,1.6194367408752441,0.600641667842865
1725631160778893800,1.945893798828125,0.8153747320175171,1.6775376796722412,0.8730760216712952
1725631160788927700,1.955927734375,0.9061678051948547,1.7605901956558228,1.0580315589904785
1725631160798963000,1.965962890625,0.9962767958641052,1.7697700262069702,1.077778697013855
1725631160808996900,1.975996826171875,1.1127567291259766,1.9632110595703125,1.0314698219299316
1725631160819030800,1.98603076171875,1.279686450958252,2.266000509262085,0.9465779662132263
1725631160829065000,1.99606494140625,1.3575704097747803,2.4729275703430176,0.8334964513778687
1725631160839100000,2.006099853515625,1.3392456769943237,2.5303895473480225,0.8426255583763123
1725631160849133800,2.0161337890625,1.2419662475585938,2.4338362216949463,0.9705662131309509
1725631160859167700,2.026167724609375,1.0754473209381104,1.9622657299041748,1.1161071062088013
1725631160869202000,2.036201904296875,0.8572760224342346,1.2982269525527954,1.2572981119155884
1725631160879236900,2.04623681640625,0.7379574179649353,0.8518273830413818,1.423590898513794
1725631160889270800,2.056270751953125,0.7152398228645325,0.5460008978843689,1.6113322973251343
1725631160899305000,2.066304931640625,0.6861071586608887,0.3909446895122528,1.6675992012023926
1725631160909339000,2.0763388671875,0.5439921021461487,0.19156979024410248,1.506880283355713
1725631160919373800,2.086373779296875,0.2894118130207062,-0.10042497515678406,1.4498926401138306
1725631160929407700,2.09640771484375,-0.1680111289024353,-0.4361851215362549,1.2006876468658447
1725631160939442000,2.10644189453125,-0.8662910461425781,-0.37646546959877014,0.5576288104057312
1725631160949475800,2.116475830078125,-1.4355555772781372,0.381269633769989,-0.014445063658058643
1725631160959510800,2.1265107421875,-1.5854920148849487,1.0186917781829834,-0.3250989019870758
1725631160969545000,2.136544921875,-1.3231589794158936,1.2399290800094604,-0.38638994097709656
1725631160979578600,2.14657861328125,-0.7585130333900452,1.0756105184555054,-0.4046696722507477
1725631160989612800,2.15661279296875,-0.16551867127418518,0.660005509853363,-0.4636666774749756
1725631160999647700,2.166647705078125,0.1829831451177597,0.11173660308122635,-0.5989864468574524
1725631161009682000,2.176681884765625,0.2954876124858856,-0.37486395239830017,-0.7355964779853821
1725631161019715800,2.1867158203125,0.2644283175468445,-0.9834600687026978,-0.7753633856773376
1725631161029750800,2.196750732421875,0.2157321274280548,-1.4546781778335571,-0.8288697600364685
1725631161039785000,2.206784912109375,0.27815529704093933,-1.5890583992004395,-0.8358741402626038
1725631161049819000,2.21681884765625,0.3930286169052124,-2.049229860305786,-0.7201371788978577
1725631161059852800,2.226852783203125,0.3499680757522583,-2.4548447132110596,-0.5605966448783875
1725631161069888000,2.236887939453125,0.08757853507995605,-3.196544647216797,-0.5291740298271179
1725631161079922000,2.246921875,-0.19085858762264252,-4.082269668579102,-0.422158420085907
1725631161089955800,2.256955810546875,-0.3302846848964691,-5.263280868530273,0.020353231579065323
1725631161099990000,2.266989990234375,0.06231178715825081,-6.534278392791748,0.4083409905433655
1725631161110025000,2.27702490234375,0.579289436340332,-6.711679458618164,-0.7349433898925781
1725631161120059000,2.287058837890625,0.781252920627594,-6.060424327850342,-1.6336997747421265
1725631161130092800,2.2970927734375,0.6527076959609985,-5.356554985046387,-2.069399356842041
1725631161140127000,2.307126953125,0.5294532179832458,-4.420790672302246,-2.498170852661133
1725631161150161700,2.31716162109375,0.590256929397583,-3.109149217605591,-2.8788139820098877
1725631161160195800,2.32719580078125,0.7873798608779907,-1.8574901819229126,-2.9617817401885986
1725631161170230000,2.33722998046875,1.1916601657867432,-1.1076209545135498,-2.6014535427093506
1725631161180263700,2.347263671875,1.6102571487426758,-0.7510143518447876,-1.9361248016357422
1725631161190299000,2.357298828125,1.8848892450332642,-0.48292243480682373,-1.2095369100570679
1725631161200332800,2.367332763671875,1.8769038915634155,-0.09043138474225998,-0.7772510647773743
1725631161210366700,2.37736669921875,1.8246853351593018,0.15580768883228302,-0.7072248458862305
1725631161220401000,2.38740087890625,1.9218227863311768,0.21222227811813354,-0.9284690618515015
1725631161230435800,2.397435791015625,1.734556794166565,0.4035717248916626,-1.3182588815689087
1725631161240470000,2.407469970703125,1.554775357246399,0.33018606901168823,-1.5740889310836792
1725631161250503700,2.417503662109375,1.6286373138427734,0.23305581510066986,-1.716860294342041
1725631161260537900,2.427537841796875,1.8271410465240479,0.25360485911369324,-1.7743515968322754
1725631161270572800,2.43757275390625,2.2349562644958496,0.3304423689842224,-1.7120496034622192
1725631161280606700,2.447606689453125,2.6258957386016846,0.6482564806938171,-1.6053459644317627
1725631161290641000,2.457640869140625,2.872009038925171,1.1379207372665405,-1.543982744216919
1725631161300674800,2.4676748046875,2.962106704711914,1.6586512327194214,-1.643571376800537
1725631161310710000,2.4777099609375,2.9808106422424316,2.076943874359131,-1.9091782569885254
1725631161320743700,2.48774365234375,2.867088794708252,2.293598175048828,-2.2034430503845215
1725631161330777900,2.49777783203125,2.672464609146118,2.3909056186676025,-2.5063223838806152
1725631161340812800,2.507812744140625,2.415822982788086,2.3915317058563232,-2.8471405506134033
1725631161350846700,2.5178466796875,1.956567645072937,2.2002432346343994,-3.1321322917938232
1725631161360881000,2.527880859375,1.3311424255371094,1.6868610382080078,-3.261964797973633
1725631161370914800,2.537914794921875,0.6926274299621582,1.1189550161361694,-3.2343647480010986
1725631161380949800,2.54794970703125,0.015355532988905907,0.445069283246994,-3.1050610542297363
1725631161390984000,2.55798388671875,-0.7662489414215088,-0.47400492429733276,-2.9382691383361816
1725631161401017900,2.568017822265625,-1.1141341924667358,-1.0204263925552368,-3.070469617843628
1725631161411051800,2.5780517578125,-0.576322615146637,-1.4545303583145142,-2.7515738010406494
1725631161421086700,2.588086669921875,2.9109721183776855,-6.146600246429443,1.8306394815444946
1725631161431121000,2.598120849609375,4.593375205993652,-7.128755569458008,6.02085542678833
1725631161441155000,2.608155029296875,4.053600788116455,2.0650224685668945,6.683305740356445
1725631161451188700,2.618188720703125,3.1451005935668945,7.91063928604126,6.793184757232666
1725631161461224000,2.628223876953125,2.5887370109558105,7.5255608558654785,5.055932998657227
1725631161471257900,2.6382578125,1.918048620223999,4.373108863830566,2.3096930980682373
1725631161481291800,2.648291748046875,1.0042428970336914,-0.32473549246788025,-0.31839022040367126
1725631161491326000,2.658325927734375,-0.009212633594870567,-3.5645618438720703,-1.937829852104187
1725631161501361000,2.66836083984375,-0.6401520371437073,-4.490880966186523,-2.4383089542388916
1725631161511394800,2.678394775390625,-0.9721099734306335,-4.256255626678467,-2.170685291290283
1725631161521428700,2.6884287109375,-1.0751689672470093,-3.51843523979187,-1.4939217567443848
1725631161531463000,2.698462890625,-0.8538775444030762,-3.129725456237793,-0.6796861290931702
1725631161541497600,2.70849755859375,-0.42598387598991394,-2.947284460067749,0.031047243624925613
1725631161551531800,2.71853173828125,0.06368888169527054,-2.564443349838257,0.6434121131896973
1725631161561566000,2.72856591796875,0.41058745980262756,-2.4790642261505127,1.1462185382843018
1725631161571599600,2.738599609375,0.5315450429916382,-2.825735330581665,1.4370617866516113
1725631161581634800,2.748634765625,0.39149168133735657,-3.2035653591156006,1.446368932723999
1725631161591668700,2.758668701171875,0.06262138485908508,-3.5173614025115967,1.203381061553955
1725631161601702700,2.76870263671875,-0.2828911542892456,-3.9205849170684814,0.8181852102279663
1725631161611736800,2.77873681640625,-0.4299365282058716,-4.209845542907715,0.43254220485687256
1725631161621771800,2.788771728515625,-0.39776602387428284,-4.322516918182373,0.1728210747241974
1725631161631805700,2.7988056640625,-0.2546685039997101,-4.258959770202637,0.07801786065101624
1725631161641839600,2.808839599609375,-0.1072743833065033,-4.086452007293701,0.13594016432762146
1725631161651873800,2.818873779296875,-0.009718531742691994,-3.937211751937866,0.2874104082584381
1725631161661909000,2.828908935546875,0.0056634568609297276,-3.8276257514953613,0.46874916553497314
1725631161671942700,2.838942626953125,0.03182501718401909,-3.689239025115967,0.5175875425338745
1725631161681976800,2.848976806640625,0.09797009080648422,-3.2952473163604736,0.34123262763023376
1725631161692011800,2.85901171875,0.2480035275220871,-2.003573417663574,-0.1914464682340622
1725631161702045700,2.869045654296875,0.5600535273551941,0.009957303293049335,-1.0567042827606201
1725631161712080000,2.879079833984375,0.8621358871459961,1.361814260482788,-1.6818879842758179
1725631161722113800,2.88911376953125,1.0719599723815918,1.585715889930725,-1.7768933773040771
1725631161732148700,2.899148681640625,1.2816990613937378,1.1530622243881226,-1.7161319255828857
1725631161742182700,2.9091826171875,1.4134069681167603,0.7040792107582092,-1.697157621383667
1725631161752216800,2.919216796875,1.4754316806793213,0.2704508304595947,-1.676437497138977
1725631161762250800,2.929250732421875,1.4853708744049072,0.036215201020240784,-1.5260131359100342
1725631161772285700,2.93928564453125,1.3843942880630493,0.44521281123161316,-1.1873072385787964
1725631161782319900,2.94931982421875,1.1164312362670898,1.5889891386032104,-0.7412373423576355
1725631161792353800,2.959353759765625,0.6453521847724915,3.3355183601379395,-0.42023321986198425
1725631161802387700,2.9693876953125,0.09914813190698624,4.574615001678467,-0.327053427696228
1725631161812422700,2.979422607421875,-0.2586667537689209,5.1327314376831055,-0.2733513116836548
1725631161822456800,2.989456787109375,-0.37505990266799927,5.421038627624512,-0.16051587462425232
1725631161832490800,2.99949072265625,-0.31139224767684937,5.751410484313965,-0.09665034711360931
1725631161842524700,3.009524658203125,-0.2130735069513321,5.8032989501953125,-0.08806869387626648
1725631161852560000,3.019559814453125,-0.09190155565738678,6.103786945343018,0.07528427988290787
1725631161862593500,3.029593505859375,-0.04046288877725601,6.479696750640869,0.2436693012714386
1725631161872627700,3.039627685546875,0.03109811246395111,6.702550888061523,0.3052557110786438
1725631161882662000,3.049661865234375,0.20072788000106812,7.261817455291748,0.39247453212738037
1725631161892696800,3.05969677734375,0.4061231315135956,8.001060485839844,0.41118323802948
1725631161902730800,3.069730712890625,0.17201600968837738,8.306944847106934,0.044538699090480804
1725631161912764700,3.0797646484375,-0.8931235074996948,8.00403118133545,-1.018909215927124
1725631161922798800,3.089798828125,-3.130317449569702,6.412346363067627,-2.9928364753723145
1725631161932833800,3.099833740234375,-5.12005615234375,5.189420223236084,-4.154240131378174
1725631161942867700,3.10986767578125,-4.995844841003418,5.064411640167236,-3.425827980041504
1725631161952902000,3.11990185546875,-3.5411999225616455,1.4019454717636108,-1.4879897832870483
1725631161962936800,3.129936767578125,-1.915606141090393,-0.11035673320293427,0.3651666045188904
1725631161972970800,3.139970703125,-1.0170769691467285,0.001601487398147583,1.2150273323059082
1725631161983005000,3.1500048828125,-0.7083898782730103,-0.11873814463615417,1.4597859382629395
1725631161993038600,3.16003857421875,-0.6028655767440796,-0.2639070451259613,1.3288705348968506
1725631162003073800,3.17007373046875,-0.585460364818573,-0.3209092319011688,1.0208885669708252
1725631162013107700,3.180107666015625,-0.6576621532440186,-0.1809590458869934,0.6109553575515747
1725631162023142000,3.190141845703125,-0.7743368744850159,0.1497809886932373,0.10852483659982681
1725631162033175800,3.20017578125,-0.7468916773796082,0.41793200373649597,-0.4740850627422333
1725631162043210800,3.210210693359375,-0.47548341751098633,-0.1332305371761322,-0.861641526222229
1725631162053245000,3.220244873046875,0.13653738796710968,-1.623530626296997,-0.1688678115606308
1725631162063278600,3.230278564453125,0.47976991534233093,-0.8689523935317993,0.2266589254140854
1725631162073312800,3.240312744140625,0.7486141324043274,-0.7324523329734802,0.00043963780626654625
1725631162083347700,3.25034765625,0.8354824781417847,-0.5664985179901123,-0.2262294590473175
1725631162093381600,3.260381591796875,0.8132264614105225,-0.32480388879776,-0.32501569390296936
1725631162103415800,3.270415771484375,0.7874834537506104,-0.19361957907676697,-0.33711355924606323
1725631162113449700,3.28044970703125,0.7905687689781189,-0.3788645267486572,-0.31888556480407715
1725631162123485000,3.29048486328125,0.8283144235610962,-0.6459972858428955,-0.32636815309524536
1725631162133518600,3.3005185546875,0.8657286763191223,-0.6615692973136902,-0.3722461760044098
1725631162143552800,3.310552734375,0.8298472762107849,-0.4847346842288971,-0.42067939043045044
1725631162153587000,3.3205869140625,0.7708132266998291,-0.34290724992752075,-0.41666653752326965
1725631162163621600,3.33062158203125,0.7467390298843384,-0.23919951915740967,-0.41587767004966736
1725631162173655800,3.34065576171875,0.7401136159896851,-0.09713346511125565,-0.48989439010620117
1725631162183689700,3.350689697265625,0.739857017993927,0.12437029182910919,-0.5686505436897278
1725631162193723600,3.3607236328125,0.7684247493743896,0.3626108169555664,-0.5868127942085266
1725631162203758600,3.370758544921875,0.8216972351074219,0.46547141671180725,-0.5250447392463684
1725631162213792800,3.380792724609375,0.862774670124054,0.4339955151081085,-0.4371117055416107
1725631162223826700,3.39082666015625,0.8794869780540466,0.46756380796432495,-0.3341149687767029
1725631162233860600,3.400860595703125,0.8777114748954773,0.6211032867431641,-0.21536676585674286
1725631162243895800,3.410895751953125,0.8684331774711609,0.7505871057510376,-0.10241363942623138
1725631162253929700,3.4209296875,0.8360390067100525,0.7867379188537598,-0.03630945459008217
1725631162263963600,3.430963623046875,0.8443622589111328,0.7986873984336853,-0.027364840731024742
1725631162273998800,3.440998779296875,0.8742064833641052,0.967051088809967,0.027557531371712685
1725631162284032800,3.45103271484375,0.8965663313865662,1.0743268728256226,0.15085631608963013
1725631162294066700,3.461066650390625,0.8967620730400085,1.0083587169647217,0.21990329027175903
1725631162304100900,3.471100830078125,0.8740639686584473,0.8760607838630676,0.17856615781784058
1725631162314135800,3.4811357421875,0.8375083804130554,0.9186550974845886,0.23495620489120483
1725631162324170000,3.491169921875,0.8019164204597473,1.1644705533981323,0.5504767298698425
1725631162334203600,3.50120361328125,0.7800689339637756,1.4705047607421875,1.0911424160003662
1725631162344237800,3.51123779296875,0.8153864741325378,1.5739747285842896,1.6161037683486938
1725631162354272800,3.521272705078125,1.0317896604537964,1.5838638544082642,1.9746017456054688
1725631162364306700,3.531306640625,1.3082375526428223,1.4679776430130005,2.0149283409118652
1725631162374340900,3.5413408203125,1.4826202392578125,1.3168970346450806,1.7865194082260132
1725631162384374800,3.551374755859375,1.4658193588256836,1.3115322589874268,1.5266411304473877
1725631162394409700,3.56140966796875,1.3142445087432861,1.4096574783325195,1.3215582370758057
1725631162404443600,3.571443603515625,1.0622828006744385,1.6295865774154663,1.134861946105957
1725631162414477800,3.581477783203125,0.7877047657966614,1.9214073419570923,0.9997208714485168
1725631162424511700,3.59151171875,0.537975549697876,2.2275519371032715,0.89178866147995
1725631162434546700,3.601546630859375,0.32539185881614685,2.4680447578430176,0.8129153847694397
1725631162444580900,3.611580810546875,0.18321236968040466,2.587961196899414,0.7186770439147949
1725631162454614800,3.62161474609375,0.13672742247581482,2.5552401542663574,0.6430560350418091
1725631162464648700,3.631648681640625,0.15366433560848236,2.334339141845703,0.5850523710250854
1725631162474683600,3.64168359375,0.21149061620235443,2.02714467048645,0.6255412101745605
1725631162484717800,3.6517177734375,0.28329893946647644,1.6260418891906738,0.7253102660179138
1725631162494751700,3.661751708984375,0.1822681874036789,1.1828854084014893,0.7609177827835083
1725631162504786700,3.67178662109375,0.0240377988666296,0.6543017029762268,0.6707687377929688
1725631162514820900,3.68182080078125,-0.06336421519517899,0.026453206315636635,0.47059088945388794
1725631162524854800,3.691854736328125,-0.1440165936946869,-0.5638040900230408,0.2551722228527069
1725631162534888700,3.701888671875,-0.26159781217575073,-1.0403591394424438,0.07901954650878906
1725631162544924000,3.711923828125,-0.3712162673473358,-1.350167155265808,-0.046026699244976044
1725631162554958000,3.7219580078125,-0.47323372960090637,-1.5009492635726929,-0.1421300619840622
1725631162564992300,3.7319921875,-0.5529139637947083,-1.5709859132766724,-0.2265649288892746
1725631162575026000,3.74202587890625,-0.5590730905532837,-1.58489990234375,-0.3020956516265869
1725631162585061000,3.75206103515625,-0.45607033371925354,-1.5106654167175293,-0.3558201193809509
1725631162595095000,3.762094970703125,-0.2379012256860733,-1.2365622520446777,-0.35160404443740845
1725631162605129200,3.772129150390625,-0.02248910628259182,-0.7144644260406494,-0.2649866044521332
1725631162615163100,3.7821630859375,0.13562889397144318,-0.08183024823665619,-0.0968620553612709
1725631162625198000,3.792197998046875,0.27658480405807495,0.5074922442436218,0.1057722195982933
1725631162635232300,3.802232177734375,0.4413982629776001,1.0661277770996094,0.2751884162425995
1725631162645266200,3.81226611328125,0.595119059085846,1.646742343902588,0.35115355253219604
1725631162655300000,3.822300048828125,0.6646184921264648,2.1447689533233643,0.3399325907230377
1725631162665335300,3.832335205078125,0.6934196949005127,2.4258105754852295,0.3018779754638672
1725631162675369000,3.842368896484375,0.7283105254173279,2.5610177516937256,0.29774126410484314
1725631162685403100,3.852403076171875,0.7728672027587891,2.6994757652282715,0.2992938160896301
1725631162695437300,3.862437255859375,0.7978692650794983,2.866527795791626,0.27109917998313904
1725631162705472300,3.87247216796875,0.7497673034667969,2.9593913555145264,0.23009361326694489
1725631162715506200,3.882506103515625,0.598967432975769,2.933727741241455,0.17410410940647125
1725631162725540000,3.8925400390625,0.3781355023384094,2.733220100402832,0.14162249863147736
1725631162735574300,3.90257421875,0.16130918264389038,2.4020988941192627,0.15367862582206726
1725631162745609000,3.91260888671875,0.05227106064558029,2.0176682472229004,0.22408577799797058
1725631162755642000,3.92264208984375,0.04516122117638588,1.5820740461349487,0.34452348947525024
1725631162765677300,3.93267724609375,0.030925327911973,1.1231709718704224,0.47490808367729187
1725631162775711000,3.9427109375,-0.008824480697512627,0.6849429607391357,0.6006857752799988
1725631162785745200,3.9527451171875,-0.10753990709781647,0.17705896496772766,0.701755940914154
1725631162795780000,3.962780029296875,-0.20149250328540802,-0.30178219079971313,0.7639502882957458
1725631162805814000,3.97281396484375,-0.14634652435779572,-0.571351170539856,0.8343934416770935
1725631162815848200,3.98284814453125,-0.03503011539578438,-0.6900416016578674,0.9006616473197937
1725631162825882000,3.992882080078125,0.07615410536527634,-0.7104859948158264,0.8847373127937317
1725631162835917300,4.002917236328125,0.010121560655534267,-0.8612602949142456,0.8116844296455383
1725631162845951000,4.012950927734375,-0.14229454100131989,-0.979692280292511,0.7370985746383667
1725631162855985200,4.022985107421875,-0.21292130649089813,-0.9295932054519653,0.7379704713821411
1725631162866019300,4.033019287109375,-0.15927672386169434,-0.8296021223068237,0.7852194905281067
1725631162876054000,4.043053955078125,-0.07778559625148773,-0.7557127475738525,0.8064297437667847
1725631162886088200,4.053088134765625,-0.053765855729579926,-0.6424060463905334,0.7528902292251587
1725631162896122000,4.0631220703125,-0.10406311601400375,-0.4627838134765625,0.6262720823287964
1725631162906156000,4.073156005859375,-0.18362943828105927,-0.38589125871658325,0.5063979029655457
1725631162916191000,4.08319091796875,-0.2286035716533661,-0.4100373387336731,0.4428147077560425
1725631162926225200,4.09322509765625,-0.24397726356983185,-0.460904061794281,0.3922240436077118
1725631162936259000,4.103259033203125,-0.2627887725830078,-0.4613165855407715,0.3066718578338623
1725631162946293000,4.11329296875,-0.33245083689689636,-0.5062240362167358,0.1694323867559433
1725631162956328200,4.123328125,-0.41878145933151245,-0.5755903124809265,0.01571607030928135
1725631162966362000,4.133362060546875,-0.48914504051208496,-0.6541929244995117,-0.12589409947395325
1725631162976396000,4.14339599609375,-0.5607233643531799,-0.7903481125831604,-0.20957808196544647
1725631162986430200,4.15343017578125,-0.5895485281944275,-0.8675424456596375,-0.26007139682769775
1725631162996465200,4.163465087890625,-0.5504557490348816,-0.9073202610015869,-0.25596877932548523
1725631163006499000,4.1734990234375,-0.521883487701416,-0.9277306199073792,-0.1948213428258896
1725631163016533200,4.183533203125,-0.505687952041626,-0.9401172399520874,-0.14813347160816193
1725631163026567200,4.193567138671875,-0.472130686044693,-0.9645300507545471,-0.09904779493808746
1725631163036602000,4.20360205078125,-0.40448054671287537,-1.0033260583877563,-0.052184682339429855
1725631163046636000,4.213635986328125,-0.29217445850372314,-1.0123430490493774,0.006527054589241743
1725631163056670200,4.223670166015625,-0.19743943214416504,-0.9026533365249634,0.10626296699047089
1725631163066705200,4.233705078125,-0.1757645308971405,-0.7130504250526428,0.21051380038261414
1725631163076739000,4.243739013671875,-0.13368259370326996,-0.5441346764564514,0.24245788156986237
1725631163086773200,4.253773193359375,-0.11247263103723526,-0.4736194610595703,0.21572501957416534
1725631163096807200,4.26380712890625,-0.16377043724060059,-0.4746173322200775,0.17864742875099182
1725631163106842000,4.273842041015625,-0.34456658363342285,-0.45931509137153625,0.22442933917045593
1725631163116876000,4.2838759765625,-0.5774456262588501,-0.3747330904006958,0.3606654703617096
1725631163126910200,4.29391015625,-0.7946633100509644,-0.3232532739639282,0.5039274096488953
1725631163136944000,4.303944091796875,-0.9651412963867188,-0.3687573969364166,0.6118677258491516
1725631163146979000,4.31397900390625,-1.0435527563095093,-0.4732038378715515,0.6782459020614624
1725631163157013200,4.32401318359375,-1.039838433265686,-0.4736698865890503,0.7457152605056763
1725631163167047000,4.334046875,-1.0384104251861572,-0.41524848341941833,0.7962677478790283
1725631163177081000,4.3440810546875,-1.041861891746521,-0.40569570660591125,0.8108178973197937
1725631163187116000,4.354115966796875,-1.038266897201538,-0.510753870010376,0.8261089324951172
1725631163197150200,4.364150146484375,-0.9541525840759277,-0.6891531944274902,0.8599515557289124
1725631163207184100,4.37418408203125,-0.856792151927948,-0.7727223634719849,0.9361466765403748
1725631163217219000,4.384218994140625,-0.7562258839607239,-0.875006914138794,0.9635311961174011
1725631163227253200,4.394253173828125,-0.651336669921875,-1.0042186975479126,0.854407012462616
1725631163237287200,4.404287109375,-0.572130024433136,-1.0911719799041748,0.642581582069397
1725631163247321000,4.414321044921875,-0.5428868532180786,-1.1283668279647827,0.4119437634944916
1725631163257356300,4.424356201171875,-0.42576658725738525,-0.9512650966644287,0.24629542231559753
1725631163267390200,4.43439013671875,-0.30089667439460754,-0.6687016487121582,0.26646339893341064
1725631163277424000,4.444424072265625,-0.24508638679981232,-0.4894144535064697,0.3530518114566803
1725631163287458300,4.454458251953125,-0.3157258927822113,-0.5634755492210388,0.3380839228630066
1725631163297493200,4.4644931640625,-0.37244081497192383,-0.4993431568145752,0.2996300160884857
1725631163307527200,4.474527099609375,-0.33882150053977966,-0.14968174695968628,0.3573654294013977
1725631163317561000,4.48456103515625,-0.28840598464012146,0.2952307462692261,0.5747677683830261
1725631163327595300,4.49459521484375,-0.21717199683189392,0.5234671235084534,0.7676717042922974
1725631163337630000,4.5046298828125,-0.13134923577308655,0.6899344325065613,0.7503966093063354
1725631163347664100,4.5146640625,-0.08501341938972473,0.6987505555152893,0.6285912990570068
1725631163357698300,4.5246982421875,0.00886380486190319,0.6051971912384033,0.4812183380126953
1725631163367732000,4.53473193359375,0.1092664897441864,0.5440207719802856,0.30123451352119446
1725631163377767200,4.54476708984375,0.15046052634716034,0.4094986915588379,0.09972697496414185
1725631163387801000,4.554801025390625,0.22236715257167816,0.3675799071788788,-0.09398620575666428
1725631163397835300,4.564835205078125,0.3120352625846863,0.4666194021701813,-0.2102704793214798
1725631163407869200,4.574869140625,0.3455272912979126,0.5742536187171936,-0.2528896927833557
1725631163417904000,4.584904052734375,0.3303680419921875,0.6354232430458069,-0.3453908860683441
1725631163427938300,4.594938232421875,0.3100995719432831,0.6827308535575867,-0.47448524832725525
1725631163437972000,4.604971923828125,0.31106603145599365,0.7279007434844971,-0.5643373727798462
1725631163448007200,4.615007080078125,0.3020000159740448,0.7511574625968933,-0.6395173072814941
1725631163458041000,4.625041015625,0.2981647849082947,0.7494224309921265,-0.7042483687400818
1725631163468075000,4.635074951171875,0.27526935935020447,0.7467212677001953,-0.7509112358093262
1725631163478109200,4.645109130859375,0.25098106265068054,0.6950213313102722,-0.7714173197746277
1725631163488144100,4.65514404296875,0.26845577359199524,0.5761101841926575,-0.7467413544654846
1725631163498178300,4.66517822265625,0.24660879373550415,0.3771110773086548,-0.6830489039421082
1725631163508212000,4.6752119140625,0.1017828956246376,0.2023877203464508,-0.6587842702865601
1725631163518246100,4.68524609375,0.022738676518201828,0.18077164888381958,-0.6939337253570557
1725631163528281000,4.695281005859375,-0.045585595071315765,0.20737811923027039,-0.8201286196708679
1725631163538315000,4.70531494140625,-0.1365879476070404,0.1681518852710724,-1.0495892763137817
1725631163548349400,4.715349365234375,-0.25741511583328247,0.1583622694015503,-1.3517210483551025
1725631163558383400,4.72538330078125,-0.28783321380615234,0.158289834856987,-1.6620839834213257
1725631163568418600,4.73541845703125,-0.18962161242961884,0.05817212909460068,-1.8978281021118164
1725631163578452200,4.7454521484375,-0.022760726511478424,-0.12179470807313919,-2.001818895339966
1725631163588486400,4.755486328125,0.1797061413526535,-0.3153955638408661,-1.9993300437927246
1725631163598521300,4.765521240234375,0.4264914095401764,-0.5275338888168335,-1.8841278553009033
1725631163608555300,4.77555517578125,0.622604489326477,-0.7513251900672913,-1.728920578956604
1725631163618589400,4.78558935546875,0.7805930972099304,-0.9166507720947266,-1.5496368408203125
1725631163628623400,4.795623291015625,0.9247361421585083,-0.9535472393035889,-1.3048691749572754
1725631163638658300,4.805658203125,0.9757910370826721,-0.92432701587677,-1.0124626159667969
1725631163648692500,4.8156923828125,0.9364890456199646,-0.9271227121353149,-0.7190693020820618
1725631163658726400,4.825726318359375,0.8683438301086426,-0.9061703085899353,-0.46155601739883423
1725631163668760300,4.83576025390625,0.791962742805481,-0.7632887959480286,-0.24056126177310944
1725631163678795300,4.845795166015625,0.6954929232597351,-0.521392285823822,-0.1076415628194809
1725631163688829400,4.855829345703125,0.5958430171012878,-0.2055794894695282,-0.0641353651881218
1725631163698863400,4.86586328125,0.5365948677062988,0.1374678909778595,-0.05660155415534973
1725631163708897300,4.875897216796875,0.5263047814369202,0.45765161514282227,-0.021022668108344078
1725631163718932500,4.885932373046875,0.5549031496047974,0.7708998322486877,0.08551310002803802
1725631163728966400,4.89596630859375,0.6231200098991394,1.0111525058746338,0.23003146052360535
1725631163739000300,4.906000244140625,0.6912665367126465,1.1067028045654297,0.3336600959300995
1725631163749034500,4.916034423828125,0.7343786954879761,1.0723133087158203,0.3905608355998993
1725631163759069400,4.9260693359375,0.7746433019638062,0.9846526384353638,0.400851309299469
1725631163769103400,4.936103271484375,0.787689745426178,0.858556866645813,0.3978087604045868
1725631163779137300,4.94613720703125,0.7776057124137878,0.6687493920326233,0.35060980916023254
1725631163789172500,4.95617236328125,0.7138906717300415,0.47426465153694153,0.3014467656612396
1725631163799206400,4.966206298828125,0.5970673561096191,0.2586309015750885,0.25688809156417847
1725631163809240300,4.976240234375,0.46594947576522827,0.006017210427671671,0.20440924167633057
1725631163819274500,4.9862744140625,0.40315505862236023,-0.23872755467891693,0.11220315098762512
1725631163829309400,4.996309326171875,0.4073013365268707,-0.4776219129562378,-0.024003956466913223
1725631163839343400,5.00634326171875,0.4192437529563904,-0.6841790676116943,-0.10614756494760513
1725631163849377300,5.016377197265625,0.4431801438331604,-0.7907229065895081,-0.13247066736221313
1725631163859411500,5.026411376953125,0.48088786005973816,-0.811941921710968,-0.14215180277824402
1725631163869446400,5.0364462890625,0.49769705533981323,-0.8176324367523193,-0.1278398185968399
1725631163879480300,5.046480224609375,0.4648999571800232,-0.6927903890609741,-0.12080134451389313
1725631163889514500,5.056514404296875,0.44636672735214233,-0.3813139796257019,-0.22149096429347992
1725631163899548400,5.06654833984375,0.44034451246261597,-0.11847995966672897,-0.42203283309936523
1725631163909583400,5.076583251953125,0.4796956181526184,0.04616033285856247,-0.6913329362869263
1725631163919617500,5.086617431640625,0.5158605575561523,0.19348853826522827,-0.9430155158042908
1725631163929651500,5.0966513671875,0.5344812273979187,0.4081224203109741,-1.100913405418396
1725631163939685400,5.106685302734375,0.5557095408439636,0.6572396159172058,-1.1609232425689697
1725631163949720300,5.11672021484375,0.5381256341934204,0.9104357361793518,-1.2054282426834106
1725631163959754500,5.12675439453125,0.46600833535194397,1.1329420804977417,-1.2602688074111938
1725631163969788400,5.136788330078125,0.3770424723625183,1.2864186763763428,-1.3077369928359985
1725631163979823400,5.1468232421875,0.25356394052505493,1.3442680835723877,-1.3042088747024536
1725631163989857500,5.156857421875,0.1251499503850937,1.3161988258361816,-1.2447057962417603
1725631163999891200,5.16689111328125,0.031994450837373734,1.2345072031021118,-1.1215726137161255
1725631164009925400,5.17692529296875,-0.05144507810473442,1.1228704452514648,-0.9744921326637268
1725631164019960300,5.186960205078125,-0.08760733902454376,0.9417059421539307,-0.7779406905174255
1725631164029994500,5.196994384765625,-0.025269603356719017,0.7043107748031616,-0.5154497623443604
1725631164040028400,5.2070283203125,0.06472420692443848,0.5504721999168396,-0.23176530003547668
1725631164050062300,5.217062255859375,0.11810307204723358,0.4673280715942383,-0.0526994913816452
1725631164060097500,5.22709765625,0.24214565753936768,0.3761419653892517,0.09951242059469223
1725631164070131200,5.237131103515625,0.32315748929977417,0.32470259070396423,0.27998727560043335
1725631164080165400,5.247165283203125,0.2954113483428955,0.286464661359787,0.4468018412590027
1725631164090199600,5.257199462890625,0.22900214791297913,0.24228857457637787,0.5556825995445251
1725631164100234200,5.267234130859375,0.12554234266281128,0.2293970137834549,0.5879907608032227
1725631164110268400,5.277268310546875,0.014090128242969513,0.22647050023078918,0.5766016840934753
1725631164120302300,5.28730224609375,-0.10004736483097076,0.2574923038482666,0.520063579082489
1725631164130337500,5.297337646484375,-0.17678791284561157,0.30783432722091675,0.43941348791122437
1725631164140371200,5.30737109375,-0.1453855186700821,0.33346912264823914,0.4394100308418274
1725631164150405400,5.3174052734375,-0.1328720897436142,0.39399880170822144,0.5240572690963745
1725631164160439600,5.327439453125,-0.14753758907318115,0.42487338185310364,0.6615293622016907
1725631164170474200,5.33747412109375,-0.18359804153442383,0.2882988452911377,0.8019569516181946
1725631164180508400,5.34750830078125,-0.2720578908920288,0.022248517721891403,0.8773528933525085
1725631164190542300,5.357542236328125,-0.29907962679862976,-0.30615782737731934,0.9114460945129395
1725631164200576300,5.367576171875,-0.3018738031387329,-0.7142310738563538,0.9399065375328064
1725631164210611500,5.377611572265625,-0.3199927806854248,-1.0509849786758423,0.9382959604263306
1725631164220645400,5.387645263671875,-0.36027735471725464,-1.3350324630737305,0.9095178842544556
1725631164230679300,5.39767919921875,-0.3931565582752228,-1.5785562992095947,0.8158788084983826
1725631164240713500,5.40771337890625,-0.37363025546073914,-1.7263966798782349,0.6367878913879395
1725631164250748400,5.41774853515625,-0.4165864586830139,-1.8220677375793457,0.4446117877960205
1725631164260782600,5.427782470703125,-0.544854462146759,-1.8492228984832764,0.25153154134750366
1725631164270816300,5.437816162109375,-0.6502465605735779,-1.7208203077316284,0.05668102204799652
1725631164280851500,5.4478515625,-0.6408805251121521,-1.4399555921554565,-0.10140208154916763
1725631164290885400,5.457885498046875,-0.549863338470459,-1.0417306423187256,-0.1793297827243805
1725631164300919300,5.467919189453125,-0.45181751251220703,-0.6073424220085144,-0.20391155779361725
1725631164310953500,5.477953369140625,-0.3575623035430908,-0.2048327773809433,-0.19370903074741364
1725631164320988400,5.487988525390625,-0.2846534848213196,0.17962488532066345,-0.19255028665065765
1725631164331022600,5.498022705078125,-0.2630236744880676,0.5264719128608704,-0.2142149657011032
1725631164341056300,5.50805615234375,-0.24158096313476562,0.7753562927246094,-0.2526039183139801
1725631164351090400,5.51809033203125,-0.2404649704694748,0.9380353689193726,-0.2701479196548462
1725631164361125400,5.52812548828125,-0.27711644768714905,1.000313401222229,-0.2710115611553192
1725631164371159300,5.5381591796875,-0.3236597776412964,0.976646363735199,-0.257744163274765
1725631164381193500,5.548193359375,-0.36843788623809814,0.8705718517303467,-0.2336188405752182
1725631164391227400,5.558227294921875,-0.4403301179409027,0.7811728119850159,-0.1480901837348938
1725631164401262300,5.568262451171875,-0.4481810927391052,0.5826805233955383,-0.02993052266538143
1725631164411296300,5.578296142578125,-0.40483328700065613,0.34012389183044434,0.08073491603136063
1725631164421330400,5.588330322265625,-0.35388967394828796,0.1030743271112442,0.18028654158115387
1725631164431364400,5.5983642578125,-0.2942516803741455,-0.17096634209156036,0.26624995470046997
1725631164441399300,5.6083994140625,-0.3257909417152405,-0.36997342109680176,0.32613804936408997
1725631164451433500,5.61843359375,-0.38804006576538086,-0.5433732867240906,0.34149473905563354
1725631164461467400,5.62846728515625,-0.46270257234573364,-0.6712446808815002,0.3797758221626282
1725631164471502300,5.63850244140625,-0.5042636394500732,-0.7673728466033936,0.4352841079235077
1725631164481536500,5.64853662109375,-0.5892469882965088,-0.6693528294563293,0.5879711508750916
1725631164491570400,5.6585703125,-0.6613764762878418,-0.47350624203681946,0.7909725904464722
1725631164501604400,5.668604248046875,-0.6250823736190796,-0.48919224739074707,0.9057865738868713
1725631164511639300,5.678639404296875,-0.5121420621871948,-0.5989090204238892,0.949049174785614
1725631164521673500,5.688673583984375,-0.4174361228942871,-0.7294164299964905,0.9607928991317749
1725631164531707400,5.698707275390625,-0.3450361490249634,-0.7808979749679565,0.9755350947380066
1725631164541741600,5.708741455078125,-0.2756783664226532,-0.7822988033294678,0.9893038868904114
1725631164551776800,5.71877685546875,-0.2276529222726822,-0.7681772708892822,1.0434467792510986
1725631164561810700,5.728810791015625,-0.19193993508815765,-0.7681469321250916,1.0676122903823853
1725631164571844900,5.738844970703125,-0.2021007388830185,-0.7098445296287537,0.9933931231498718
1725631164581878800,5.748878662109375,-0.25084248185157776,-0.5072138905525208,0.8312616944313049
1725631164591913700,5.758913818359375,-0.2679092586040497,-0.2306692898273468,0.6882275342941284
1725631164601948000,5.768947998046875,-0.27952247858047485,0.1675763577222824,0.6047185063362122
1725631164611981600,5.778981689453125,-0.32886332273483276,0.5208956599235535,0.5204101800918579
1725631164622016800,5.789016845703125,-0.4387035369873047,0.5283213257789612,0.4629223942756653
1725631164632050700,5.79905078125,-0.519734799861908,0.3045502007007599,0.49854278564453125
1725631164642084900,5.8090849609375,-0.48865756392478943,0.32947951555252075,0.5950221419334412
1725631164652118800,5.819118896484375,-0.4049859642982483,0.5480106472969055,0.6944189071655273
1725631164662153700,5.82915380859375,-0.35651376843452454,0.7335288524627686,0.7662171721458435
1725631164672188000,5.83918798828125,-0.315022736787796,0.831653356552124,0.8330340385437012
1725631164682221600,5.8492216796875,-0.24428623914718628,0.9084267020225525,0.931455135345459
1725631164692255700,5.859255859375,-0.18395714461803436,0.975337028503418,1.002780795097351
1725631164702290700,5.869290771484375,-0.16022491455078125,0.9503946304321289,0.9978216886520386
1725631164712324600,5.87932470703125,-0.10104513168334961,0.8752906918525696,0.9254035949707031
1725631164722358800,5.88935888671875,0.00630023842677474,0.8110626935958862,0.8112573027610779
1725631164732392700,5.899392822265625,0.11594171077013016,0.7488487362861633,0.6737671494483948
1725631164742428000,5.909427978515625,0.24503952264785767,0.6892986297607422,0.5813130736351013
1725631164752461600,5.919461669921875,0.3598051071166992,0.7695429921150208,0.55104660987854
1725631164762495700,5.929495849609375,0.35296955704689026,0.5199856162071228,0.524526059627533
1725631164772530700,5.93953076171875,0.28149744868278503,0.10224507004022598,0.4655837416648865
1725631164782564600,5.949564697265625,0.3142223656177521,-0.10255362093448639,0.3886343836784363
1725631164792598800,5.959598876953125,0.3638956546783447,-0.15504345297813416,0.302145779132843
1725631164802632700,5.9696328125,0.3023252487182617,-0.19296632707118988,0.17370553314685822
1725631164812667600,5.979667724609375,0.2952617406845093,-0.1439247578382492,0.05665934458374977
1725631164822701600,5.98970166015625,0.3293619155883789,-0.006683280225843191,0.023578889667987823
1725631164832735700,5.99973583984375,0.34193962812423706,0.16544386744499207,0.054461847990751266
1725631164842769700,6.009769775390625,0.303651362657547,0.3404289782047272,0.055768128484487534
1725631164852804600,6.0198046875,0.27033087611198425,0.44709518551826477,-0.0011624752078205347
1725631164862838800,6.0298388671875,0.2696360647678375,0.5093284845352173,-0.10014711320400238
1725631164872872700,6.039872802734375,0.18509303033351898,0.6068218350410461,-0.2489183098077774
1725631164882906600,6.04990673828125,0.19241566956043243,0.6829344034194946,-0.3876529932022095
1725631164892941800,6.05994189453125,0.16540910303592682,0.7736549973487854,-0.5214592814445496
1725631164902975700,6.069975830078125,0.18418626487255096,0.8143824934959412,-0.6461796164512634
1725631164913009700,6.080009765625,0.2044040709733963,0.7664755582809448,-0.8111695647239685
1725631164923044600,6.090044677734375,0.18795426189899445,0.7731409668922424,-1.0042763948440552
1725631164933078800,6.100078857421875,0.17018796503543854,0.898800790309906,-1.1943480968475342
1725631164943112700,6.11011279296875,0.16602012515068054,0.9815571904182434,-1.3649288415908813
1725631164953146600,6.120146728515625,0.18304160237312317,0.8118937611579895,-1.5273383855819702
1725631164963181800,6.130181884765625,0.22973747551441193,0.4432944059371948,-1.611711025238037
1725631164973215700,6.1402158203125,0.229359433054924,0.11771350353956223,-1.5810238122940063
1725631164983249700,6.150249755859375,0.17578648030757904,-0.11127946525812149,-1.4837020635604858
1725631164993283800,6.160283935546875,0.10109656304121017,-0.312501460313797,-1.4003145694732666
1725631165003318800,6.17031884765625,-0.005585141479969025,-0.6213301420211792,-1.3991408348083496
1725631165013352700,6.180352783203125,-0.1256852149963379,-0.8299523591995239,-1.477083444595337
1725631165023386600,6.19038671875,-0.1844896674156189,-1.0347048044204712,-1.5963858366012573
1725631165033420800,6.2004208984375,-0.17583505809307098,-1.1921972036361694,-1.6436761617660522
1725631165043455500,6.21045556640625,-0.12255185842514038,-1.430496335029602,-1.5715841054916382
1725631165053489700,6.22048974609375,0.02675379253923893,-1.7477725744247437,-1.3551877737045288
1725631165063523800,6.23052392578125,0.2161434292793274,-2.01031494140625,-0.9983066320419312
1725631165073557500,6.2405576171875,0.357003390789032,-1.9944512844085693,-0.5925524830818176
1725631165083592700,6.2505927734375,0.366788387298584,-1.679611325263977,-0.24998979270458221
1725631165093626600,6.260626708984375,0.29300054907798767,-1.1672354936599731,-0.05598631873726845
1725631165103660800,6.270660888671875,0.21170273423194885,-0.5898398160934448,-0.03704218938946724
1725631165113695700,6.28069580078125,0.1535530835390091,0.04259878024458885,-0.09302442520856857
1725631165123729700,6.290729736328125,0.17108680307865143,0.6613339185714722,-0.12480898201465607
1725631165133763800,6.300763916015625,0.252731591463089,1.232214093208313,-0.06019721180200577
1725631165143797800,6.3107978515625,0.39241811633110046,1.7284969091415405,0.0719592273235321
1725631165153832700,6.320832763671875,0.5389446020126343,2.0762219429016113,0.1766229122877121
1725631165163867000,6.330866943359375,0.6861881017684937,2.283454656600952,0.2603345811367035
1725631165173900500,6.340900634765625,0.8018755316734314,2.389274835586548,0.3217329680919647
1725631165183934700,6.350934814453125,0.8759811520576477,2.282158374786377,0.3686525523662567
1725631165193969700,6.3609697265625,0.8804442882537842,1.9334657192230225,0.3788096606731415
1725631165204003800,6.37100390625,0.7966814637184143,1.332102656364441,0.3614583909511566
1725631165214037800,6.381037841796875,0.6845355033874512,0.6422936916351318,0.24701431393623352
1725631165224071700,6.39107177734375,0.5239066481590271,-0.14358888566493988,0.1569821536540985
1725631165234107000,6.40110693359375,0.2922641336917877,-0.8040733337402344,0.13149012625217438
1725631165244140500,6.411140625,0.11003975570201874,-1.1723331212997437,0.09098983556032181
1725631165254174700,6.4211748046875,0.006900720298290253,-1.3291012048721313,0.03918535262346268
1725631165264209700,6.431209716796875,-0.018557501956820488,-1.373125433921814,-0.03554507717490196
1725631165274243800,6.441243896484375,-0.03953346237540245,-1.2994694709777832,-0.09003271162509918
1725631165284277800,6.45127783203125,0.0016802892787382007,-1.0461901426315308,-0.1343573033809662
1725631165294311700,6.461311767578125,0.14409632980823517,-0.6763744354248047,-0.18414516746997833
1725631165304347000,6.471346923828125,0.2826446294784546,-0.28544554114341736,-0.22274501621723175
1725631165314380500,6.481380615234375,0.4492756724357605,0.22889792919158936,-0.3012528717517853
1725631165324414700,6.491414794921875,0.6664894819259644,0.7812085151672363,-0.4451884627342224
1725631165334449000,6.501448974609375,0.8867963552474976,1.2906299829483032,-0.5950759649276733
1725631165344483600,6.511483642578125,1.0388540029525757,1.6797287464141846,-0.719436764717102
1725631165354517800,6.521517822265625,1.0530428886413574,1.9118176698684692,-0.813116729259491
1725631165364551700,6.5315517578125,1.0052872896194458,1.9666739702224731,-0.9280776381492615
1725631165374585600,6.541585693359375,0.8824306726455688,1.7839425802230835,-1.0408024787902832
1725631165384620500,6.55162060546875,0.7101060748100281,1.453061580657959,-1.072684407234192
1725631165394654700,6.56165478515625,0.5341138243675232,1.1574572324752808,-0.9782134294509888
1725631165404689000,6.57168896484375,0.38759365677833557,0.8665915727615356,-0.792147696018219
1725631165414723600,6.5817236328125,0.2598462998867035,0.5679529309272766,-0.5999388098716736
1725631165424757800,6.5917578125,0.1793043464422226,0.22116459906101227,-0.40603727102279663
1725631165434791700,6.601791748046875,0.17280566692352295,-0.1421547830104828,-0.23732306063175201
1725631165444825600,6.61182568359375,0.23024605214595795,-0.3905222415924072,-0.12601330876350403
1725631165454860800,6.62186083984375,0.27899491786956787,-0.3670606315135956,-0.1073082983493805
1725631165464894700,6.631894775390625,0.273834764957428,-0.15331824123859406,-0.12744419276714325
1725631165474928600,6.6419287109375,0.24062778055667877,0.05074348673224449,-0.1359204351902008
1725631165484962800,6.651962890625,0.2092014104127884,0.18937566876411438,-0.09281852096319199
1725631165494997800,6.661997802734375,0.15663549304008484,0.32476237416267395,-0.05702601745724678
1725631165505032000,6.672031982421875,-0.008106588385999203,0.30992668867111206,-0.08622198551893234
1725631165515065600,6.682065673828125,-0.10254013538360596,0.10294980555772781,-0.11007484048604965
1725631165525099800,6.692099853515625,-0.13927949965000153,0.04343241825699806,-0.0674261823296547
1725631165535134700,6.702134765625,-0.20463746786117554,0.0747663676738739,0.031379226595163345
1725631165545168600,6.712168701171875,-0.33141061663627625,0.14659316837787628,0.11950109153985977
1725631165555202800,6.722202880859375,-0.45491617918014526,0.1956697255373001,0.2074577361345291
1725631165565237800,6.73223779296875,-0.5809721350669861,0.21531133353710175,0.30303966999053955
1725631165575271700,6.742271728515625,-0.6723431348800659,0.2623131275177002,0.4174518287181854
1725631165585305600,6.7523056640625,-0.6371875405311584,0.2822980284690857,0.5852283239364624
1725631165595339800,6.76233984375,-0.5763779878616333,0.3590886890888214,0.769538164138794
1725631165605374700,6.772374755859375,-0.4507942199707031,0.3392694294452667,0.9401810169219971
1725631165615408600,6.78240869140625,-0.4147067666053772,0.1731339991092682,1.0428630113601685
1725631165625442800,6.79244287109375,-0.4513603746891022,-0.07011859118938446,1.0855087041854858
1725631165635476700,6.802476806640625,-0.4067547619342804,-0.37016570568084717,1.169577717781067
1725631165645511700,6.81251171875,-0.28708508610725403,-0.8421779870986938,1.3104114532470703
1725631165655545600,6.822545654296875,-0.24867965281009674,-1.2793539762496948,1.4351836442947388
1725631165665579800,6.832579833984375,-0.29520800709724426,-1.50075364112854,1.4705909490585327
1725631165675613700,6.84261376953125,-0.3496272563934326,-1.5153909921646118,1.4204005002975464
1725631165685648600,6.852648681640625,-0.4141465723514557,-1.450456142425537,1.3518701791763306
1725631165695682800,6.862682861328125,-0.518944263458252,-1.396984577178955,1.3117401599884033
1725631165705716700,6.872716796875,-0.7496152520179749,-1.4238755702972412,1.1745884418487549
1725631165715751700,6.882751708984375,-0.9150497317314148,-1.4343451261520386,0.8584320545196533
1725631165725785900,6.892785888671875,-0.9417404532432556,-1.212934136390686,0.41826131939888
1725631165735819800,6.90281982421875,-0.829525351524353,-0.4578656554222107,-0.07417642325162888
1725631165745853700,6.912853759765625,-0.6914305686950684,0.3477773070335388,-0.44833430647850037
1725631165755888600,6.922888671875,-0.6098260283470154,0.7995059490203857,-0.6261147260665894
1725631165765922800,6.9329228515625,-0.5869055390357971,0.842668354511261,-0.6272375583648682
1725631165775956700,6.942956787109375,-0.5980724096298218,0.6907920241355896,-0.5137128233909607
1725631165785990700,6.95299072265625,-0.6257951259613037,0.4581446349620819,-0.37769827246665955
1725631165796025900,6.96302587890625,-0.6152462363243103,0.11946948617696762,-0.266560435295105
1725631165806059800,6.973059814453125,-0.5451920628547668,-0.18468907475471497,-0.11363931000232697
1725631165816093700,6.98309375,-0.4645618796348572,-0.45061230659484863,0.09488696604967117
1725631165826128000,6.9931279296875,-0.38925647735595703,-0.6601133942604065,0.2873868942260742
1725631165836162800,7.003162841796875,-0.3320285677909851,-0.7918383479118347,0.4101000130176544
1725631165846196700,7.01319677734375,-0.33316999673843384,-0.8272852897644043,0.4704184830188751
1725631165856230700,7.023230712890625,-0.339830219745636,-0.85447096824646,0.49163925647735596
1725631165866265900,7.033265869140625,-0.3080025017261505,-0.8260952830314636,0.515921950340271
1725631165876299500,7.043299560546875,-0.40260064601898193,-0.6647931933403015,0.5496087670326233
1725631165886333700,7.053333740234375,-0.5950861573219299,-0.428088515996933,0.5752038955688477
1725631165896367900,7.063367919921875,-0.75018310546875,-0.13492482900619507,0.6024826765060425
1725631165906402800,7.07340283203125,-0.8410980701446533,0.12664926052093506,0.648248553276062
1725631165916436700,7.083436767578125,-0.8986603617668152,0.3424213230609894,0.6770918369293213
1725631165926470700,7.093470703125,-0.920634388923645,0.5955536961555481,0.6822122931480408
1725631165936504600,7.103504638671875,-0.9114969968795776,0.8294332027435303,0.6651213765144348
1725631165946539500,7.11353955078125,-0.9191146492958069,0.8698703646659851,0.5675069093704224
1725631165956573700,7.12357373046875,-0.8948358297348022,0.84241783618927,0.4865833818912506
1725631165966608000,7.13360791015625,-0.798395037651062,0.7808700799942017,0.5365797281265259
1725631165976641500,7.1436416015625,-0.7232366800308228,0.6953029036521912,0.6924519538879395
1725631165986676700,7.1536767578125,-0.6512554287910461,0.5585959553718567,0.8508639335632324
1725631165996710700,7.163710693359375,-0.5250199437141418,0.40839526057243347,0.9452857375144958
1725631166006744600,7.17374462890625,-0.3774232864379883,0.2770439088344574,1.002211570739746
1725631166016779800,7.18377978515625,-0.23201724886894226,0.1721906065940857,1.0485222339630127
1725631166026813700,7.193813720703125,-0.10848385840654373,0.024699142202734947,1.0944703817367554
1725631166036847900,7.203847900390625,-0.0237199105322361,-0.14675165712833405,1.1497468948364258
1725631166046881800,7.2138818359375,0.024641763418912888,-0.3053490221500397,1.2192031145095825
1725631166056916700,7.223916748046875,0.034323323518037796,-0.38485297560691833,1.253820538520813
1725631166066951000,7.233950927734375,-0.035424597561359406,-0.4629344642162323,1.1713358163833618
1725631166076984600,7.243984619140625,-0.12453972548246384,-0.5538267493247986,0.9505399465560913
1725631166087018800,7.254018798828125,-0.13080134987831116,-0.5368602871894836,0.7538761496543884
1725631166097053700,7.2640537109375,-0.1005435585975647,-0.3341103494167328,0.6501588821411133
1725631166107087600,7.274087646484375,-0.1433836966753006,-0.09945336729288101,0.5643622279167175
1725631166117121800,7.284121826171875,-0.21452116966247559,0.1166425570845604,0.47980615496635437
1725631166127155700,7.29415576171875,-0.2426111400127411,0.37680917978286743,0.44221776723861694
1725631166137191000,7.30419091796875,-0.22899429500102997,0.6136825084686279,0.39639508724212646
1725631166147224600,7.314224609375,-0.23627138137817383,0.7661189436912537,0.31830161809921265
1725631166157258800,7.3242587890625,-0.24001295864582062,0.8286546468734741,0.24168603122234344
1725631166167293000,7.33429296875,-0.22581911087036133,0.7857574820518494,0.2261669933795929
1725631166177327600,7.34432763671875,-0.18829114735126495,0.6166816353797913,0.24700407683849335
1725631166187361800,7.35436181640625,-0.10959021747112274,0.39274898171424866,0.24719369411468506
1725631166197395700,7.364395751953125,-0.026082897558808327,0.2007935643196106,0.19942493736743927
1725631166207430700,7.3744306640625,0.049744486808776855,0.1541277915239334,0.13678018748760223
1725631166217464600,7.384464599609375,0.07396477460861206,0.16789492964744568,0.07136398553848267
1725631166227498800,7.394498779296875,0.113326296210289,0.2535610795021057,0.00827689841389656
1725631166237532700,7.40453271484375,0.15064767003059387,0.364653080701828,-0.024897916242480278
1725631166247567600,7.414567626953125,0.14129145443439484,0.4342433512210846,-0.052808377891778946
1725631166257601800,7.424601806640625,0.09358804672956467,0.47502562403678894,-0.09955985844135284
1725631166267635700,7.4346357421875,0.1009940356016159,0.47257229685783386,-0.18481269478797913
1725631166277669600,7.444669677734375,0.15733304619789124,0.4449135959148407,-0.30275753140449524
1725631166287704800,7.454704833984375,0.20740686357021332,0.4078189730644226,-0.4454987049102783
1725631166297738800,7.46473876953125,0.29972848296165466,0.4187317490577698,-0.5903237462043762
1725631166307772700,7.474772705078125,0.4055507779121399,0.4818768799304962,-0.703173041343689
1725631166317807600,7.4848076171875,0.4726661443710327,0.5640628337860107,-0.7899752855300903
1725631166327841800,7.494841796875,0.4724602699279785,0.6206011772155762,-0.8956540822982788
1725631166337875700,7.504875732421875,0.3954750895500183,0.7000032067298889,-1.05579674243927
1725631166347909600,7.51490966796875,0.2859770953655243,0.7930476069450378,-1.2635153532028198
1725631166357944800,7.52494482421875,0.21497291326522827,0.7766875624656677,-1.445020318031311
1725631166367978800,7.534978759765625,0.20985138416290283,0.6135087609291077,-1.5417386293411255
1725631166378012700,7.5450126953125,0.182098850607872,0.3751891255378723,-1.5311068296432495
1725631166388046800,7.555046875,0.17086909711360931,0.15347084403038025,-1.4305574893951416
1725631166398081800,7.565081787109375,0.16974346339702606,-0.120033860206604,-1.3010554313659668
1725631166408115700,7.57511572265625,0.19216488301753998,-0.32641980051994324,-1.1817001104354858
1725631166418149600,7.585149658203125,0.25199460983276367,-0.38477185368537903,-1.112225890159607
1725631166428183800,7.595183837890625,0.3226085901260376,-0.3157200813293457,-1.1122692823410034
1725631166438218800,7.60521875,0.389828085899353,-0.24530982971191406,-1.1871204376220703
1725631166448252700,7.615252685546875,0.47204387187957764,-0.1531924158334732,-1.2427139282226562
1725631166458286800,7.625286865234375,0.5872076749801636,-0.038987550884485245,-1.158545732498169
1725631166468321800,7.63532177734375,0.6422632336616516,0.03739457204937935,-0.9008990526199341
1725631166478355700,7.645355712890625,0.5851023197174072,0.10491888225078583,-0.6142281889915466
1725631166488389600,7.6553896484375,0.4515693187713623,0.1803918033838272,-0.4323385953903198
1725631166498423800,7.665423828125,0.3002417981624603,0.25114768743515015,-0.3854424059391022
1725631166508458500,7.67545849609375,0.22524984180927277,0.2848324179649353,-0.44989487528800964
1725631166518492700,7.68549267578125,0.22971467673778534,0.2815681993961334,-0.5661701560020447
1725631166528526800,7.69552685546875,0.2910006642341614,0.2242860049009323,-0.6374310255050659
1725631166538560500,7.705560546875,0.37779757380485535,0.16495631635189056,-0.6458523869514465
1725631166548596000,7.715595947265625,0.4599861800670624,0.18276913464069366,-0.5955963730812073
1725631166558629600,7.725629638671875,0.5129367709159851,0.2677335739135742,-0.5119110941886902
1725631166568663800,7.735663818359375,0.5521459579467773,0.4974863529205322,-0.4300178587436676
1725631166578698000,7.745697998046875,0.5781790614128113,0.7838415503501892,-0.3765600919723511
1725631166588733000,7.75573291015625,0.6464289426803589,1.1575614213943481,-0.46912410855293274
1725631166598766800,7.765766845703125,0.6279990077018738,1.2319822311401367,-0.5519974231719971
1725631166608800800,7.77580078125,0.5226925611495972,1.0159567594528198,-0.5593836903572083
1725631166618836000,7.7858359375,0.4148835837841034,0.7300837635993958,-0.6112769842147827
1725631166628870000,7.795869873046875,0.3359730541706085,0.4748682677745819,-0.7254935503005981
1725631166638903800,7.80590380859375,0.3480759263038635,0.41278666257858276,-0.7944781184196472
1725631166648938000,7.81593798828125,0.3802967071533203,0.4886454641819,-0.7711331248283386
1725631166658972700,7.82597265625,0.35877126455307007,0.5026655197143555,-0.668640673160553
1725631166669006800,7.8360068359375,0.3298674523830414,0.4796414077281952,-0.6093280911445618
1725631166679041000,7.846041015625,0.34487438201904297,0.47390976548194885,-0.5969395637512207
1725631166689074700,7.85607470703125,0.43455153703689575,0.6250750422477722,-0.6128690242767334
1725631166699110000,7.86610986328125,0.46552515029907227,0.5375057458877563,-0.6339595913887024
1725631166709143800,7.876143798828125,0.37700966000556946,0.22005082666873932,-0.7113001942634583
1725631166719178000,7.886177978515625,0.24157589673995972,0.05760597810149193,-0.8757807612419128
1725631166729212000,7.8962119140625,0.08326509594917297,0.12699010968208313,-1.1083465814590454
1725631166739246800,7.906246826171875,-0.057525038719177246,0.27368345856666565,-1.3273109197616577
1725631166749281000,7.916281005859375,-0.16604351997375488,0.3503422737121582,-1.473738670349121
1725631166759314700,7.926314697265625,-0.2830686867237091,0.27279341220855713,-1.5443992614746094
1725631166769348900,7.936348876953125,-0.4298434853553772,0.2672545909881592,-1.6116523742675781
1725631166779383800,7.9463837890625,-0.425238698720932,0.32025963068008423,-1.5480320453643799
1725631166789417700,7.956417724609375,-0.2110672891139984,0.27852070331573486,-1.2955151796340942
1725631166799452000,7.966451904296875,-0.005601523909717798,0.21646234393119812,-1.092655062675476
1725631166809486800,7.97648681640625,0.19167374074459076,0.19500233232975006,-0.9679172039031982
1725631166819521000,7.98652099609375,0.37258970737457275,0.21522130072116852,-0.8054092526435852
1725631166829554700,7.9965546875,0.4496690630912781,0.4157178997993469,-0.7310940027236938
1725631166839588900,8.0065888671875,0.4037483036518097,0.5569532513618469,-0.7363549470901489
1725631166849623800,8.016623779296875,0.31052166223526,0.6388797760009766,-0.7200515866279602
1725631166859657700,8.02665771484375,0.17768219113349915,0.710411787033081,-0.6061168313026428
1725631166869692000,8.03669189453125,0.08703139424324036,0.7720655798912048,-0.3818219006061554
1725631166879725800,8.046725830078126,0.0045866998843848705,0.8004760146141052,-0.1622430980205536
1725631166889760800,8.0567607421875,-0.174971342086792,0.7683724164962769,-0.023180287331342697
1725631166899795000,8.066794921875,-0.3376975357532501,0.7031978368759155,0.11176221072673798
1725631166909828900,8.076828857421875,-0.352985680103302,0.7252905964851379,0.310271292924881
1725631166919862800,8.08686279296875,-0.3460952937602997,0.7285630702972412,0.48451584577560425
1725631166929897700,8.096897705078124,-0.42399701476097107,0.5140928626060486,0.5048298835754395
1725631166939932000,8.106931884765626,-0.500154972076416,0.20828737318515778,0.4508897364139557
1725631166949966000,8.116966064453125,-0.4824308156967163,0.10852161794900894,0.46586814522743225
1725631166960000800,8.127000732421875,-0.4409258961677551,0.11820495128631592,0.5149807929992676
1725631166970035000,8.137034912109375,-0.4676078259944916,-0.0008727071690373123,0.5336926579475403
1725631166980068900,8.14706884765625,-0.5775678157806396,-0.23789472877979279,0.5276338458061218
1725631166990102800,8.157102783203126,-0.7877415418624878,-0.6577325463294983,0.49153417348861694
1725631167000137700,8.1671376953125,-0.8714737892150879,-0.8424632549285889,0.5023229718208313
1725631167010172000,8.177171875,-0.7466780543327332,-0.7336392998695374,0.7039122581481934
1725631167020205800,8.187205810546875,-0.5614596605300903,-0.6369481086730957,0.9653515219688416
1725631167030239700,8.19723974609375,-0.473431259393692,-0.7656275629997253,1.1389493942260742
1725631167040275000,8.20727490234375,-0.42677050828933716,-0.9630555510520935,1.1613867282867432
1725631167050308900,8.217308837890625,-0.2776406705379486,-0.986545205116272,1.126050353050232
1725631167060342800,8.2273427734375,-0.1326543241739273,-0.9749483466148376,1.1223846673965454
1725631167070377700,8.237377685546875,-0.0013298550620675087,-1.0776933431625366,1.2061930894851685
1725631167080412000,8.247411865234374,0.14773833751678467,-1.312171220779419,1.3364840745925903
1725631167090445800,8.25744580078125,0.24562282860279083,-1.4875776767730713,1.4832310676574707
1725631167100479700,8.267479736328125,0.2988784909248352,-1.3482216596603394,1.528056025505066
1725631167110515000,8.277514892578125,0.2626025080680847,-0.9548332095146179,1.5117312669754028
1725631167120548600,8.287548583984375,0.125148743391037,-0.4343774914741516,1.4360432624816895
1725631167130582800,8.297582763671874,-0.1662926971912384,0.022588463500142097,1.1835047006607056
1725631167140617000,8.307616943359376,-0.46171921491622925,0.3547576665878296,0.693719744682312
1725631167150652000,8.31765185546875,-0.7217153906822205,0.8003167510032654,0.058372631669044495
1725631167160685800,8.327685791015625,-0.9336444735527039,1.1494220495224,-0.4254853129386902
1725631167170719700,8.3377197265625,-1.115036129951477,1.224683165550232,-0.6916778683662415
1725631167180754000,8.34775390625,-1.2240798473358154,0.9673783779144287,-0.7419284582138062
1725631167190788900,8.357788818359374,-1.2068846225738525,0.5093737840652466,-0.6092748045921326
1725631167200822800,8.36782275390625,-1.0666790008544922,0.03550758212804794,-0.3813430070877075
1725631167210857000,8.37785693359375,-0.8204472064971924,-0.3201703727245331,-0.04746892303228378
1725631167220891000,8.387890869140625,-0.49619314074516296,-0.579071581363678,0.32060515880584717
1725631167230925800,8.39792578125,-0.1617312729358673,-0.6971710920333862,0.6482277512550354
1725631167240960000,8.4079599609375,0.09243078529834747,-0.6159773468971252,0.9236971139907837
1725631167250993700,8.41799365234375,0.1415618509054184,-0.3065340518951416,1.1553915739059448
1725631167261028900,8.42802880859375,0.010139287449419498,-0.19601476192474365,1.2732881307601929
1725631167271062800,8.438062744140625,-0.1744028627872467,-0.7363669276237488,1.34409761428833
1725631167281097000,8.448096923828125,-0.29512202739715576,-1.1551544666290283,1.4768646955490112
1725631167291131000,8.458130859375,-0.33920586109161377,-1.272476077079773,1.6242104768753052
1725631167301165800,8.468165771484376,-0.3418753743171692,-1.3502792119979858,1.7329293489456177
1725631167311200000,8.478199951171876,-0.3080180883407593,-1.5177947282791138,1.771890640258789
1725631167321233700,8.488233642578125,-0.2493038922548294,-1.7027473449707031,1.7810505628585815
1725631167331267800,8.498267822265625,-0.17629332840442657,-1.7292625904083252,1.8560763597488403
1725631167341302800,8.508302734375,-0.1795969158411026,-1.7075936794281006,1.8497214317321777
1725631167351337000,8.5183369140625,-0.22648346424102783,-1.5366517305374146,1.7308666706085205
1725631167361371000,8.528370849609376,-0.28892019391059875,-1.2157610654830933,1.5519918203353882
1725631167371405800,8.53840576171875,-0.37440818548202515,-0.7897865772247314,1.3613072633743286
1725631167381440000,8.54843994140625,-0.4519589841365814,-0.3666529357433319,1.1696399450302124
1725631167391473700,8.5584736328125,-0.5013887882232666,0.09391439706087112,1.0475398302078247
1725631167401507800,8.5685078125,-0.4654622972011566,0.5357849597930908,1.0007814168930054
1725631167411542800,8.578542724609376,-0.42398515343666077,0.6686612367630005,0.9481313228607178
1725631167421576700,8.58857666015625,-0.3896673023700714,0.6724513173103333,0.8842765688896179
1725631167431611000,8.59861083984375,-0.38677963614463806,0.6411879658699036,0.786465048789978
1725631167441644800,8.608644775390625,-0.3792174160480499,0.6558168530464172,0.7002692818641663
1725631167451680000,8.618679931640624,-0.40987199544906616,0.6909737586975098,0.737494945526123
1725631167461713700,8.628713623046876,-0.44322457909584045,0.6105397343635559,0.8170269727706909
1725631167471747800,8.638747802734375,-0.41448667645454407,0.4332386553287506,0.7981989979743958
1725631167481782000,8.648781982421875,-0.3292350471019745,0.300590455532074,0.6416284441947937
1725631167491816700,8.658816650390625,-0.1744246929883957,0.25527119636535645,0.47839000821113586
1725631167501851000,8.668850830078124,0.0026742760092020035,0.1996237188577652,0.37829288840293884
1725631167511884800,8.678884765625,0.11944004148244858,0.20741453766822815,0.26982125639915466
1725631167521919700,8.688919677734376,0.16760917007923126,0.31642815470695496,0.1038878858089447
1725631167531954000,8.698953857421875,0.20581835508346558,0.35446155071258545,-0.054095618426799774
1725631167541987800,8.70898779296875,0.25315454602241516,0.2350236475467682,-0.12446705996990204
1725631167552021500,8.719021484375,0.2451978325843811,0.04935312271118164,-0.18436262011528015
1725631167562056400,8.729056396484374,0.23023200035095215,-0.03702614828944206,-0.29560190439224243
1725631167572090600,8.739090576171876,0.23834586143493652,-0.01029280573129654,-0.33515915274620056
1725631167582124800,8.749124755859375,0.29916661977767944,0.06435506045818329,-0.30105578899383545
1725631167592158500,8.759158447265625,0.31235164403915405,0.1486012190580368,-0.32287585735321045
1725631167602193700,8.769193603515625,0.32418563961982727,0.33270952105522156,-0.4467862844467163
1725631167612227600,8.7792275390625,0.33467262983322144,0.5195936560630798,-0.5717343688011169
1725631167622261500,8.789261474609376,0.3701235055923462,0.6732172966003418,-0.6452306509017944
1725631167632296400,8.79929638671875,0.40248972177505493,0.7450757622718811,-0.66438889503479
1725631167642330600,8.80933056640625,0.393563836812973,0.7919084429740906,-0.6987435817718506
1725631167652364500,8.819364501953125,0.373395711183548,0.8193805813789368,-0.7759337425231934
1725631167662398500,8.8293984375,0.35767367482185364,0.7935295104980469,-0.8912566304206848
1725631167672433700,8.83943359375,0.37227100133895874,0.7045578360557556,-1.0237427949905396
1725631167682467600,8.849467529296875,0.37109583616256714,0.5761386752128601,-1.1421527862548828
1725631167692501500,8.85950146484375,0.4111412465572357,0.4250897467136383,-1.2377245426177979
1725631167702535700,8.86953564453125,0.4272468686103821,0.29839879274368286,-1.2802116870880127
1725631167712570600,8.879570556640624,0.34912675619125366,0.1922302544116974,-1.3028502464294434
1725631167722604500,8.8896044921875,0.258672833442688,0.12210452556610107,-1.3242218494415283
1725631167732638700,8.899638671875,0.18523484468460083,0.063652403652668,-1.3468643426895142
1725631167742672600,8.909672607421875,0.17624181509017944,0.01937432959675789,-1.3599762916564941
1725631167752707600,8.91970751953125,0.18614263832569122,-0.05467912554740906,-1.387710690498352
1725631167762741500,8.929741455078124,0.18189160525798798,-0.12731613218784332,-1.438427448272705
1725631167772775700,8.939775634765626,0.21688926219940186,-0.13777676224708557,-1.4897619485855103
1725631167782809600,8.9498095703125,0.2096722275018692,-0.14572404325008392,-1.532291054725647
1725631167792844500,8.959844482421875,0.22187404334545135,-0.12385682761669159,-1.5583703517913818
1725631167802878700,8.969878662109375,0.2442559152841568,-0.012325631454586983,-1.5219377279281616
1725631167812912600,8.97991259765625,0.2701357305049896,0.18665777146816254,-1.4096351861953735
1725631167822947600,8.989947509765624,0.275553822517395,0.4705274701118469,-1.2094252109527588
1725631167832981500,8.9999814453125,0.3419235050678253,0.7757204174995422,-0.9664539098739624
1725631167843015700,9.010015625,0.5161832571029663,0.9719956517219543,-0.7750916481018066
1725631167853049600,9.020049560546875,0.7012074589729309,1.0149269104003906,-0.674048125743866
1725631167863084500,9.03008447265625,0.7905744910240173,0.9268789887428284,-0.6060823798179626
1725631167873118700,9.04011865234375,0.7579970955848694,0.742434561252594,-0.5384793281555176
1725631167883152400,9.05015234375,0.6439268589019775,0.41646936535835266,-0.483242005109787
1725631167893186600,9.0601865234375,0.4758475422859192,0.09703755378723145,-0.4405840337276459
1725631167903221500,9.070221435546875,0.2881143093109131,-0.1155855804681778,-0.4126063585281372
1725631167913255700,9.080255615234375,0.17004945874214172,0.15151162445545197,-0.5838462710380554
1725631167923289600,9.09028955078125,0.07921706885099411,0.43970802426338196,-0.8419590592384338
1725631167933324500,9.100324462890624,0.004566272720694542,0.3134201169013977,-0.994590163230896
1725631167943358700,9.110358642578126,-0.0683862492442131,0.1411285251379013,-0.9745072722434998
1725631167953392400,9.120392333984375,-0.1280471831560135,0.010524449869990349,-0.8986596465110779
1725631167963426600,9.130426513671875,-0.1432458758354187,-0.11965327709913254,-0.9118561744689941
1725631167973461500,9.14046142578125,-0.17946858704090118,-0.2999463379383087,-0.9886167049407959
1725631167983495700,9.15049560546875,-0.23877573013305664,-0.5015403628349304,-1.1028128862380981
1725631167993529600,9.160529541015626,-0.1908353716135025,-0.6148349642753601,-1.1718344688415527
1725631168003563500,9.1705634765625,-0.06984512507915497,-0.5728350877761841,-1.1058701276779175
1725631168013598700,9.1805986328125,-0.0886361226439476,-0.5202397704124451,-1.0012030601501465
1725631168023632600,9.190632568359375,-0.18249434232711792,-0.6781401634216309,-1.039402961730957
1725631168033666600,9.20066650390625,-0.1765432506799698,-0.9160981178283691,-1.1662884950637817
1725631168043701800,9.21070166015625,-0.20027673244476318,-1.0795588493347168,-1.2005325555801392
1725631168053735400,9.2207353515625,-0.2766588628292084,-1.054893970489502,-1.228034257888794
1725631168063769600,9.23076953125,-0.3660128712654114,-0.8696569204330444,-1.376403570175171
1725631168073803800,9.2408037109375,-0.47340643405914307,-0.7825425267219543,-1.5294833183288574
1725631168083838700,9.250838623046874,-0.5583531260490417,-0.7234271168708801,-1.5814615488052368
1725631168093872600,9.26087255859375,-0.6320326924324036,-0.6050626635551453,-1.626787543296814
1725631168103906600,9.270906494140625,-0.6570064425468445,-0.42287737131118774,-1.6202682256698608
1725631168113940500,9.2809404296875,-0.6582807302474976,-0.34116384387016296,-1.5939058065414429
1725631168123975400,9.290975341796875,-0.6336413621902466,-0.2583906054496765,-1.6170819997787476
1725631168134009600,9.301009521484374,-0.5856583714485168,-0.1558367908000946,-1.5764278173446655
1725631168144043800,9.311043701171876,-0.4948587417602539,-0.11184060573577881,-1.4668523073196411
1725631168154077400,9.321077392578125,-0.3607028126716614,-0.022172510623931885,-1.3024401664733887
1725631168164112600,9.331112548828125,-0.19801539182662964,0.04566853120923042,-1.1130595207214355
1725631168174146600,9.341146484375,-0.05173567682504654,0.06272874027490616,-0.8927710652351379
1725631168184180500,9.351180419921874,0.03315466269850731,0.06139020621776581,-0.6696546077728271
1725631168194215400,9.36121533203125,0.029096001759171486,0.31223785877227783,-0.5533303618431091
1725631168204249600,9.37124951171875,-0.016640782356262207,0.5706543922424316,-0.4668760299682617
1725631168214283800,9.38128369140625,-0.07916434854269028,0.7511173486709595,-0.35379260778427124
1725631168224317400,9.3913173828125,-0.1515980213880539,0.7993517518043518,-0.22979560494422913
1725631168234352600,9.4013525390625,-0.18840663135051727,0.724250078201294,-0.12884794175624847
1725631168244386600,9.411386474609374,-0.1636073738336563,0.6490271091461182,-0.06326964497566223
1725631168254420500,9.42142041015625,-0.14380250871181488,0.6683419346809387,-0.008263388648629189
1725631168264454700,9.43145458984375,-0.175358846783638,0.6455191373825073,0.06479010730981827
1725631168274489600,9.441489501953125,-0.23356223106384277,0.5595213770866394,0.13618998229503632
1725631168284523500,9.4515234375,-0.2829880118370056,0.42801252007484436,0.19781619310379028
1725631168294557700,9.4615576171875,-0.2765846848487854,0.325045645236969,0.2834429442882538
1725631168304591600,9.471591552734376,-0.2089865654706955,0.26542380452156067,0.4085487425327301
1725631168314626800,9.481626708984376,-0.16423214972019196,0.26381179690361023,0.55241858959198
1725631168324660500,9.491660400390625,-0.19588340818881989,0.1446610391139984,0.6858422756195068
1725631168334694700,9.501694580078125,-0.077725350856781,-0.03227458894252777,0.8541186451911926
1725631168344729600,9.5117294921875,0.15816763043403625,-0.1237911581993103,1.0502814054489136
1725631168354763500,9.521763427734374,0.40509089827537537,-0.12526893615722656,1.26962149143219
1725631168364797700,9.531797607421876,0.5466626286506653,-0.09755901992321014,1.4946597814559937
1725631168374831600,9.54183154296875,0.5817037224769592,-0.1399560123682022,1.6651822328567505
1725631168384866600,9.551866455078125,0.585014283657074,-0.2616870105266571,1.7902032136917114
1725631168394900500,9.561900390625,0.5295883417129517,-0.46530112624168396,1.8934087753295898
1725631168404934700,9.5719345703125,0.4012635052204132,-0.7160823941230774,1.965492844581604
1725631168414968600,9.581968505859376,0.20755846798419952,-0.9711002707481384,1.9617806673049927
1725631168425003500,9.59200341796875,0.12458308041095734,-1.179739236831665,1.849421739578247
1725631168435037700,9.60203759765625,0.19494564831256866,-1.3449801206588745,1.5926411151885986
1725631168445071600,9.612071533203125,0.19585132598876953,-1.5234624147415161,1.1794424057006836
1725631168455105500,9.62210546875,0.08719275891780853,-1.5998644828796387,0.7742325663566589
1725631168465140500,9.632140380859376,-0.05512631684541702,-1.543548822402954,0.509185254573822
1725631168475174700,9.642174560546875,-0.19135206937789917,-1.4262884855270386,0.39651089906692505
1725631168485208600,9.65220849609375,-0.2737221121788025,-1.4887968301773071,0.39988812804222107
1725631168495243500,9.662243408203125,-0.32032981514930725,-1.765907883644104,0.4967515468597412
1725631168505277700,9.672277587890624,-0.2831476628780365,-2.007192850112915,0.6571437120437622
1725631168515311400,9.682311279296876,-0.17626331746578217,-2.1428544521331787,0.8224016427993774
1725631168525345500,9.692345458984375,-0.050836317241191864,-2.166234254837036,0.9740861654281616
1725631168535380500,9.70238037109375,0.03172540292143822,-2.0986545085906982,1.1045645475387573
1725631168545414700,9.71241455078125,0.0736895352602005,-1.9538309574127197,1.1949867010116577
1725631168555448300,9.7224482421875,0.0878136157989502,-1.7069817781448364,1.1869572401046753
1725631168565482500,9.732482421875,0.0009889397770166397,-1.426429271697998,1.1088414192199707
1725631168575517400,9.742517333984376,-0.14553898572921753,-1.174621820449829,0.9669391512870789
1725631168585551400,9.75255126953125,-0.3910161852836609,-0.7930995225906372,0.8548659086227417
1725631168595585300,9.762585205078125,-0.660524845123291,-0.30241528153419495,0.8692288398742676
1725631168605620500,9.772620361328125,-0.8794547915458679,0.1793641895055771,0.9722803831100464
1725631168615654100,9.782654052734374,-0.9722304940223694,0.5664538741111755,1.051365852355957
1725631168625688300,9.792688232421876,-0.9909772872924805,0.9298845529556274,1.0951282978057861
1725631168635722500,9.802722412109375,-1.0101916790008545,1.1551811695098877,1.0823969841003418
1725631168645757400,9.81275732421875,-0.9932780265808105,1.2837183475494385,1.0394113063812256
1725631168655791400,9.822791259765625,-1.0242722034454346,1.334481120109558,1.0079069137573242
1725631168665825300,9.8328251953125,-1.0034027099609375,1.3137085437774658,1.0469942092895508
1725631168675859500,9.842859375,-0.9992875456809998,1.185185432434082,1.1445260047912598
1725631168685894100,9.85289404296875,-0.9675379395484924,0.9410322904586792,1.2264460325241089
1725631168695928300,9.86292822265625,-0.8888993263244629,0.59898841381073,1.2561826705932617
1725631168705962500,9.87296240234375,-0.7798671126365662,0.25590938329696655,1.2892638444900513
1725631168715996200,9.88299609375,-0.6085896492004395,-0.03268114849925041,1.343277096748352
1725631168726031400,9.89303125,-0.40680113434791565,-0.22262954711914062,1.4220136404037476
1725631168736065300,9.903065185546875,-0.2939731180667877,-0.42770999670028687,1.449244499206543
1725631168746099200,9.91309912109375,-0.22122962772846222,-0.48949363827705383,1.4370449781417847
1725631168756134100,9.923134033203125,-0.16760021448135376,-0.4332628548145294,1.3969870805740356
1725631168766168300,9.933168212890624,-0.105520099401474,-0.37388506531715393,1.3119208812713623
1725631168776202500,9.943202392578126,-0.12630899250507355,-0.29978445172309875,1.1963093280792236
1725631168786236200,9.953236083984375,-0.15713176131248474,-0.10751450061798096,1.1084457635879517
1725631168796271400,9.963271240234375,-0.17310567200183868,0.0999705120921135,1.0911104679107666
1725631168806305500,9.973305419921875,-0.1488189399242401,0.2604779601097107,1.0484888553619385
1725631168816339200,9.983339111328124,-0.06909693777561188,0.3844488859176636,0.9625366926193237
1725631168826373400,9.993373291015626,0.0011996496468782425,0.462672621011734,0.8387020230293274
1725631168836408300,10.003408203125,0.0809703841805458,0.49898242950439453,0.6898180246353149
1725631168846442500,10.0134423828125,0.17517389357089996,0.5158101916313171,0.5181300640106201
1725631168856476400,10.023476318359375,0.24435508251190186,0.5071346759796143,0.3378300666809082
1725631168866510300,10.03351025390625,0.24746902287006378,0.47115156054496765,0.11698038876056671
1725631168876545500,10.043545654296874,0.23179738223552704,0.45937132835388184,-0.10051651298999786
1725631168886579200,10.0535791015625,0.2116762399673462,0.46895188093185425,-0.2562457323074341
1725631168896613400,10.06361328125,0.20820879936218262,0.5391466617584229,-0.3786675035953522
1725631168906648300,10.0736484375,0.1518004685640335,0.655649721622467,-0.5503219366073608
1725631168916682200,10.08368212890625,0.17547118663787842,0.7496539354324341,-0.7200124263763428
1725631168926716400,10.09371630859375,0.2567079961299896,0.7782065272331238,-0.8300716280937195
1725631168936750300,10.103750244140626,0.2817140221595764,0.7234439253807068,-0.9477207064628601
1725631168946785500,10.11378564453125,0.20654712617397308,0.6435448527336121,-1.1358133554458618
1725631168956819200,10.123819091796875,0.06664753705263138,0.5878051519393921,-1.3784366846084595
1725631168966853400,10.133853271484375,-0.015872947871685028,0.5466353297233582,-1.5986777544021606
1725631168976887300,10.14388720703125,-0.013612722977995872,0.46742647886276245,-1.7693485021591187
1725631168986922200,10.153922119140624,-0.0623132698237896,0.27664417028427124,-1.9547853469848633
1725631168996956400,10.163956298828126,-0.13177064061164856,0.03903429955244064,-2.1538822650909424
1725631169006990300,10.173990234375,-0.11347006261348724,-0.1264200359582901,-2.2941534519195557
1725631169017024300,10.184024169921875,-0.04889320209622383,-0.220833882689476,-2.328254222869873
1725631169027059200,10.19405908203125,0.043871816247701645,-0.3388226628303528,-2.238231897354126
1725631169037093400,10.20409326171875,0.13725022971630096,-0.3941628932952881,-2.055140256881714
1725631169047127300,10.214127197265626,0.24747154116630554,-0.31660205125808716,-1.820228099822998
1725631169057162200,10.224162353515625,0.37707453966140747,-0.12971657514572144,-1.5713742971420288
1725631169067196400,10.234196533203125,0.5043267011642456,0.11370157450437546,-1.3293009996414185
1725631169077230300,10.244230224609375,0.5825200080871582,0.27318018674850464,-1.0968581438064575
1725631169087264300,10.25426416015625,0.5459069013595581,0.3075887858867645,-0.8718199133872986
1725631169097299500,10.264299560546876,0.4496850371360779,0.2652184069156647,-0.6886857748031616
1725631169107333400,10.27433349609375,0.3841955363750458,0.19048480689525604,-0.5683410167694092
1725631169117367300,10.2843671875,0.3697279095649719,0.13320153951644897,-0.5110662579536438
1725631169127401500,10.2944013671875,0.4239402711391449,0.19550620019435883,-0.4892510175704956
1725631169137436400,10.3044365234375,0.531721293926239,0.24360395967960358,-0.432059645652771
1725631169147470300,10.31447021484375,0.6969450116157532,0.06186271458864212,-0.31005656719207764
1725631169157504300,10.324504150390625,0.8847867846488953,-0.30195438861846924,-0.19158875942230225
1725631169167539500,10.33453955078125,1.023122787475586,-0.49899476766586304,-0.15716898441314697
1725631169177573400,10.344573486328125,1.0575052499771118,-0.46640220284461975,-0.18859107792377472
1725631169187607300,10.354607177734374,1.0023542642593384,-0.114278145134449,-0.4319263696670532
1725631169197641500,10.364641357421876,0.7995705008506775,0.15457728505134583,-0.7927711009979248
1725631169207676400,10.374676513671876,0.5083046555519104,0.10143987089395523,-1.0919387340545654
1725631169217710300,10.38471044921875,0.19910766184329987,-0.1124042421579361,-1.2686331272125244
1725631169227744300,10.394744140625,-0.12493961304426193,-0.42837947607040405,-1.3399828672409058
1725631169237778400,10.4047783203125,-0.35007551312446594,-0.6385857462882996,-1.3685306310653687
1725631169247813400,10.4148134765625,-0.405138224363327,-0.6831446886062622,-1.3144149780273438
1725631169257847300,10.424847412109376,-0.3164067566394806,-0.4886246919631958,-1.1962491273880005
1725631169267881500,10.434881591796875,-0.15229032933712006,-0.14659257233142853,-1.0492833852767944
1725631169277915100,10.4449150390625,0.04526456072926521,0.20677775144577026,-0.9199361205101013
1725631169287950300,10.454950439453125,0.20655034482479095,0.3717818260192871,-0.7988429069519043
1725631169297984300,10.464984375,0.3207041025161743,0.37416136264801025,-0.7088227272033691
1725631169308018400,10.475018310546876,0.38209855556488037,0.24178475141525269,-0.6417191028594971
1725631169318053000,10.48505322265625,0.36802801489830017,0.06393114477396011,-0.59987872838974
1725631169328087300,10.49508740234375,0.3390030860900879,-0.07409026473760605,-0.5859901905059814
1725631169338121500,10.50512158203125,0.34460318088531494,-0.2392808198928833,-0.5807251334190369
1725631169348155100,10.515155029296874,0.36750757694244385,-0.38223761320114136,-0.6914038062095642
1725631169358190300,10.5251904296875,0.3431287407875061,-0.461093544960022,-0.9038987755775452
1725631169368224300,10.535224365234376,0.27902811765670776,-0.5011764764785767,-1.109592080116272
1725631169378258200,10.545258056640625,0.189069464802742,-0.5316092371940613,-1.2365944385528564
1725631169388292400,10.555292236328125,0.07849260419607162,-0.46561551094055176,-1.280555009841919
1725631169398327300,10.565327392578125,-0.05643165484070778,-0.31215858459472656,-1.3052443265914917
1725631169408361500,10.575361572265624,-0.13528837263584137,-0.10418140888214111,-1.3130781650543213
1725631169418395400,10.5853955078125,-0.11481425911188126,0.1707252562046051,-1.355764627456665
1725631169428429300,10.59542919921875,-0.027274008840322495,0.35223060846328735,-1.3074289560317993
1725631169438464500,10.605464599609375,0.053289543837308884,0.3387696444988251,-1.135371208190918
1725631169448498200,10.615498291015625,0.15656384825706482,0.3019726276397705,-0.9527274966239929
1725631169458532400,10.625532470703124,0.24731744825839996,0.25888267159461975,-0.8358024954795837
1725631169468567300,10.6355673828125,0.2573196291923523,0.3037376403808594,-0.7827053070068359
1725631169478601500,10.6456015625,0.18856745958328247,0.43322932720184326,-0.7074465155601501
1725631169488635400,10.655635498046875,0.06776095926761627,0.5141796469688416,-0.5524274110794067
1725631169498669300,10.66566943359375,-0.017961131408810616,0.6374546885490417,-0.33385804295539856
1725631169508704500,10.67570458984375,0.0014866573037579656,0.8881511688232422,0.01572219468653202
1725631169518738200,10.68573828125,0.04575079306960106,1.0966942310333252,0.37804898619651794
1725631169528772400,10.6957724609375,0.05408520624041557,1.1239888668060303,0.6888704895973206
1725631169538806500,10.705806640625,0.03997630998492241,0.9974161982536316,0.9303773641586304
1725631169548842000,10.715842041015625,-0.023623142391443253,0.7331717610359192,1.0922584533691406
1725631169558876000,10.7258759765625,-0.03138305991888046,0.564694344997406,1.1930382251739502
1725631169568909800,10.735909912109374,-0.0668332576751709,0.43898749351501465,1.2711032629013062
1725631169578944000,10.745944091796876,-0.1380847990512848,0.2704429626464844,1.3311485052108765
1725631169588978700,10.755978759765625,-0.20867185294628143,0.14250124990940094,1.3701695203781128
1725631169599012900,10.766012939453125,-0.2538289725780487,0.051422469317913055,1.4165774583816528
1725631169609047000,10.776047119140625,-0.30673646926879883,-0.07092589884996414,1.4815224409103394
1725631169619082000,10.78608203125,-0.31791430711746216,-0.18586473166942596,1.5496503114700317
1725631169629116000,10.796115966796876,-0.2651946246623993,-0.3409169018268585,1.6280516386032104
1725631169639149800,10.80614990234375,-0.20204761624336243,-0.5211223363876343,1.6661937236785889
1725631169649184000,10.81618408203125,-0.15573613345623016,-0.7168091535568237,1.6616922616958618
1725631169659218700,10.82621875,-0.09336570650339127,-0.9336104393005371,1.6742347478866577
1725631169669252900,10.8362529296875,-0.05537504330277443,-1.2169208526611328,1.7277979850769043
1725631169679287000,10.846287109375,-0.07879434525966644,-1.4655053615570068,1.7480838298797607
1725631169689320700,10.85632080078125,-0.09792826324701309,-1.699057698249817,1.7191396951675415
1725631169699356000,10.86635595703125,-0.15371748805046082,-1.933513879776001,1.6414169073104858
1725631169709389800,10.876389892578125,-0.228219673037529,-2.1224067211151123,1.491686463356018
1725631169719423700,10.886423828125,-0.2997998595237732,-2.1897871494293213,1.248250126838684
1725631169729458700,10.896458740234374,-0.3402145206928253,-2.0720176696777344,0.9521927237510681
1725631169739492900,10.906492919921876,-0.3691484332084656,-1.7816438674926758,0.6650530695915222
1725631169749527000,10.916527099609375,-0.37971678376197815,-1.4491161108016968,0.38760462403297424
1725631169759560700,10.926560791015625,-0.387797087430954,-1.11900794506073,0.1554347574710846
1725631169769596000,10.936595947265625,-0.4008263349533081,-0.9129611253738403,0.03604954108595848
1725631169779629800,10.9466298828125,-0.36563798785209656,-0.8315879702568054,0.04682016000151634
1725631169789663700,10.956663818359376,-0.2586955428123474,-0.8385169506072998,0.1532575637102127
1725631169799698000,10.966697998046875,-0.13789454102516174,-0.8391723036766052,0.3283612132072449
1725631169809732900,10.97673291015625,-0.01614738255739212,-0.8181368708610535,0.5060252547264099
1725631169819767000,10.98676708984375,-0.00587237486615777,-0.6615927815437317,0.7202494144439697
1725631169829801000,10.996801025390624,-0.08100234717130661,-0.496381551027298,0.889957845211029
1725631169839835000,11.0068349609375,-0.18482860922813416,-0.4284972846508026,0.9383826851844788
1725631169849870000,11.0168701171875,-0.26731231808662415,-0.45282021164894104,0.8515801429748535
1725631169859903700,11.02690380859375,-0.300802081823349,-0.39411747455596924,0.7085617184638977
1725631169869938000,11.03693798828125,-0.331037700176239,-0.19776204228401184,0.5788726210594177
1725631169879972900,11.046972900390625,-0.470086932182312,0.15919847786426544,0.5802965760231018
1725631169890006800,11.0570068359375,-0.6645705699920654,0.44529879093170166,0.715984582901001
1725631169900041000,11.067041015625,-0.7943552136421204,0.6170550584793091,0.9795696139335632
1725631169910075000,11.077074951171875,-0.8560687303543091,0.6322147846221924,1.239045262336731
1725631169920110000,11.087110107421875,-0.8369104862213135,0.6148282885551453,1.3874921798706055
1725631169930143700,11.097143798828125,-0.6986148357391357,0.6118105053901672,1.479610562324524
1725631169940178000,11.107177978515624,-0.5872297286987305,0.43344929814338684,1.5034229755401611
1725631169950212000,11.117212158203126,-0.5204697847366333,0.22278742492198944,1.445441484451294
1725631169960246800,11.127246826171875,-0.4492630064487457,0.1567213237285614,1.4094568490982056
1725631169970281000,11.137281005859375,-0.43847253918647766,0.07956811040639877,1.3292627334594727
1725631169980315000,11.14731494140625,-0.47526252269744873,-0.0042777894996106625,1.1871159076690674
1725631169990348800,11.157348876953124,-0.4890329837799072,-0.023655002936720848,1.0463221073150635
1725631170000383700,11.1673837890625,-0.47349023818969727,0.0007922835065983236,0.9744053483009338
1725631170010418000,11.17741796875,-0.3952481746673584,0.09289903193712234,0.9997674822807312
1725631170020451800,11.187451904296875,-0.305695116519928,0.29277780652046204,1.1091171503067017
1725631170030485800,11.19748583984375,-0.2894632816314697,0.4702911972999573,1.1994125843048096
1725631170040521000,11.20752099609375,-0.3485444486141205,0.5745805501937866,1.188320517539978
1725631170050555000,11.217554931640626,-0.4120784401893616,0.6953831315040588,1.1374008655548096
1725631170060588800,11.2275888671875,-0.4430408775806427,0.685953676700592,1.070349097251892
1725631170070624000,11.2376240234375,-0.4104835093021393,0.5241175889968872,0.9412057995796204
1725631170080658000,11.247657958984375,-0.28325313329696655,0.4253159165382385,0.7653554081916809
1725631170090691800,11.25769189453125,-0.11018865555524826,0.4175696074962616,0.5756629705429077
1725631170100726000,11.26772607421875,0.08331769704818726,0.413762629032135,0.40538254380226135
1725631170110761000,11.277760986328126,0.21049021184444427,0.41270846128463745,0.21974143385887146
1725631170120795000,11.287794921875,0.2511518895626068,0.4009561836719513,0.04166223853826523
1725631170130828800,11.297828857421875,0.30764302611351013,0.29570186138153076,-0.05557183176279068
1725631170140863000,11.307863037109374,0.37446895241737366,0.047636132687330246,-0.13418781757354736
1725631170150898000,11.31789794921875,0.3702438473701477,-0.11768092215061188,-0.3006071448326111
1725631170160931800,11.327931884765626,0.3444311320781708,-0.14167281985282898,-0.494204580783844
1725631170170966000,11.337966064453125,0.2929559350013733,-0.19308939576148987,-0.6673218011856079
1725631170181000000,11.348,0.20888929069042206,-0.20734502375125885,-0.8589173555374146
1725631170191035000,11.358034912109375,0.1452827900648117,-0.14529746770858765,-1.0188714265823364
1725631170201068800,11.36806884765625,0.11289902031421661,-0.028597760945558548,-1.1415926218032837
1725631170211103000,11.37810302734375,0.10884056240320206,0.1123686283826828,-1.2859082221984863
1725631170221138000,11.388137939453125,0.17224536836147308,0.30028605461120605,-1.450828194618225
1725631170231171800,11.398171875,0.1884332299232483,0.40581393241882324,-1.680443286895752
1725631170241206000,11.4082060546875,0.1129765510559082,0.3183157742023468,-2.0018227100372314
1725631170251239700,11.41823974609375,0.10303753614425659,0.20775985717773438,-2.2518606185913086
1725631170261275000,11.42827490234375,0.13944295048713684,0.07777203619480133,-2.365550994873047
1725631170271308800,11.438308837890625,0.2044079303741455,-0.10598304122686386,-2.3369626998901367
1725631170281343000,11.448343017578125,0.31453683972358704,-0.398953914642334,-2.1673922538757324
1725631170291377000,11.458376953125,0.47918233275413513,-0.6514795422554016,-1.844269871711731
1725631170301411800,11.468411865234375,0.6598525047302246,-0.8022053837776184,-1.4218240976333618
1725631170311446000,11.478446044921874,0.7562952637672424,-0.8504412770271301,-1.0064669847488403
1725631170321479700,11.488479736328125,0.7341939806938171,-0.8187688589096069,-0.7444992661476135
1725631170331513900,11.498513916015625,0.6149999499320984,-0.6723149418830872,-0.6082956194877625
1725631170341548800,11.508548828125,0.5075786709785461,-0.5024247169494629,-0.522768497467041
1725631170351583000,11.5185830078125,0.43699318170547485,-0.38095688819885254,-0.4437128007411957
1725631170361617000,11.528616943359374,0.3920353055000305,-0.26725056767463684,-0.3231829106807709
1725631170371651800,11.53865185546875,0.4200077950954437,-0.2001735419034958,-0.15976840257644653
1725631170381686000,11.54868603515625,0.4874515235424042,-0.15597864985466003,0.028628665953874588
1725631170391720000,11.558719970703125,0.5476891398429871,-0.20115481317043304,0.12778684496879578
1725631170401753900,11.56875390625,0.5666388869285583,-0.18434174358844757,0.13052751123905182
1725631170411789000,11.5787890625,0.5507166385650635,-0.0139399329200387,0.07529062777757645
1725631170421822700,11.58882275390625,0.5024279356002808,0.2655114233493805,0.0022853915579617023
1725631170431857000,11.59885693359375,0.41069701313972473,0.5899548530578613,-0.07885244488716125
1725631170441891000,11.60889111328125,0.29195117950439453,0.9036139845848083,-0.1822028011083603
1725631170451926000,11.618926025390625,0.17601606249809265,1.1848381757736206,-0.3002159595489502
1725631170461960000,11.6289599609375,0.09942968189716339,1.403428554534912,-0.4108410179615021
1725631170471993900,11.638993896484376,0.03585735708475113,1.6298763751983643,-0.49013394117355347
1725631170482027800,11.64902783203125,0.10854940116405487,1.9720458984375,-0.6417341232299805
1725631170492062700,11.659062744140625,0.2408682107925415,2.1599998474121094,-0.817443311214447
1725631170502097000,11.669096923828125,0.340060830116272,2.112644672393799,-0.9954157471656799
1725631170512131000,11.679131103515624,0.3514758050441742,2.0049593448638916,-1.188980221748352
1725631170522165800,11.689165771484374,0.35419756174087524,1.8451162576675415,-1.3418712615966797
1725631170532200000,11.699199951171876,0.33723869919776917,1.5564050674438477,-1.3705233335494995
1725631170542233900,11.70923388671875,0.330788254737854,1.1894546747207642,-1.2644599676132202
1725631170552267300,11.719267333984375,0.4725925624370575,0.8868099451065063,-1.1146228313446045
1725631170562302500,11.729302490234375,0.5940849184989929,0.628541111946106,-0.9459808468818665
1725631170572336400,11.73933642578125,0.7006608247756958,0.3966728448867798,-0.8114269375801086
1725631170582370300,11.749370361328126,0.7888785600662231,0.21937157213687897,-0.7776367664337158
1725631170592404500,11.759404541015625,0.8422204256057739,0.09661299735307693,-0.8542090654373169
1725631170602439400,11.769439453125,0.7674666047096252,-0.043163809925317764,-0.9752763509750366
1725631170612473600,11.7794736328125,0.5865206122398376,-0.19945396482944489,-1.0494334697723389
1725631170622507300,11.78950732421875,0.35824641585350037,-0.3161478340625763,-1.0735447406768799
1725631170632541400,11.79954150390625,0.15442270040512085,-0.31333714723587036,-1.0617674589157104
1725631170642576400,11.809576416015625,-0.005249522160738707,-0.27994802594184875,-1.0234768390655518
1725631170652610300,11.8196103515625,-0.08175341784954071,-0.2361646592617035,-0.971347451210022
1725631170662644500,11.82964453125,-0.015951769426465034,-0.121184803545475,-0.879887580871582
1725631170672679400,11.839679443359374,0.03798017278313637,-0.06593965739011765,-0.7615851759910583
1725631170682713300,11.84971337890625,0.10760346055030823,-0.04985363408923149,-0.6460825800895691
1725631170692747300,11.859747314453125,0.1692296862602234,-0.05472148582339287,-0.5347524285316467
1725631170702781400,11.869781494140625,0.17499035596847534,-0.013406004756689072,-0.43088918924331665
1725631170712816400,11.87981640625,0.1032770499587059,0.11081955581903458,-0.3372279405593872
1725631170722850300,11.889850341796874,-0.013421603478491306,0.24016103148460388,-0.24596594274044037
1725631170732884500,11.899884521484376,-0.13333311676979065,0.34326422214508057,-0.15957404673099518
1725631170742918400,11.90991845703125,-0.24261192977428436,0.4014681279659271,-0.06410664319992065
1725631170752953300,11.919953369140625,-0.2799028754234314,0.4841073155403137,0.0568523034453392
1725631170762987300,11.9299873046875,-0.29848721623420715,0.6043445467948914,0.17168700695037842
1725631170773021400,11.940021484375,-0.28880995512008667,0.683000385761261,0.2754545211791992
1725631170783055400,11.950055419921876,-0.2664245069026947,0.7309346199035645,0.3975713849067688
1725631170793090300,11.96009033203125,-0.24106967449188232,0.7431479692459106,0.5583758354187012
1725631170803124500,11.97012451171875,-0.21729296445846558,0.7293546795845032,0.7409693598747253
1725631170813158400,11.980158447265625,-0.2605074644088745,0.6142969727516174,0.9180334210395813
1725631170823193300,11.990193359375,-0.3463118374347687,0.3979199230670929,1.0802804231643677
1725631170833227500,12.0002275390625,-0.40933486819267273,0.21360290050506592,1.2166035175323486
1725631170843261400,12.010261474609376,-0.40294063091278076,0.06486082077026367,1.3503698110580444
1725631170853295400,12.02029541015625,-0.4198337495326996,-0.08963514119386673,1.481865406036377
1725631170863330300,12.030330322265625,-0.42963019013404846,-0.214387446641922,1.6196554899215698
1725631170873364500,12.040364501953125,-0.3871777653694153,-0.40026700496673584,1.7813432216644287
1725631170883398400,12.0503984375,-0.3014516830444336,-0.595722496509552,1.940478801727295
1725631170893432300,12.060432373046876,-0.20305953919887543,-0.8229098320007324,2.056372880935669
1725631170903467500,12.070467529296875,-0.14671717584133148,-1.0439995527267456,2.084291458129883
1725631170913501400,12.08050146484375,-0.11910954117774963,-1.2072796821594238,2.0353190898895264
1725631170923535400,12.090535400390625,-0.14233124256134033,-1.3074984550476074,1.9037562608718872
1725631170933569500,12.100569580078124,-0.20293845236301422,-1.238283634185791,1.6475385427474976
1725631170943604500,12.1106044921875,-0.24450640380382538,-0.924164354801178,1.2772830724716187
1725631170953638400,12.120638427734375,-0.24492116272449493,-0.44551268219947815,0.813691258430481
1725631170963672300,12.13067236328125,-0.272472083568573,0.12522298097610474,0.26653730869293213
1725631170973707500,12.14070751953125,-0.3764215111732483,0.5551660060882568,-0.17921553552150726
1725631170983741200,12.1507412109375,-0.5227717757225037,0.6700150966644287,-0.40893182158470154
1725631170993775400,12.160775390625,-0.6582640409469604,0.608784556388855,-0.4242488443851471
1725631171003809500,12.1708095703125,-0.7254098057746887,0.5656919479370117,-0.26859721541404724
1725631171013844500,12.180844482421875,-0.6925793290138245,0.5300871133804321,-0.04926009103655815
1725631171023878400,12.19087841796875,-0.5519338250160217,0.4027808606624603,0.1082022413611412
1725631171033912300,12.200912353515625,-0.3745132386684418,0.16571368277072906,0.21592579782009125
1725631171043946500,12.210946533203124,-0.19228485226631165,-0.13560594618320465,0.3468870222568512
1725631171053981200,12.220981201171876,-0.1055842712521553,-0.3354891836643219,0.5661990642547607
1725631171064015400,12.231015380859375,-0.0754878893494606,-0.4044969975948334,0.8079067468643188
1725631171074049500,12.241049560546875,-0.08199069648981094,-0.3471563756465912,1.0005285739898682
1725631171084083200,12.251083251953125,-0.12105128169059753,-0.25993067026138306,1.1140798330307007
1725631171094118400,12.261118408203124,-0.1812838315963745,-0.2755395472049713,1.1515944004058838
1725631171104152300,12.27115234375,-0.2696134150028229,-0.4030466377735138,1.1390076875686646
1725631171114186200,12.281186279296875,-0.3938918709754944,-0.5027102828025818,1.1433653831481934
1725631171124221400,12.291221435546875,-0.4855128824710846,-0.440853089094162,1.3019745349884033
1725631171134255400,12.30125537109375,-0.42872729897499084,-0.5016418099403381,1.5366770029067993
1725631171144289500,12.31128955078125,-0.27645495533943176,-0.793121874332428,1.7287324666976929
1725631171154324200,12.32132421875,-0.17699524760246277,-1.2737923860549927,1.735964059829712
1725631171164358400,12.3313583984375,-0.06564182043075562,-1.2852444648742676,1.769132137298584
1725631171174392600,12.341392578125,0.05492407828569412,-1.0469218492507935,1.979884147644043
1725631171184426200,12.35142626953125,0.06666728854179382,-1.2361559867858887,2.1420116424560547
1725631171194461400,12.36146142578125,0.0381128266453743,-1.505108118057251,2.173485040664673
1725631171204495400,12.371495361328124,-0.058534886687994,-1.581829309463501,2.0526812076568604
1725631171214529300,12.381529296875,-0.16766123473644257,-1.419130802154541,1.7944716215133667
1725631171224564200,12.391564208984375,-0.2562102675437927,-1.1315956115722656,1.481454849243164
1725631171234598400,12.401598388671875,-0.32183539867401123,-0.7603814601898193,1.2375179529190063
1725631171244632600,12.411632568359375,-0.36592352390289307,-0.3937126100063324,1.1110299825668335
1725631171254666200,12.421666259765624,-0.38863515853881836,-0.07250528037548065,1.0776360034942627
1725631171264701400,12.431701416015626,-0.3531983494758606,0.2041420191526413,1.043540596961975
1725631171274735400,12.4417353515625,-0.310879111289978,0.3652143180370331,0.9795690774917603
1725631171284769300,12.451769287109375,-0.2797430157661438,0.5913374423980713,0.9502288103103638
1725631171294803500,12.461803466796875,-0.2859223783016205,0.8445518016815186,0.9570255279541016
1725631171304838400,12.47183837890625,-0.28344351053237915,0.8469739556312561,0.9080904722213745
1725631171314872600,12.48187255859375,-0.19292087852954865,0.7380274534225464,0.7225147485733032
1725631171324906200,12.49190625,0.022991176694631577,0.6632310152053833,0.5138989686965942
1725631171334940400,12.5019404296875,0.2171262949705124,0.4654180407524109,0.3702477812767029
1725631171344975400,12.511975341796875,0.35680750012397766,0.22397346794605255,0.2475104182958603
1725631171355009300,12.52200927734375,0.45973530411720276,0.10984381288290024,0.10593345761299133
1725631171365043500,12.53204345703125,0.5039379596710205,0.1097111850976944,0.000995329231955111
