time,seconds_elapsed,z,y,x
1725631011888328200,0.019328125,0.00028212377219460905,-0.25881367921829224,0.22864605486392975
1725631011898362400,0.0293623046875,-0.21586211025714874,-0.3129892647266388,0.40977898240089417
1725631011908396300,0.039396240234375,-0.45426324009895325,-0.4408401846885681,0.5989595055580139
1725631011918430200,0.04943017578125,-0.682646632194519,-0.5753074288368225,0.7890378832817078
1725631011928464100,0.059464111328125,-0.8350465893745422,-0.5149639248847961,0.979411780834198
1725631011938499300,0.069499267578125,-0.8100501298904419,-0.6695743203163147,1.16761314868927
1725631011948533200,0.079533203125,-0.9896606206893921,-0.299151211977005,1.3823277950286865
1725631011958567400,0.0895673828125,-1.1344929933547974,-0.4352678060531616,1.3360257148742676
1725631011968600600,0.0996005859375,-1.0308693647384644,-0.7102753520011902,1.159659504890442
1725631011978635500,0.109635498046875,-0.8583564162254333,-0.48055729269981384,0.9126137495040894
1725631011988669700,0.119669677734375,-0.5156680941581726,-0.36030733585357666,0.6515350341796875
1725631011998703400,0.129703369140625,-0.22094915807247162,-0.4867127239704132,0.3102248013019562
1725631012008737500,0.139737548828125,-0.045813292264938354,-0.5936887264251709,0.07635797560214996
1725631012018771700,0.149771728515625,-0.027235254645347595,-0.4708787798881531,0.05394695699214935
1725631012028806400,0.159806396484375,0.014918324537575245,-0.27379074692726135,0.18094617128372192
1725631012038840600,0.169840576171875,0.10888314247131348,-0.1620323210954666,0.2964812219142914
1725631012048874500,0.17987451171875,0.21705248951911926,-0.17243489623069763,0.3640402853488922
1725631012058908400,0.189908447265625,0.3400897681713104,-0.1620091050863266,0.39269891381263733
1725631012068943600,0.199943603515625,0.46889781951904297,-0.1376534402370453,0.3879060447216034
1725631012078977500,0.2099775390625,0.5696999430656433,-0.15563040971755981,0.305438369512558
1725631012089011500,0.220011474609375,0.6297422647476196,-0.16106538474559784,0.1757970154285431
1725631012099045600,0.230045654296875,0.5663049221038818,0.1034775897860527,0.10257473587989807
1725631012109079600,0.24007958984375,0.5191475749015808,0.4285893738269806,0.0553148128092289
1725631012119114800,0.25011474609375,0.5389484167098999,0.5375877022743225,0.05747807025909424
1725631012129148400,0.2601484375,0.5083371996879578,0.7540635466575623,0.23667339980602264
1725631012139182600,0.2701826171875,0.48300594091415405,0.72490394115448,0.46481087803840637
1725631012149216800,0.280216796875,0.41134321689605713,0.6527389883995056,0.7168513536453247
1725631012159250400,0.29025048828125,0.282288521528244,0.8446127772331238,0.8204384446144104
1725631012169285600,0.30028564453125,0.29857268929481506,0.8109506964683533,0.6399192214012146
1725631012179319600,0.310319580078125,0.511778712272644,0.83368319272995,0.23801924288272858
1725631012189353500,0.320353515625,0.805555522441864,0.8367514610290527,-0.26704445481300354
1725631012199387600,0.3303876953125,1.1081358194351196,0.8517034649848938,-0.6840643286705017
1725631012209422600,0.340422607421875,1.3610343933105469,1.2638732194900513,-1.021981120109558
1725631012219456500,0.35045654296875,1.542183518409729,1.8645672798156738,-1.3029745817184448
1725631012229490400,0.360490478515625,1.6965776681900024,2.467064380645752,-1.4952583312988281
1725631012239524600,0.370524658203125,1.8538458347320557,2.9616665840148926,-1.5495820045471191
1725631012249558500,0.38055859375,1.7744919061660767,2.932497978210449,-1.4811947345733643
1725631012259593500,0.390593505859375,1.3578925132751465,2.887072801589966,-1.270338773727417
1725631012269627600,0.400627685546875,0.8973990082740784,2.6092658042907715,-0.845394492149353
1725631012279661300,0.410661376953125,0.6742010712623596,1.9933862686157227,-0.3455348312854767
1725631012289695500,0.420695556640625,0.7441393733024597,1.5648490190505981,0.08731885999441147
1725631012299730400,0.43073046875,1.0073649883270264,1.4396216869354248,0.25550374388694763
1725631012309764600,0.4407646484375,1.3080202341079712,1.5418634414672852,0.0594325065612793
1725631012319798500,0.450798583984375,1.5966286659240723,1.7106717824935913,-0.36588963866233826
1725631012329832400,0.46083251953125,1.864869236946106,2.036123752593994,-0.8402617573738098
1725631012339866600,0.47086669921875,2.000810146331787,2.500261068344116,-1.304962158203125
1725631012349901300,0.4809013671875,2.0564610958099365,2.976799249649048,-1.7618404626846313
1725631012359935500,0.490935546875,2.062519073486328,3.3728690147399902,-2.1493961811065674
1725631012369969700,0.5009697265625,1.990602731704712,3.5578789710998535,-2.3573098182678223
1725631012380003300,0.51100341796875,1.8115119934082031,3.533630609512329,-2.2264299392700195
1725631012390037500,0.52103759765625,1.65574049949646,3.546447277069092,-1.7677011489868164
1725631012400072400,0.531072509765625,1.7052322626113892,3.8480238914489746,-1.221022605895996
1725631012410106400,0.5411064453125,1.8967883586883545,4.080256462097168,-0.86850905418396
1725631012420140500,0.551140625,2.151700735092163,4.054592609405518,-0.968665361404419
1725631012430174500,0.561174560546875,2.1525697708129883,3.8541789054870605,-1.1885098218917847
1725631012440209700,0.571209716796875,2.0697855949401855,3.4147229194641113,-1.5553271770477295
1725631012450243600,0.58124365234375,1.862436294555664,2.477729082107544,-1.9890426397323608
1725631012460277500,0.591277587890625,1.6192982196807861,1.3373669385910034,-2.1721699237823486
1725631012470311700,0.601311767578125,1.5743464231491089,0.484054297208786,-2.0982868671417236
1725631012480345600,0.611345703125,1.8039441108703613,-0.07245192676782608,-1.947776198387146
1725631012490380500,0.621380615234375,2.2696197032928467,-0.023546703159809113,-1.901469111442566
1725631012500414700,0.631414794921875,2.905334949493408,0.642933189868927,-1.8248435258865356
1725631012510448400,0.641448486328125,3.6034250259399414,1.109007477760315,-1.8813621997833252
1725631012520482600,0.651482666015625,4.19069242477417,1.402269721031189,-2.0874381065368652
1725631012530517500,0.661517578125,4.5348334312438965,1.4819214344024658,-2.4931247234344482
1725631012540551400,0.671551513671875,4.554500579833984,1.510364055633545,-3.021036148071289
1725631012550585600,0.681585693359375,4.494547367095947,1.795923113822937,-3.6458849906921387
1725631012560619500,0.69161962890625,4.4294257164001465,2.2642362117767334,-4.343314170837402
1725631012570653400,0.7016533203125,4.322188854217529,2.7693750858306885,-4.983524799346924
1725631012580688400,0.7116884765625,4.216302394866943,3.3035852909088135,-5.440755844116211
1725631012590722600,0.72172265625,4.0626020431518555,3.4920804500579834,-5.666949272155762
1725631012600756700,0.7317568359375,3.8987975120544434,3.379401206970215,-5.691244125366211
1725631012610790400,0.741790283203125,3.801631450653076,3.1352477073669434,-5.530632972717285
1725631012620824600,0.751824462890625,3.7644219398498535,2.9700772762298584,-5.247072219848633
1725631012630859500,0.761859619140625,3.6341166496276855,2.832951545715332,-5.001038551330566
1725631012640893400,0.7718935546875,3.1920413970947266,2.5001912117004395,-4.51672887802124
1725631012650927600,0.781927734375,2.740776300430298,2.4407522678375244,-3.784555435180664
1725631012660961500,0.79196142578125,2.429696559906006,2.656738758087158,-3.072341203689575
1725631012670996500,0.80199658203125,2.2124176025390625,3.2589261531829834,-2.3746368885040283
1725631012681030400,0.812030517578125,1.9805986881256104,3.955223798751831,-1.7826038599014282
1725631012691064600,0.822064697265625,1.752557635307312,4.517294406890869,-1.3264895677566528
1725631012701098500,0.832098388671875,1.4141746759414673,4.682251453399658,-0.9900507926940918
1725631012711132400,0.84213232421875,1.0518298149108887,4.630580902099609,-0.7418897151947021
1725631012721167600,0.852167724609375,0.7462498545646667,4.4085822105407715,-0.5444383025169373
1725631012731201500,0.862201416015625,0.39056897163391113,4.111874103546143,-0.3405280113220215
1725631012741235500,0.8722353515625,-0.2268005609512329,3.8755059242248535,-0.11284741759300232
1725631012751269600,0.88226953125,-0.7474453449249268,3.6031432151794434,0.03311377763748169
1725631012761304600,0.8923046875,-1.2466516494750977,3.3213865756988525,0.1682194173336029
1725631012771338500,0.90233837890625,-1.4888595342636108,3.0541622638702393,0.2730877697467804
1725631012781372700,0.91237255859375,-1.3878462314605713,2.9165046215057373,0.3581673502922058
1725631012791406600,0.922406494140625,-1.0845098495483398,2.720587730407715,0.4935542047023773
1725631012801440500,0.9324404296875,-0.8270125985145569,2.3275668621063232,0.5812316536903381
1725631012811475500,0.942475341796875,-0.6512271761894226,1.893022060394287,0.591939389705658
1725631012821509600,0.952509521484375,-0.5132761597633362,1.4931166172027588,0.5503146648406982
1725631012831543600,0.96254345703125,-0.419565886259079,1.1586811542510986,0.4628647267818451
1725631012841577500,0.972577392578125,-0.464900940656662,0.7290210127830505,0.3738695979118347
1725631012851611600,0.982611572265625,-0.6844596266746521,0.3828694522380829,0.24115949869155884
1725631012861646600,0.992646484375,-0.8611751794815063,0.18036921322345734,0.05072340741753578
1725631012871680500,1.002680419921875,-0.9776861071586609,-0.1169160008430481,-0.10289597511291504
1725631012881714700,1.012714599609375,-0.8984364867210388,-0.1479886770248413,-0.12663809955120087
1725631012891748400,1.022748291015625,-0.7387602925300598,-0.16218970715999603,-0.14692260324954987
1725631012901782500,1.032782470703125,-0.5019123554229736,-0.13255275785923004,-0.18936800956726074
1725631012911817500,1.0428173828125,-0.26382124423980713,0.10038062930107117,-0.24169646203517914
1725631012921851600,1.0528515625,-0.1066363975405693,0.24257558584213257,-0.3520890176296234
1725631012931885600,1.062885498046875,0.027813291177153587,0.3438151180744171,-0.37423187494277954
1725631012941919500,1.07291943359375,0.2126871645450592,0.28601086139678955,-0.3338353931903839
1725631012951954700,1.08295458984375,0.32235267758369446,0.024284694343805313,-0.2754804790019989
1725631012961988400,1.09298828125,0.37522581219673157,-0.32079166173934937,-0.2243507206439972
1725631012972023000,1.10302294921875,0.47239628434181213,-0.5727555155754089,-0.3142364025115967
1725631012982057200,1.11305712890625,0.5364714860916138,-0.6062896251678467,-0.4403717815876007
1725631012992091000,1.1230908203125,0.7495052218437195,-0.5720301866531372,-0.33580487966537476
1725631013002126000,1.1331259765625,1.0452133417129517,-0.482736736536026,-0.2387365996837616
1725631013012160000,1.143159912109375,1.140667200088501,-0.40197157859802246,-0.36033838987350464
1725631013022194000,1.15319384765625,1.0325124263763428,-0.4456445574760437,-0.5764294862747192
1725631013032228000,1.16322802734375,0.8327242136001587,-0.6722081899642944,-0.6999719738960266
1725631013042262000,1.173261962890625,0.6860907077789307,-0.8407608866691589,-0.6758670210838318
1725631013052297000,1.183296875,0.6596750617027283,-0.9702978134155273,-0.5271025896072388
1725631013062331000,1.193330810546875,0.715653121471405,-0.9713186025619507,-0.38812923431396484
1725631013072365000,1.203364990234375,0.7290810346603394,-0.9162460565567017,-0.3168252110481262
1725631013082399000,1.21339892578125,0.6446608304977417,-0.8738307952880859,-0.24415883421897888
1725631013092434000,1.223433837890625,0.4473821520805359,-0.808979332447052,-0.20435549318790436
1725631013102468000,1.233468017578125,0.165647953748703,-0.6627027988433838,-0.24522307515144348
1725631013112502000,1.243501953125,-0.1419556736946106,-0.5362348556518555,-0.27813097834587097
1725631013122536000,1.253535888671875,-0.42380571365356445,-0.3938327431678772,-0.29177412390708923
1725631013132570000,1.263570068359375,-0.6477288603782654,-0.35117822885513306,-0.3319351375102997
1725631013142605000,1.27360498046875,-0.8672583103179932,-0.47738170623779297,-0.37390491366386414
1725631013152639000,1.283638916015625,-1.0569020509719849,-0.6931248903274536,-0.4205656349658966
1725631013162673000,1.2936728515625,-1.190194845199585,-0.9861589074134827,-0.4642137885093689
1725631013172707000,1.30370703125,-1.2912298440933228,-1.2677130699157715,-0.5034381151199341
1725631013182741000,1.313740966796875,-1.2616517543792725,-1.1404316425323486,-0.3599397838115692
1725631013192776000,1.32377587890625,-1.0371663570404053,-0.7141085267066956,-0.13509497046470642
1725631013202810000,1.33381005859375,-0.8201429843902588,-0.6110857129096985,-0.11065860092639923
1725631013212843800,1.34384375,-0.7096692323684692,-0.7777671217918396,-0.09596993774175644
1725631013222878000,1.3538779296875,-0.6956286430358887,-0.8889896273612976,-0.02579205296933651
1725631013232913000,1.363912841796875,-0.6824148297309875,-0.7146532535552979,0.03493654355406761
1725631013242947000,1.373947021484375,-0.6149789690971375,-0.4084104299545288,0.055433742702007294
1725631013252981000,1.38398095703125,-0.5226778388023376,-0.1865350306034088,0.025675581768155098
1725631013263015000,1.394014892578125,-0.4982108771800995,-0.02849988266825676,-0.030123122036457062
1725631013273048800,1.404048828125,-0.48507776856422424,0.05821077898144722,-0.043383534997701645
1725631013283084000,1.414083984375,-0.403338223695755,0.08725510537624359,-0.08146648854017258
1725631013293118000,1.424117919921875,-0.3336835205554962,-0.065142422914505,-0.07662831991910934
1725631013303152000,1.434152099609375,-0.3192119598388672,-0.11571857333183289,0.05833550915122032
1725631013313186000,1.44418603515625,-0.34117746353149414,-0.09558054804801941,0.03830188140273094
1725631013323220000,1.454219970703125,-0.44374045729637146,-0.033737827092409134,-0.09388881176710129
1725631013333255200,1.464255126953125,-0.6640941500663757,0.05641070753335953,-0.2270873337984085
1725631013343288800,1.474288818359375,-0.9098827838897705,0.02215610072016716,-0.27739185094833374
1725631013353323000,1.484322998046875,-1.1804019212722778,-0.09953891485929489,-0.14693929255008698
1725631013363357200,1.494357177734375,-1.4608759880065918,-0.17851802706718445,0.0786547064781189
1725631013373390800,1.504390869140625,-1.6270653009414673,-0.2005932331085205,0.24073947966098785
1725631013383426000,1.514426025390625,-1.7597812414169312,-0.1224622055888176,0.3103529214859009
1725631013393460000,1.5244599609375,-1.9245665073394775,0.031107641756534576,0.314012348651886
1725631013403494000,1.534493896484375,-2.103508234024048,0.25054803490638733,0.21121083199977875
1725631013413528000,1.544528076171875,-2.252234935760498,0.5387760400772095,0.03242882341146469
1725631013423563000,1.55456298828125,-2.215395450592041,0.9722622036933899,-0.20917758345603943
1725631013433597200,1.56459716796875,-2.165695905685425,1.2434388399124146,-0.4701426029205322
1725631013443630800,1.574630859375,-2.1884725093841553,1.4989886283874512,-0.5270326733589172
1725631013453665000,1.5846650390625,-2.1529226303100586,1.714846134185791,-0.44210633635520935
1725631013463699200,1.59469921875,-1.955736517906189,1.815621256828308,-0.28974610567092896
1725631013473734000,1.60473388671875,-1.6986476182937622,1.8219451904296875,-0.09704030305147171
1725631013483768000,1.61476806640625,-1.4559943675994873,1.6986243724822998,0.1540144830942154
1725631013493802000,1.624802001953125,-1.163074016571045,1.424336314201355,0.4625321328639984
1725631013503836000,1.6348359375,-0.8162572979927063,1.0379201173782349,0.7884973883628845
1725631013513870000,1.6448701171875,-0.4396807551383972,0.5762453675270081,1.0855250358581543
1725631013523905000,1.654905029296875,-0.022455938160419464,0.167448952794075,1.287900447845459
1725631013533939000,1.66493896484375,0.383531779050827,-0.11801795661449432,1.294257640838623
1725631013543972900,1.674972900390625,0.689327597618103,-0.17826086282730103,1.1048158407211304
1725631013554007000,1.685007080078125,0.83226078748703,-0.02867988869547844,0.7901356220245361
1725631013564042000,1.6950419921875,0.8701024651527405,0.28121644258499146,0.45818832516670227
1725631013574076000,1.705075927734375,0.8030680418014526,0.5459887385368347,0.20767779648303986
1725631013584110000,1.715110107421875,0.5975896120071411,0.4901919662952423,0.27756640315055847
1725631013594144000,1.72514404296875,0.3011898994445801,0.25251203775405884,0.5226664543151855
1725631013604178000,1.735177978515625,-0.0397152453660965,-0.0786515548825264,0.7087904214859009
1725631013614212900,1.745212890625,-0.460950642824173,-0.5738500952720642,0.5886695981025696
1725631013624247000,1.7552470703125,-0.7625775337219238,-1.4822250604629517,-0.1731855720281601
1725631013634281000,1.765281005859375,-1.1202049255371094,-2.0697996616363525,-1.1755515336990356
1725631013644315000,1.77531494140625,-1.8193405866622925,-2.3653011322021484,-1.7406253814697266
1725631013654349000,1.78534912109375,-2.592946767807007,-1.9076069593429565,-1.605517029762268
1725631013664384000,1.795384033203125,-2.8587636947631836,-1.1043555736541748,-0.855737566947937
1725631013674418000,1.80541796875,-2.290482759475708,-0.24237722158432007,0.3422982394695282
1725631013684452000,1.8154521484375,-1.727960228919983,1.009032964706421,1.4560134410858154
1725631013694486000,1.825486083984375,-1.4191569089889526,2.305180072784424,2.053314685821533
1725631013704520000,1.83552001953125,-1.0373508930206299,3.2339301109313965,1.9787975549697876
1725631013714555100,1.84555517578125,-0.8026571273803711,3.3141098022460938,1.5052180290222168
1725631013724589000,1.855589111328125,-0.7339767217636108,2.8802666664123535,0.8460190892219543
1725631013734623000,1.865623046875,-0.7456890344619751,2.2882442474365234,0.27394044399261475
1725631013744657200,1.8756572265625,-0.7463935017585754,1.707834005355835,-0.011857809498906136
1725631013754690800,1.88569091796875,-0.7779191732406616,1.1961894035339355,-0.014547335915267467
1725631013764726000,1.89572607421875,-0.7759411931037903,0.636688768863678,0.1965990513563156
1725631013774760000,1.905760009765625,-0.6906231045722961,0.17296187579631805,0.4623385965824127
1725631013784794000,1.915794189453125,-0.6547003984451294,0.0845450907945633,0.5597801804542542
1725631013794828000,1.925828125,-0.35504472255706787,-0.11837979406118393,0.7935263514518738
1725631013804863000,1.935863037109375,-0.4174310564994812,-0.018524229526519775,0.980991542339325
1725631013814897200,1.945897216796875,-0.6502602696418762,-0.013304168358445168,1.1696703433990479
1725631013824930800,1.955930908203125,-0.786094069480896,0.10729146748781204,1.2876408100128174
1725631013834965000,1.965965087890625,-0.9226713180541992,0.22009684145450592,1.3042889833450317
1725631013844999200,1.975999267578125,-1.0574058294296265,0.38150644302368164,1.2193899154663086
1725631013855034000,1.9860341796875,-1.0519646406173706,0.17037023603916168,1.1277028322219849
1725631013865068000,1.996068115234375,-1.0404012203216553,-0.14406684041023254,1.1156361103057861
1725631013875102000,2.00610205078125,-0.9692477583885193,-0.2477429062128067,1.08352530002594
1725631013885136000,2.016135986328125,-0.82147616147995,-0.20074719190597534,1.021270751953125
1725631013895170000,2.026170166015625,-0.6149680018424988,-0.12909723818302155,0.9121893048286438
1725631013905205000,2.036205078125,-0.4787096083164215,-0.2162114530801773,0.737955629825592
1725631013915239200,2.0462392578125,-0.4394221305847168,-0.3119451701641083,0.5995559692382812
1725631013925272800,2.05627294921875,-0.43837833404541016,-0.4494297504425049,0.5313692092895508
1725631013935307000,2.06630712890625,-0.44972527027130127,-0.5671531558036804,0.583278477191925
1725631013945341200,2.076341064453125,-0.43222761154174805,-0.4254259467124939,0.7016943097114563
1725631013955375900,2.0863759765625,-0.3633039593696594,-0.2742233872413635,0.8757939338684082
1725631013965410000,2.09641015625,-0.33064892888069153,-0.1368366777896881,1.1200495958328247
1725631013975444000,2.10644384765625,-0.20536135137081146,-0.17067241668701172,1.3491607904434204
1725631013985478000,2.116477783203125,-0.07868465781211853,-0.3401389718055725,1.4695039987564087
1725631013995513000,2.12651318359375,0.02446676231920719,-0.4253427982330322,1.4371860027313232
1725631014005546800,2.136546630859375,0.06892746686935425,-0.3382558226585388,1.2570215463638306
1725631014015581000,2.146580810546875,0.0709269717335701,-0.15516802668571472,0.9816267490386963
1725631014025615000,2.156614990234375,0.06496884673833847,0.03916354477405548,0.7228280901908875
1725631014035648800,2.166648681640625,0.061924587935209274,0.3130936324596405,0.5525322556495667
1725631014045684000,2.17668408203125,0.0034611187875270844,0.6955977082252502,0.45569363236427307
1725631014055718000,2.1867177734375,0.006186331156641245,0.9047061800956726,0.38733401894569397
1725631014065752000,2.196751953125,0.04525855928659439,0.9775912165641785,0.34038588404655457
1725631014075786000,2.206785888671875,0.13947267830371857,0.8855992555618286,0.30531179904937744
1725631014085820000,2.21681982421875,0.21918171644210815,0.7021925449371338,0.2861992120742798
1725631014095855000,2.226855224609375,0.31194496154785156,0.48097941279411316,0.24344883859157562
1725631014105888800,2.236888671875,0.40547487139701843,0.2238091230392456,0.2157922238111496
1725631014115923000,2.2469228515625,0.46935850381851196,0.022533001378178596,0.2779432237148285
1725631014125957000,2.25695703125,0.6892634630203247,-0.09531504660844803,0.36969298124313354
1725631014135990800,2.26699072265625,0.6623027324676514,-0.1913507580757141,0.37805530428886414
1725631014146026000,2.27702587890625,0.44634944200515747,-0.31001630425453186,0.3297136127948761
1725631014156060000,2.287059814453125,0.18593305349349976,-0.5189908742904663,0.21809281408786774
1725631014166093800,2.29709375,-0.1425701528787613,-1.1476669311523438,0.18324720859527588
1725631014176128000,2.3071279296875,-0.3150172829627991,-1.818447232246399,0.18219099938869476
1725631014186162000,2.317161865234375,-0.332135409116745,-2.0728907585144043,0.07660645991563797
1725631014196196900,2.32719677734375,-0.2779485881328583,-1.9353392124176025,-0.09268829226493835
1725631014206230800,2.337230712890625,-0.08592718839645386,-1.5178903341293335,-0.16920767724514008
1725631014216265000,2.347264892578125,0.09781548380851746,-1.0306426286697388,-0.12906639277935028
1725631014226299000,2.357298828125,0.06579532474279404,-0.5264803171157837,-0.026913369074463844
1725631014236333800,2.367333740234375,-0.15837785601615906,0.1062723770737648,-0.016269780695438385
1725631014246368000,2.377367919921875,-0.4188256561756134,0.25153931975364685,-0.0010314809624105692
1725631014256402000,2.38740185546875,-0.6150434017181396,0.21062065660953522,0.029003914445638657
1725631014266435800,2.397435791015625,-0.6603578329086304,-0.011931691318750381,0.089010089635849
1725631014276470000,2.407469970703125,-0.5248327255249023,-0.11182979494333267,0.06482965499162674
1725631014286505000,2.4175048828125,-0.2818020284175873,-0.12969377636909485,-0.06482689827680588
1725631014296539000,2.427538818359375,-0.06645482033491135,-0.0975603461265564,-0.26823890209198
1725631014306572800,2.43757275390625,0.09030719846487045,-0.034315768629312515,-0.4482908546924591
1725631014316607000,2.44760693359375,0.1989218145608902,0.04556627944111824,-0.5796960592269897
1725631014326641000,2.457640869140625,0.30199944972991943,0.13796170055866241,-0.7329916954040527
1725631014336675800,2.46767578125,0.36748895049095154,0.0749710202217102,-0.8965060710906982
1725631014346710000,2.4777099609375,0.42248228192329407,-0.06328824162483215,-1.032802700996399
1725631014356744000,2.487743896484375,0.4797133207321167,-0.18965096771717072,-1.122223138809204
1725631014366777900,2.49777783203125,0.5292429327964783,-0.3904297649860382,-1.1335790157318115
1725631014376812000,2.50781201171875,0.5510728359222412,-0.6017130017280579,-1.0703262090682983
1725631014386847000,2.517846923828125,0.4652315676212311,-0.6945945620536804,-1.0376613140106201
1725631014396881000,2.527880859375,0.4703344404697418,-0.9684780836105347,-1.0684053897857666
1725631014406915000,2.5379150390625,0.6601078510284424,-1.2107462882995605,-1.123007893562317
1725631014416948700,2.54794873046875,0.8826860785484314,-1.0662314891815186,-1.397438406944275
1725631014426983000,2.55798291015625,1.2224122285842896,-0.7703960537910461,-2.0096020698547363
1725631014437017900,2.568017822265625,1.4850726127624512,-0.043464403599500656,-3.339980125427246
1725631014447052000,2.578052001953125,1.4928218126296997,-0.9871764183044434,-3.9375545978546143
1725631014457086000,2.5880859375,1.4073386192321777,-0.904710054397583,-2.8749215602874756
1725631014467119900,2.598119873046875,0.9515472650527954,-1.3572672605514526,-2.2923951148986816
1725631014477155000,2.608155029296875,0.5017281770706177,-1.5798949003219604,-1.982629656791687
1725631014487188700,2.618188720703125,0.13081923127174377,-1.5821903944015503,-1.2693018913269043
1725631014497223000,2.628222900390625,0.04938402771949768,-1.8278433084487915,-0.45052069425582886
1725631014507257000,2.638257080078125,0.16120247542858124,-1.7452222108840942,0.24785003066062927
1725631014517290800,2.648290771484375,0.4026968479156494,-1.495962381362915,0.5705748200416565
1725631014527326000,2.658325927734375,0.7921594977378845,-1.1284245252609253,0.785302460193634
1725631014537360000,2.66835986328125,1.2595220804214478,-0.6323497295379639,0.9184093475341797
1725631014547393800,2.678393798828125,1.7615623474121094,0.14187483489513397,0.8732749819755554
1725631014557428000,2.688427978515625,2.177260160446167,0.7595582604408264,0.6191926002502441
1725631014567462000,2.6984619140625,2.4199063777923584,1.1225438117980957,0.3218161165714264
1725631014577497000,2.7084970703125,2.3818624019622803,1.5454742908477783,0.09151046723127365
1725631014587530800,2.71853076171875,2.20902156829834,1.6814204454421997,-0.16042575240135193
1725631014597565000,2.72856494140625,2.1732723712921143,1.5480741262435913,-0.36089760065078735
1725631014607599000,2.73859912109375,2.231344223022461,1.1318690776824951,-0.5484639406204224
1725631014617632800,2.7486328125,2.344477653503418,0.8767393231391907,-0.7912936210632324
1725631014627668000,2.75866796875,2.4174647331237793,0.6738201975822449,-1.0649254322052002
1725631014637702000,2.768701904296875,2.484726905822754,0.5525960326194763,-1.3346922397613525
1725631014647735800,2.77873583984375,2.538292646408081,0.4835416376590729,-1.5551966428756714
1725631014657770000,2.78877001953125,2.579961061477661,0.3797886073589325,-1.7109313011169434
1725631014667804000,2.798803955078125,2.502006769180298,0.2670269310474396,-1.7323640584945679
1725631014677838800,2.8088388671875,2.4710679054260254,0.018965458497405052,-1.6785551309585571
1725631014687872800,2.818872802734375,2.3229899406433105,-0.3695577383041382,-1.5390459299087524
1725631014697907000,2.828906982421875,2.177182197570801,-0.9681362509727478,-1.2781543731689453
1725631014707940900,2.83894091796875,2.134204626083374,-1.6246951818466187,-0.8952470421791077
1725631014717975800,2.848975830078125,2.2023375034332275,-2.0750272274017334,-0.5051165819168091
1725631014728010000,2.859010009765625,2.3887851238250732,-2.07081937789917,-0.18645605444908142
1725631014738044000,2.8690439453125,2.669954776763916,-1.7706379890441895,0.008708114735782146
1725631014748077800,2.879077880859375,3.0460619926452637,-1.483047366142273,0.0017839816864579916
1725631014758112000,2.889112060546875,3.3737990856170654,-1.2868874073028564,-0.18475288152694702
1725631014768147000,2.89914697265625,3.4228432178497314,-1.1559923887252808,-0.40383094549179077
1725631014778180900,2.909180908203125,3.2053394317626953,-1.192684292793274,-0.4257192015647888
1725631014788215000,2.919215087890625,2.7051923274993896,-1.3649663925170898,-0.22119882702827454
1725631014798249000,2.9292490234375,2.0676517486572266,-1.455592393875122,0.12083601951599121
1725631014808283000,2.939282958984375,1.594415545463562,-1.269024133682251,0.3335671126842499
1725631014818317800,2.94931787109375,1.2993197441101074,-1.0809674263000488,0.34951865673065186
1725631014828352000,2.95935205078125,1.1723560094833374,-0.8430311679840088,0.3129003047943115
1725631014838386000,2.969385986328125,1.0124605894088745,-0.4094294011592865,0.2389499396085739
1725631014848419800,2.979419921875,0.974850594997406,0.19090934097766876,0.02748589776456356
1725631014858454000,2.9894541015625,0.9739720225334167,0.5126956105232239,-0.10113519430160522
1725631014868489000,2.999489013671875,0.8671713471412659,0.4885704517364502,-0.03483836352825165
1725631014878523000,3.00952294921875,0.6903030872344971,0.24239929020404816,0.16792060434818268
1725631014888557000,3.01955712890625,0.40103206038475037,0.06343585252761841,0.3441443145275116
1725631014898590700,3.0295908203125,0.0012394088553264737,0.011016852222383022,0.42361676692962646
1725631014908625000,3.039625,-0.4933285713195801,0.368140310049057,0.43072304129600525
1725631014918659800,3.049659912109375,-0.9445231556892395,0.7051801085472107,0.426375150680542
1725631014928694000,3.059694091796875,-1.41153085231781,1.3172558546066284,0.48394471406936646
1725631014938728000,3.06972802734375,-1.7490336894989014,1.8339333534240723,0.5464924573898315
1725631014948761900,3.079761962890625,-1.9623829126358032,2.5054285526275635,0.5803800225257874
1725631014958797000,3.089797119140625,-1.3545243740081787,2.687445878982544,0.7230969667434692
1725631014968831000,3.0998310546875,-2.0835320949554443,2.385988712310791,1.0895501375198364
1725631014978865000,3.109864990234375,-3.652172327041626,2.1925175189971924,1.348860740661621
1725631014988899000,3.119899169921875,-5.191291809082031,2.793044328689575,1.6920567750930786
1725631014998933000,3.12993310546875,-6.064565658569336,2.396183729171753,2.1509695053100586
1725631015008968000,3.139968017578125,-6.214037895202637,2.1802000999450684,2.4972586631774902
1725631015019001900,3.150001953125,-5.152580738067627,2.1166021823883057,2.2814102172851562
1725631015029036000,3.1600361328125,-3.3135457038879395,2.1467623710632324,1.8019415140151978
1725631015039070000,3.170070068359375,-1.092307448387146,2.0047855377197266,0.9630159735679626
1725631015049104000,3.180103759765625,0.9286462664604187,1.5735719203948975,-0.08734670281410217
1725631015059139000,3.19013916015625,2.1344473361968994,0.8543487787246704,-0.7572693824768066
1725631015069173000,3.200173095703125,2.564711093902588,0.2849702537059784,-0.8507502675056458
1725631015079207000,3.21020703125,2.6074719429016113,-0.044176749885082245,-0.6987959146499634
1725631015089241000,3.220240966796875,2.443916082382202,-0.3477640151977539,-0.5379571318626404
1725631015099275000,3.23027490234375,2.195936918258667,-0.6828341484069824,-0.45000118017196655
1725631015109310000,3.24031005859375,1.9539413452148438,-1.0782959461212158,-0.4985530972480774
1725631015119343900,3.25034375,1.6702451705932617,-1.5949811935424805,-0.7178556323051453
1725631015129378000,3.2603779296875,1.3736087083816528,-2.1732802391052246,-1.0166850090026855
1725631015139412000,3.270411865234375,1.0624042749404907,-2.812589406967163,-1.2361388206481934
1725631015149446000,3.28044580078125,0.7954156398773193,-3.382490873336792,-1.2808102369308472
1725631015159481000,3.290481201171875,0.561944842338562,-3.883227825164795,-1.2810689210891724
1725631015169515000,3.300514892578125,0.29428768157958984,-4.022080421447754,-1.3054521083831787
1725631015179549000,3.310548828125,0.12673917412757874,-3.835026502609253,-1.4313056468963623
1725631015189583000,3.3205830078125,0.05178919807076454,-3.702099084854126,-1.6890246868133545
1725631015199617000,3.330616943359375,0.005922109354287386,-3.73282527923584,-1.9756358861923218
1725631015209652000,3.34065185546875,-0.10751207172870636,-3.7739081382751465,-2.081775665283203
1725631015219686100,3.35068603515625,-0.2357936054468155,-4.079550266265869,-2.0263500213623047
1725631015229719800,3.3607197265625,-0.2849753201007843,-4.437509536743164,-1.9299569129943848
1725631015239754000,3.37075390625,-0.16172447800636292,-4.665095806121826,-1.8975704908370972
1725631015249789000,3.380788818359375,0.11887426674365997,-4.945814609527588,-1.8956546783447266
1725631015259823000,3.390822998046875,0.32806238532066345,-5.0484619140625,-1.9120535850524902
1725631015269857000,3.40085693359375,0.7212099432945251,-5.016395568847656,-1.8174071311950684
1725631015279891000,3.410890869140625,1.129416823387146,-4.499610424041748,-1.615463137626648
1725631015289925000,3.420925048828125,1.237040638923645,-3.0511627197265625,-1.4285633563995361
1725631015299959800,3.430959716796875,0.9177766442298889,-0.9008471369743347,-1.2245548963546753
1725631015309994000,3.440993896484375,0.3348127007484436,1.7312102317810059,-0.8435941338539124
1725631015320028200,3.451028076171875,-0.323250412940979,4.346879005432129,-0.3869299590587616
1725631015330061800,3.461061767578125,-0.5058563351631165,4.809974193572998,-0.10142479091882706
1725631015340096000,3.471095947265625,-0.23324556648731232,4.309330463409424,-0.0038758639711886644
1725631015350131000,3.481130859375,0.08736304193735123,3.5725677013397217,0.018895728513598442
1725631015360164900,3.491164794921875,0.2773553431034088,2.7220299243927,-0.041524738073349
1725631015370199000,3.501198974609375,0.2959826588630676,1.9000952243804932,-0.057887595146894455
1725631015380233000,3.51123291015625,0.2738105058670044,1.3880655765533447,-0.005916539579629898
1725631015390267000,3.521266845703125,0.266470342874527,1.1845215559005737,0.16093319654464722
1725631015400301800,3.5313017578125,0.3363373279571533,1.3169317245483398,0.3086148202419281
1725631015410336000,3.5413359375,0.3854924142360687,1.489865779876709,0.33647170662879944
1725631015420370200,3.5513701171875,0.4159802794456482,1.6295177936553955,0.2048439234495163
1725631015430403800,3.56140380859375,0.4366019368171692,1.63960862159729,0.08046064525842667
1725631015440438000,3.57143798828125,0.3969557285308838,1.5053189992904663,-0.00813180860131979
1725631015450473000,3.581472900390625,0.2714110016822815,1.1417977809906006,0.014760125428438187
1725631015460507000,3.5915068359375,0.10857121646404266,0.749211847782135,0.08864473551511765
1725631015470541000,3.601541015625,-0.046993765980005264,0.5272667407989502,0.043663665652275085
1725631015480575000,3.611574951171875,-0.18118245899677277,0.46610966324806213,0.01776735484600067
1725631015490610000,3.62160986328125,-0.2710745334625244,0.49910223484039307,0.05484297126531601
1725631015500644000,3.63164404296875,-0.2978254556655884,0.5333499908447266,0.11706985533237457
1725631015510678000,3.641677978515625,-0.28796011209487915,0.40922582149505615,0.21192261576652527
1725631015520712000,3.6517119140625,-0.17759685218334198,0.40715521574020386,0.3900984823703766
1725631015530745900,3.661745849609375,0.11108141392469406,0.937670886516571,0.8424603343009949
1725631015540781000,3.671781005859375,0.5176047086715698,1.4894776344299316,1.240529179573059
1725631015550815200,3.681815185546875,1.046707034111023,2.099527359008789,1.5833133459091187
1725631015560849000,3.691848876953125,1.586387038230896,2.750434160232544,1.8299332857131958
1725631015570883000,3.701883056640625,2.100911855697632,3.345985174179077,1.971081018447876
1725631015580917000,3.7119169921875,2.6311371326446533,4.0298752784729,1.9751747846603394
1725631015590952000,3.721951904296875,3.196497917175293,4.68675422668457,1.8775373697280884
1725631015600986000,3.731986083984375,3.807053804397583,5.326680660247803,1.6589006185531616
1725631015611020000,3.74202001953125,4.383484363555908,6.02117395401001,1.2997925281524658
1725631015621054000,3.752053955078125,5.007544040679932,6.467166900634766,1.0522195100784302
1725631015631088000,3.762088134765625,5.232303142547607,5.875101566314697,0.8424127101898193
1725631015641123000,3.772123046875,2.086015224456787,3.05855393409729,0.2178143858909607
1725631015651157000,3.782156982421875,-1.05024254322052,2.9906840324401855,0.2547278106212616
1725631015661191000,3.79219091796875,-2.362765312194824,2.7933509349823,0.3001919686794281
1725631015671225000,3.80222509765625,-2.5679290294647217,2.07893967628479,0.5559073090553284
1725631015681259000,3.812259033203125,-2.1643331050872803,1.293540120124817,1.080825924873352
1725631015691294000,3.8222939453125,-1.6305580139160156,0.6976310610771179,1.7671821117401123
1725631015701328100,3.832328125,-1.6229912042617798,-0.06461545825004578,2.222963333129883
1725631015711361800,3.84236181640625,-1.4783087968826294,-0.6329041719436646,2.1344869136810303
1725631015721396000,3.85239599609375,0.0033416408114135265,-0.7646392583847046,1.4306626319885254
1725631015731430100,3.86243017578125,0.271484911441803,-0.7562116980552673,0.8300619721412659
1725631015741465000,3.872465087890625,0.13254860043525696,-0.37998270988464355,0.28482580184936523
1725631015751499000,3.8824990234375,0.17760571837425232,-0.08776424825191498,-0.14110629260540009
1725631015761533000,3.892532958984375,0.5340754389762878,-0.13401643931865692,-0.38183820247650146
1725631015771567000,3.902567138671875,0.836581289768219,-0.46317166090011597,-0.499671071767807
1725631015781601800,3.912601806640625,0.5448402166366577,-0.6826906800270081,-0.6605656743049622
1725631015791635000,3.922635009765625,-0.0364496149122715,-0.4157845079898834,-0.9457710385322571
1725631015801668900,3.9326689453125,-0.41653332114219666,0.06529530882835388,-1.0161818265914917
1725631015811703800,3.942703857421875,-0.30009058117866516,0.2502712905406952,-0.787804126739502
1725631015821738000,3.952738037109375,-0.09630229324102402,-0.09853704273700714,-0.38212719559669495
1725631015831772200,3.962772216796875,0.04233710467815399,-0.5933526158332825,-0.15068666636943817
1725631015841805800,3.972805908203125,0.032251980155706406,-1.038202166557312,-0.2295183688402176
1725631015851840000,3.982840087890625,-0.1320750117301941,-1.4553859233856201,-0.5721862316131592
1725631015861875000,3.992875,-0.28364989161491394,-1.958236575126648,-0.9869373440742493
1725631015871908900,4.002908935546875,-0.11382000893354416,-2.3421428203582764,-1.1626919507980347
1725631015881943000,4.012943115234375,0.14838844537734985,-2.5977604389190674,-0.9677311778068542
1725631015891977000,4.02297705078125,0.22607910633087158,-2.8823814392089844,-0.6096751689910889
1725631015902011000,4.033010986328125,0.2223285734653473,-2.9962921142578125,-0.32720622420310974
1725631015912046000,4.043046142578125,0.08952359110116959,-2.9206838607788086,-0.2307560294866562
1725631015922080000,4.053080078125,-0.18984279036521912,-2.806046724319458,-0.4192340672016144
1725631015932114000,4.063114013671875,-0.4665879011154175,-2.436882734298706,-0.685965359210968
1725631015942148000,4.073148193359375,-0.7813924551010132,-1.876718521118164,-0.8860635757446289
1725631015952182000,4.08318212890625,-1.2430256605148315,-1.3980510234832764,-1.098829746246338
1725631015962217200,4.09321728515625,-1.7669386863708496,-1.0867756605148315,-1.3124783039093018
1725631015972251600,4.103251708984375,-2.250443935394287,-1.257197618484497,-1.7134708166122437
1725631015982285800,4.113285888671875,-2.7578728199005127,-0.8779967427253723,-1.7433828115463257
1725631015992319500,4.123319580078125,-3.018482208251953,-0.17546457052230835,-1.428964614868164
1725631016002354700,4.133354736328125,-3.1578195095062256,-0.04609007015824318,-1.2441420555114746
1725631016012388600,4.143388671875,-3.1337456703186035,-0.21664178371429443,-1.1277365684509277
1725631016022422500,4.153422607421875,-2.9231624603271484,-0.23093123733997345,-0.7218278646469116
1725631016032456700,4.163456787109375,-2.3930935859680176,-0.05924052372574806,-0.24090728163719177
1725631016042490600,4.17349072265625,-1.779979944229126,0.41344153881073,0.09081312268972397
1725631016052525800,4.18352587890625,-1.2102179527282715,1.0518991947174072,0.11469955742359161
1725631016062559500,4.1935595703125,-0.7186266779899597,1.7107031345367432,-0.060998231172561646
1725631016072593700,4.20359375,-0.2984157204627991,2.3895676136016846,-0.20192158222198486
1725631016082627800,4.2136279296875,0.06170011684298515,2.941101551055908,-0.3317296504974365
1725631016092661500,4.22366162109375,0.39129582047462463,3.343381404876709,-0.5195245742797852
1725631016102696700,4.23369677734375,0.6733517646789551,3.484926462173462,-0.7635202407836914
1725631016112730600,4.243730712890625,0.8319364786148071,3.3169305324554443,-1.0260486602783203
1725631016122764500,4.2537646484375,0.697910487651825,3.2028937339782715,-1.17146897315979
1725631016132798700,4.263798828125,0.5631128549575806,2.95851993560791,-1.1757934093475342
1725631016142832600,4.27383251953125,0.5521534085273743,2.478437900543213,-1.0499539375305176
1725631016152867600,4.28386767578125,0.7547670006752014,1.7738574743270874,-0.8193092346191406
1725631016162901800,4.29390185546875,1.112217903137207,0.7459644079208374,-0.4915201663970947
1725631016172936700,4.303936767578125,1.5092122554779053,-0.28223392367362976,-0.13560357689857483
1725631016182971000,4.313970947265625,1.7971079349517822,-1.0038267374038696,0.2089061439037323
1725631016193004500,4.324004638671875,2.0639140605926514,-1.1812747716903687,0.44557201862335205
1725631016203038700,4.334038818359375,2.4168715476989746,-0.8671533465385437,0.5404649972915649
1725631016213073000,4.344072998046875,2.9557511806488037,-0.2321597933769226,0.4197869598865509
1725631016223107600,4.354107666015625,3.7489230632781982,0.49702808260917664,0.09164824336767197
1725631016233141800,4.364141845703125,4.488363742828369,0.9468579292297363,-0.3052821159362793
1725631016243175700,4.37417578125,4.933264255523682,1.049643635749817,-0.7268959879875183
1725631016253209600,4.384209716796875,5.349753379821777,0.8685428500175476,-1.0526012182235718
1725631016263243800,4.394243896484375,4.794004917144775,1.7203439474105835,-0.6997358202934265
1725631016273278700,4.40427880859375,1.3429827690124512,4.810780048370361,0.4180396497249603
1725631016283312600,4.414312744140625,-0.6430677175521851,6.050814628601074,0.8752812147140503
1725631016293346600,4.4243466796875,-0.6611270904541016,2.2175915241241455,0.6049959659576416
1725631016303380700,4.434380615234375,-0.8998594880104065,1.374394416809082,0.880521833896637
1725631016313414700,4.44441455078125,-1.076628565788269,1.411329984664917,0.8649890422821045
1725631016323449600,4.45444970703125,-1.0981107950210571,0.9512654542922974,0.7401949167251587
1725631016333483800,4.46448388671875,-1.07854425907135,0.29030928015708923,0.6597524285316467
1725631016343517400,4.474517333984375,-1.0002508163452148,-0.15585117042064667,0.6573249697685242
1725631016353551600,4.484551513671875,-0.853638231754303,-0.493883341550827,0.6794625520706177
1725631016363585800,4.494585693359375,-0.535554826259613,-0.8841856122016907,0.6259934902191162
1725631016373620700,4.504620849609375,-0.029435450211167336,-1.3354356288909912,0.4760904908180237
1725631016383654700,4.514654541015625,0.5630715489387512,-1.8456364870071411,0.37147006392478943
1725631016393688600,4.5246884765625,1.1433504819869995,-2.043337821960449,0.3365814983844757
1725631016403722800,4.53472265625,1.5041784048080444,-1.9224801063537598,0.43220362067222595
1725631016413757400,4.54475732421875,1.511656403541565,-1.432321310043335,0.5854038596153259
1725631016423791600,4.55479150390625,1.3069484233856201,-0.7028782963752747,0.6351636648178101
1725631016433825800,4.56482568359375,1.0869783163070679,0.018238849937915802,0.6890018582344055
1725631016443859500,4.574859375,0.8098326325416565,0.5715747475624084,0.8195803761482239
1725631016453893600,4.5848935546875,0.5807539820671082,0.8624452352523804,1.026613473892212
1725631016463928600,4.594928466796875,0.5733000636100769,0.9189186096191406,1.128386378288269
1725631016473962500,4.60496240234375,0.6558783054351807,0.7605891823768616,1.059131145477295
1725631016483996700,4.61499658203125,0.6901164054870605,0.6376206278800964,0.8597551584243774
1725631016494030600,4.625030517578125,0.6129303574562073,0.6751494407653809,0.6778373718261719
1725631016504064500,4.635064453125,0.4609434902667999,0.6568689942359924,0.6408063769340515
1725631016514099700,4.645099609375,0.3571498394012451,0.4270244836807251,0.6486148238182068
1725631016524133600,4.655133544921875,0.2725997865200043,0.3799320459365845,0.6371768116950989
1725631016534167800,4.665167724609375,0.2602168917655945,0.3641514778137207,0.6042249798774719
1725631016544201700,4.67520166015625,0.24863561987876892,0.24854207038879395,0.5200046300888062
1725631016554235600,4.685235595703125,0.2182106077671051,0.18710772693157196,0.3868049681186676
1725631016564270800,4.695270751953125,0.2593761384487152,0.1929246038198471,0.2655144929885864
1725631016574304500,4.705304443359375,0.32903340458869934,0.27217933535575867,0.1244305670261383
1725631016584338700,4.715338623046875,0.37867817282676697,0.29526227712631226,0.046813808381557465
1725631016594372900,4.725372802734375,0.4256252348423004,0.3600560128688812,0.04139738529920578
1725631016604407600,4.735407470703125,0.47107449173927307,0.5273832082748413,0.08059006184339523
1725631016614441700,4.745441650390625,0.5105738043785095,0.6627989411354065,0.16814500093460083
1725631016624475600,4.7554755859375,0.5825681090354919,0.7514268159866333,0.2654417157173157
1725631016634509600,4.765509521484375,0.6749312281608582,1.0215213298797607,0.3242114782333374
1725631016644543700,4.775543701171875,0.663127064704895,1.4846442937850952,0.33408379554748535
1725631016654578700,4.78557861328125,0.6483606100082397,1.7151395082473755,0.32220983505249023
1725631016664612900,4.79561279296875,0.7014952301979065,1.7353177070617676,0.32537394762039185
1725631016674646500,4.805646484375,0.7240484952926636,2.0481245517730713,0.30004265904426575
1725631016684680700,4.8156806640625,0.6277323365211487,2.5609402656555176,0.2032194435596466
1725631016694714600,4.825714599609375,0.5242828726768494,2.8632853031158447,0.049743834882974625
1725631016704749600,4.83574951171875,0.4783031642436981,2.8155603408813477,-0.1314544379711151
1725631016714783700,4.84578369140625,0.43137800693511963,2.840998649597168,-0.2786736488342285
1725631016724817700,4.855817626953125,0.27585551142692566,2.916085720062256,-0.4233812987804413
1725631016734851600,4.8658515625,0.08328310400247574,2.7777013778686523,-0.5806533694267273
1725631016744885800,4.8758857421875,-0.0373397134244442,2.503162145614624,-0.7020647525787354
1725631016754920700,4.885920654296875,-0.0765705406665802,2.1092653274536133,-0.7779642343521118
1725631016764954600,4.89595458984375,-0.14798559248447418,1.4850269556045532,-0.7351850867271423
1725631016774988500,4.905988525390625,-0.13605237007141113,0.9762913584709167,-0.7920302152633667
1725631016785022700,4.916022705078125,-0.09088675677776337,0.5652731657028198,-0.9074116349220276
1725631016795057700,4.9260576171875,-0.10805046558380127,0.024473940953612328,-0.9426224827766418
1725631016805091600,4.936091552734375,-0.09872540831565857,-0.6337904930114746,-0.8121273517608643
1725631016815125800,4.946125732421875,-0.15605047345161438,-1.2130216360092163,-0.5524027347564697
1725631016825159400,4.956159423828125,-0.2945806682109833,-1.320630669593811,-0.55731201171875
1725631016835193600,4.966193603515625,-0.41347023844718933,-1.4349050521850586,-0.6244617104530334
1725631016845228800,4.976228759765625,-0.48789599537849426,-1.5548793077468872,-0.5782926082611084
1725631016855262700,4.9862626953125,-0.588103711605072,-1.4959115982055664,-0.4257553815841675
1725631016865296600,4.996296630859375,-0.6435789465904236,-1.2653124332427979,-0.22968252003192902
1725631016875330600,5.00633056640625,-0.6368110775947571,-0.9793229699134827,-0.018246976658701897
1725631016885364700,5.01636474609375,-0.5523377060890198,-0.7190482020378113,0.2143242210149765
1725631016895399700,5.026399658203125,-0.4490295648574829,-0.47840455174446106,0.4360261857509613
1725631016905433600,5.03643359375,-0.32700031995773315,-0.3187943994998932,0.6477911472320557
1725631016915467800,5.0464677734375,-0.22296340763568878,-0.1778082549571991,0.8308848142623901
1725631016925501700,5.056501708984375,-0.16768576204776764,-0.03773823007941246,0.9795869588851929
1725631016935535600,5.06653564453125,-0.12084969133138657,0.06136425957083702,1.0978461503982544
1725631016945570800,5.07657080078125,-0.07199719548225403,0.12580129504203796,1.1753917932510376
1725631016955604500,5.0866044921875,-0.013429784215986729,0.13684672117233276,1.2074590921401978
1725631016965638700,5.096638671875,-0.00916632916778326,-0.04784030094742775,1.2093265056610107
1725631016975672600,5.106672607421875,-0.0443311408162117,-0.29736027121543884,1.1754357814788818
1725631016985707300,5.116707275390625,-0.12508989870548248,-0.5543859601020813,1.0773228406906128
1725631016995741400,5.126741455078125,-0.29778915643692017,-0.7808922529220581,0.8651798367500305
1725631017005775400,5.136775390625,-0.4934212267398834,-0.9463331699371338,0.5226022601127625
1725631017015809300,5.146809326171875,-0.7021917104721069,-1.1214187145233154,0.0833880826830864
1725631017025843500,5.156843505859375,-0.8657199144363403,-1.0861144065856934,-0.35472187399864197
1725631017035878400,5.16687841796875,-0.8981370329856873,-0.9306942820549011,-0.639350950717926
1725631017045912300,5.176912353515625,-0.7863289713859558,-0.8562911748886108,-0.717138946056366
1725631017055946200,5.1869462890625,-0.6128199696540833,-0.7122969031333923,-0.6417686939239502
1725631017065980400,5.19698046875,-0.4412599802017212,-0.5277334451675415,-0.5054484009742737
1725631017076014300,5.207014404296875,-0.27684059739112854,-0.38735443353652954,-0.36173930764198303
1725631017086049300,5.21704931640625,-0.1418393850326538,-0.40958648920059204,-0.26181191205978394
1725631017096083500,5.22708349609375,-0.1328677088022232,-0.8227002620697021,-0.24601057171821594
1725631017106117400,5.237117431640625,-0.17709162831306458,-1.1545345783233643,-0.2676604390144348
1725631017116151300,5.2471513671875,-0.24281378090381622,-1.040261149406433,-0.3491482436656952
1725631017126185500,5.257185546875,-0.25026875734329224,-0.7357801795005798,-0.44141772389411926
1725631017136220400,5.267220458984375,-0.28037160634994507,-0.539545476436615,-0.5154871940612793
1725631017146254300,5.27725439453125,-0.3343735933303833,-0.2201024889945984,-0.5679152607917786
1725631017156288500,5.28728857421875,-0.3346695005893707,0.28957992792129517,-0.589350700378418
1725631017166322400,5.297322509765625,-0.2544390857219696,0.7689230442047119,-0.5849008560180664
1725631017176356400,5.3073564453125,-0.17091317474842072,1.1036237478256226,-0.529472827911377
1725631017186391300,5.317391357421875,-0.1849602907896042,1.1289098262786865,-0.37825271487236023
1725631017196425500,5.327425537109375,-0.2424267828464508,0.9623110294342041,-0.18797942996025085
1725631017206459400,5.33745947265625,-0.2109237164258957,0.8279697299003601,-0.023536693304777145
1725631017216493300,5.347493408203125,-0.14357027411460876,0.5580173134803772,0.12164637446403503
1725631017226528500,5.357528564453125,-0.10061002522706985,0.1674165576696396,0.22814032435417175
1725631017236562200,5.367562255859375,-0.15508902072906494,0.04707200080156326,0.3552490472793579
1725631017246596400,5.377596435546875,-0.3709523379802704,-0.05335953086614609,0.5661290287971497
1725631017256630500,5.387630615234375,-0.6406084299087524,-0.21097108721733093,0.799900472164154
1725631017266664200,5.397664306640625,-0.8575060963630676,-0.33777669072151184,0.9354345798492432
1725631017276699400,5.407699462890625,-0.9280131459236145,-0.36663195490837097,0.8934102654457092
1725631017286733300,5.4177333984375,-0.8956400156021118,-0.15883588790893555,0.7226094603538513
1725631017296767500,5.427767578125,-0.8117788434028625,0.08996426314115524,0.5284841656684875
1725631017306801400,5.437801513671875,-0.7804717421531677,0.18154290318489075,0.3973194658756256
1725631017316835300,5.44783544921875,-0.7562405467033386,0.06680235266685486,0.27660974860191345
1725631017326870500,5.45787060546875,-0.68865966796875,-0.08061079680919647,0.15071173012256622
1725631017336904200,5.467904296875,-0.5883519649505615,-0.22533199191093445,0.07627028971910477
1725631017346938400,5.4779384765625,-0.4452730715274811,-0.4810875952243805,-0.004398727789521217
1725631017356972500,5.48797265625,-0.24385236203670502,-0.65458083152771,-0.11079337447881699
1725631017367006200,5.498006103515625,-0.032833077013492584,-0.7820948362350464,-0.3088065981864929
1725631017377041400,5.50804150390625,0.16792528331279755,-0.7754442095756531,-0.5694622993469238
1725631017387075300,5.518075439453125,0.32680147886276245,-0.7541852593421936,-0.8464998006820679
1725631017397109200,5.528109130859375,0.3644721508026123,-0.8658566474914551,-1.1456142663955688
1725631017407143400,5.538143310546875,0.4398531913757324,-1.0387238264083862,-1.369817852973938
1725631017417177300,5.54817724609375,0.4218563139438629,-0.9132676720619202,-1.4874567985534668
1725631017427212500,5.558212646484375,0.3256336450576782,-0.7827216386795044,-1.5869159698486328
1725631017437246200,5.56824609375,0.25664573907852173,-0.7444800138473511,-1.6466118097305298
1725631017447280400,5.5782802734375,0.237624391913414,-0.6779459714889526,-1.6703579425811768
1725631017457314300,5.588314208984375,0.29185232520103455,-0.35085347294807434,-1.6425416469573975
1725631017467349200,5.598349365234375,0.34742024540901184,-0.07662510871887207,-1.556816816329956
1725631017477383400,5.608383544921875,0.3841453790664673,0.006788698490709066,-1.387141466140747
1725631017487417300,5.618417236328125,0.4089375436306,-0.008432332426309586,-1.1384541988372803
1725631017497451300,5.628451171875,0.4243396520614624,-0.0035518603399395943,-0.8333132266998291
1725631017507485400,5.6384853515625,0.4501834809780121,0.10467474907636642,-0.5001006722450256
1725631017517520400,5.648520263671875,0.4794275760650635,0.11394033581018448,-0.2417578250169754
1725631017527554300,5.65855419921875,0.5231423377990723,0.00568283861503005,-0.1094282865524292
1725631017537588500,5.66858837890625,0.5790219306945801,-0.09189391136169434,-0.1096840426325798
1725631017547622400,5.678622314453125,0.6282464861869812,-0.1755531281232834,-0.2115965634584427
1725631017557656300,5.68865625,0.6314728856086731,-0.22517186403274536,-0.31882211565971375
1725631017567691300,5.698691162109375,0.6168001890182495,-0.1802496612071991,-0.41576677560806274
1725631017577725400,5.708725341796875,0.5968911647796631,-0.022617436945438385,-0.4786364436149597
1725631017587759400,5.71875927734375,0.5576571822166443,0.234335258603096,-0.5044980645179749
1725631017597793300,5.728793212890625,0.46341779828071594,0.3738766610622406,-0.5382125973701477
1725631017607827500,5.738827392578125,0.3322685658931732,0.504112958908081,-0.550655722618103
1725631017617862400,5.7488623046875,0.3027536869049072,1.054301381111145,-0.5233731865882874
1725631017627896300,5.758896240234375,0.4376595616340637,1.691348910331726,-0.47282159328460693
1725631017637930500,5.768930419921875,0.6016756296157837,1.8271446228027344,-0.43197888135910034
1725631017647964400,5.77896435546875,0.7564590573310852,1.9792201519012451,-0.4123689532279968
1725631017657998300,5.788998291015625,0.9062813520431519,2.3381760120391846,-0.4223167598247528
1725631017668033300,5.799033203125,1.0343793630599976,2.5224859714508057,-0.462160587310791
1725631017678067500,5.8090673828125,1.1143560409545898,2.452582597732544,-0.5282005667686462
1725631017688101400,5.819101318359375,1.2387645244598389,2.385599374771118,-0.7318460941314697
1725631017698135300,5.82913525390625,1.333033800125122,2.507995367050171,-1.2757022380828857
1725631017708170500,5.83917041015625,1.2686188220977783,2.4785592555999756,-1.7316186428070068
1725631017718204200,5.8492041015625,1.1931737661361694,2.2809321880340576,-1.9963737726211548
1725631017728238300,5.85923828125,1.177666425704956,1.9752012491226196,-2.1719467639923096
1725631017738272500,5.8692724609375,1.20946204662323,1.579394817352295,-2.2934112548828125
1725631017748306200,5.87930615234375,1.2715635299682617,1.162462830543518,-2.2998056411743164
1725631017758341400,5.88934130859375,1.3123799562454224,0.8388437628746033,-2.2153706550598145
1725631017768375300,5.899375244140625,1.3143166303634644,0.6377090215682983,-2.1215035915374756
1725631017778409500,5.909409423828125,1.3315284252166748,0.48288941383361816,-2.004366636276245
1725631017788443400,5.919443359375,1.312146782875061,0.2720125913619995,-1.8911844491958618
1725631017798477300,5.929477294921875,1.1681872606277466,0.11639092117547989,-1.8541229963302612
1725631017808512500,5.939512451171875,0.9561666250228882,0.11904555559158325,-1.8593473434448242
1725631017818546200,5.949546142578125,0.6615772247314453,0.24827082455158234,-1.9142497777938843
1725631017828580400,5.959580322265625,0.3589998185634613,0.2692887485027313,-1.801888346672058
1725631017838614500,5.969614501953125,0.05818817764520645,0.23425285518169403,-1.5095343589782715
1725631017848648200,5.979648193359375,-0.20886987447738647,0.1614558845758438,-1.1096055507659912
1725631017858683400,5.989683349609375,-0.38735419511795044,0.21255581080913544,-0.6981386542320251
1725631017868717300,5.99971728515625,-0.44730913639068604,0.3763316869735718,-0.40955880284309387
1725631017878751200,6.009751220703125,-0.42029696702957153,0.4354575574398041,-0.27166977524757385
1725631017888785400,6.019785400390625,-0.39571547508239746,0.41771984100341797,-0.17406892776489258
1725631017898819300,6.0298193359375,-0.4431335926055908,0.38184118270874023,-0.027060432359576225
1725631017908854500,6.0398544921875,-0.5497918725013733,0.3673304319381714,0.1288527399301529
1725631017918888400,6.049888427734375,-0.6655546426773071,0.3745065927505493,0.2615748345851898
1725631017928922400,6.05992236328125,-0.732215940952301,0.3376210331916809,0.42540425062179565
1725631017938956300,6.069956298828125,-0.7677333354949951,0.24508512020111084,0.6158587336540222
1725631017948991200,6.0799912109375,-0.7825964689254761,0.11955942213535309,0.7867191433906555
1725631017959025400,6.090025390625,-0.77837735414505,-0.030481114983558655,0.9080243706703186
1725631017969059600,6.1000595703125,-0.7761080265045166,-0.1422707736492157,1.006938099861145
1725631017979092700,6.1100927734375,-0.7694728374481201,-0.1740875542163849,1.1141600608825684
1725631017989126700,6.120126708984375,-0.6980034112930298,-0.1493545025587082,1.2608520984649658
1725631017999161600,6.13016162109375,-0.5189015865325928,-0.18414844572544098,1.5070165395736694
1725631018009195800,6.14019580078125,-0.28962472081184387,-0.3234698474407196,1.8696690797805786
1725631018019230000,6.15022998046875,-0.18855755031108856,-0.5415764451026917,2.2262933254241943
1725631018029263600,6.160263671875,-0.34424087405204773,-0.8276231288909912,2.257652521133423
1725631018039297800,6.1702978515625,-0.6197782158851624,-1.0712780952453613,1.8449565172195435
1725631018049332700,6.180332763671875,-0.9106186032295227,-1.1195486783981323,0.9829279780387878
1725631018059366700,6.19036669921875,-1.0197759866714478,-0.8400619029998779,-0.05647046118974686
1725631018069400800,6.20040087890625,-0.8759335875511169,-0.5749058723449707,-0.7798276543617249
1725631018079434800,6.210434814453125,-0.7943944334983826,-0.570852518081665,-1.0020374059677124
1725631018089468700,6.22046875,-0.827385663986206,-0.7127417325973511,-0.7999561429023743
1725631018099503900,6.23050390625,-0.8279948234558105,-0.9869424104690552,-0.4586445093154907
1725631018109537800,6.240537841796875,-0.73777836561203,-1.036861777305603,-0.12093227356672287
1725631018119571700,6.25057177734375,-0.6045724153518677,-0.9067107439041138,0.1674339324235916
1725631018129606000,6.26060595703125,-0.4546198844909668,-0.6150490641593933,0.36329397559165955
1725631018139639800,6.270639892578125,-0.2457204908132553,-0.20828184485435486,0.5109636783599854
1725631018149675000,6.280675048828125,0.006461163982748985,0.11777190864086151,0.63511061668396
1725631018159708700,6.290708740234375,0.23173657059669495,0.3754497170448303,0.7377631068229675
1725631018169742800,6.300742919921875,0.37820854783058167,0.6026051044464111,0.8058825135231018
1725631018179776800,6.31077685546875,0.4217039942741394,0.7538142204284668,0.8590975403785706
1725631018189811700,6.320811767578125,0.3970652222633362,0.7306311726570129,0.8768770694732666
1725631018199846000,6.330845947265625,0.2990219295024872,0.5920659899711609,0.8532429933547974
1725631018209879800,6.3408798828125,0.025828203186392784,0.4687456488609314,0.8575583696365356
1725631018219913700,6.350913818359375,-0.3652978241443634,0.40986335277557373,0.9882082939147949
1725631018229948000,6.360947998046875,-0.5904507637023926,0.19156163930892944,1.0078424215316772
1725631018239982800,6.37098291015625,-0.7103137373924255,-0.0013448663521558046,0.8977710008621216
1725631018250016800,6.381016845703125,-0.7779742479324341,-0.1327444314956665,0.7282800078392029
1725631018260050700,6.39105078125,-0.7837181091308594,-0.231733039021492,0.6030876040458679
1725631018270084900,6.4010849609375,-0.6967496871948242,-0.07952433079481125,0.8034883141517639
1725631018280118800,6.411118896484375,-0.5106863379478455,-0.122413769364357,1.1518304347991943
1725631018290153700,6.42115380859375,-0.3084495961666107,-0.264953076839447,1.5141940116882324
1725631018300188000,6.43118798828125,-0.16192445158958435,-0.3672585189342499,1.7370930910110474
1725631018310221600,6.4412216796875,-0.08428477495908737,-0.38280338048934937,1.7534725666046143
1725631018320255700,6.451255859375,-0.07212615758180618,-0.3356287181377411,1.608441710472107
1725631018330290000,6.4612900390625,0.04583457112312317,-0.20157289505004883,1.4639886617660522
1725631018340324900,6.471324951171875,0.19691896438598633,-0.007562081795185804,1.4859977960586548
1725631018350358800,6.48135888671875,0.2516346573829651,0.0843617171049118,1.528630256652832
1725631018360392700,6.491392822265625,0.27122873067855835,0.2268313765525818,1.4467512369155884
1725631018370427000,6.501427001953125,0.3551151156425476,0.43529537320137024,1.2890465259552002
1725631018380460800,6.511460693359375,0.38225141167640686,0.6470770835876465,1.1462221145629883
1725631018390495700,6.521495849609375,0.32885050773620605,0.8272135853767395,0.9573355913162231
1725631018400530000,6.531530029296875,0.3580890893936157,1.0175979137420654,0.7298800945281982
1725631018410563600,6.5415634765625,0.37595781683921814,1.029961109161377,0.48919185996055603
1725631018420597800,6.55159765625,0.4008197784423828,1.0049666166305542,0.19508330523967743
1725631018430632000,6.5616318359375,0.4210401177406311,0.9003086090087891,-0.11378692090511322
1725631018440666600,6.57166650390625,0.45883798599243164,0.7204148769378662,-0.3451004922389984
1725631018450700800,6.58170068359375,0.40596306324005127,0.5434409379959106,-0.5931971073150635
1725631018460734700,6.591734619140625,0.37034329771995544,0.4379645884037018,-0.8444280028343201
1725631018470768600,6.6017685546875,0.35685303807258606,0.39561793208122253,-1.0657854080200195
1725631018480803800,6.611803955078125,0.3185693621635437,0.3115774393081665,-1.2325433492660522
1725631018490837800,6.621837646484375,0.2451702505350113,0.10756836831569672,-1.355491280555725
1725631018500872000,6.631871826171875,0.08082438260316849,-0.16291619837284088,-1.4494165182113647
1725631018510905900,6.64190576171875,-0.04437348619103432,-0.44322240352630615,-1.4954779148101807
1725631018520939800,6.651939697265625,-0.16151058673858643,-0.7225148677825928,-1.4248931407928467
1725631018530975000,6.66197509765625,-0.22550421953201294,-1.0640183687210083,-1.2007583379745483
1725631018541008600,6.672008544921875,-0.14060498774051666,-1.5209450721740723,-0.8961552977561951
1725631018551042800,6.682042724609375,0.0675378292798996,-1.8644028902053833,-0.505079984664917
1725631018561077000,6.692076904296875,0.2754431962966919,-1.9241353273391724,-0.11323294043540955
1725631018571110700,6.702110595703125,0.32899564504623413,-1.7288457155227661,0.2055642306804657
1725631018581145900,6.712145751953125,0.27801263332366943,-1.3992202281951904,0.3436007797718048
1725631018591179800,6.7221796875,0.22884084284305573,-0.9923807978630066,0.2914840579032898
1725631018601213700,6.732213623046875,0.24137668311595917,-0.5333819389343262,0.15867799520492554
1725631018611247900,6.742247802734375,0.29197806119918823,-0.11830568313598633,0.03337813541293144
1725631018621281800,6.75228173828125,0.3790251314640045,0.1711040586233139,-0.03664592280983925
1725631018631317000,6.76231689453125,0.4720999598503113,0.31995612382888794,-0.06755989789962769
1725631018641350700,6.7723505859375,0.5114656090736389,0.4271109998226166,-0.02591957524418831
1725631018651384800,6.782384765625,0.5541694164276123,0.624387264251709,0.011213146150112152
1725631018661418800,6.792418701171875,0.6018199324607849,0.839737594127655,0.0039823781698942184
1725631018671452700,6.80245263671875,0.6633421182632446,1.0671073198318481,-0.011906307190656662
1725631018681488000,6.81248779296875,0.7382225394248962,1.3100577592849731,-0.0008295068982988596
1725631018691521800,6.822521728515625,0.8701912760734558,1.5290720462799072,0.017458686605095863
1725631018701555700,6.8325556640625,1.0882601737976074,1.8478660583496094,-0.07967691868543625
1725631018711590000,6.84258984375,1.2933992147445679,2.2449705600738525,-0.4987759292125702
1725631018721623800,6.852623779296875,1.3635547161102295,2.240859031677246,-0.7823814153671265
1725631018731658800,6.86265869140625,1.3422633409500122,2.2080371379852295,-0.8854699730873108
1725631018741692700,6.872692626953125,1.2708786725997925,2.1283743381500244,-0.9573420882225037
1725631018751726800,6.882726806640625,1.2037568092346191,1.6883200407028198,-1.0375665426254272
1725631018761760800,6.8927607421875,1.081061601638794,1.0713872909545898,-1.1104108095169067
1725631018771795700,6.902795654296875,0.8414913415908813,0.5029704570770264,-1.2506070137023926
1725631018781830000,6.912829833984375,0.49342256784439087,-0.102631576359272,-1.423554539680481
1725631018791863600,6.922863525390625,0.16112983226776123,-0.5622372627258301,-1.5547324419021606
1725631018801897700,6.932897705078125,-0.017337704077363014,-0.6726871132850647,-1.6307393312454224
1725631018811932000,6.942931884765625,-0.10170131921768188,-0.6361954212188721,-1.760007619857788
1725631018821966800,6.952966796875,-0.15251164138317108,-0.8124385476112366,-1.7354668378829956
1725631018832000800,6.963000732421875,-0.07639077305793762,-0.974323034286499,-1.5197196006774902
1725631018842035000,6.973034912109375,-0.07869496941566467,-1.127403974533081,-1.1866339445114136
1725631018852068900,6.98306884765625,-0.06879626959562302,-1.1133617162704468,-0.836103618144989
1725631018862102800,6.993102783203125,-0.1267847716808319,-1.0792465209960938,-0.49112504720687866
1725631018872137700,7.0031376953125,-0.22003455460071564,-0.8711394667625427,-0.22449523210525513
1725631018882172000,7.013171875,-0.2569916248321533,-0.49080339074134827,0.017850618809461594
1725631018892205800,7.023205810546875,-0.2490050494670868,-0.028671972453594208,0.275560200214386
1725631018902239700,7.03323974609375,-0.24786585569381714,0.33454421162605286,0.5637801885604858
1725631018912274000,7.04327392578125,-0.2229786068201065,0.48327136039733887,0.8341437578201294
1725631018922308600,7.05330859375,-0.2623481750488281,0.5481504201889038,1.0697479248046875
1725631018932342800,7.0633427734375,-0.34758904576301575,0.5778553485870361,1.3447672128677368
1725631018942377000,7.073376953125,-0.4060332477092743,0.6149387359619141,1.6149733066558838
1725631018952410600,7.08341064453125,-0.4467273950576782,0.7317468523979187,1.8395859003067017
1725631018962444800,7.09344482421875,-0.47914227843284607,0.8613637685775757,2.0383541584014893
1725631018972480500,7.10348046875,-0.4787262976169586,0.8554518222808838,2.237653970718384
1725631018982514400,7.113514404296875,-0.4776095151901245,0.696120023727417,2.416956663131714
1725631018992548400,7.12354833984375,-0.4063475728034973,0.3744317591190338,2.6108150482177734
1725631019002582500,7.13358251953125,-0.33225247263908386,-0.2180924266576767,2.721703052520752
1725631019012617500,7.143617431640625,-0.26785269379615784,-0.9474267959594727,2.610750436782837
1725631019022651400,7.1536513671875,-0.1805763691663742,-1.6426117420196533,2.321000099182129
1725631019032685600,7.163685546875,-0.18596979975700378,-2.0558507442474365,1.9167194366455078
1725631019042719500,7.173719482421875,-0.34472179412841797,-2.1617932319641113,1.4019275903701782
1725631019052753400,7.18375341796875,-0.47749048471450806,-1.8667991161346436,0.8127273917198181
1725631019062788600,7.19378857421875,-0.46642646193504333,-1.2869038581848145,0.3390413522720337
1725631019072822500,7.203822509765625,-0.38401520252227783,-0.6672749519348145,0.08218690752983093
1725631019082856400,7.2138564453125,-0.365288108587265,-0.16216090321540833,0.010823650285601616
1725631019092890600,7.223890625,-0.3826817572116852,0.22395910322666168,0.04272139444947243
1725631019102924500,7.233924560546875,-0.38702768087387085,0.44050079584121704,0.09485676139593124
1725631019112959500,7.24395947265625,-0.4036351442337036,0.4062837064266205,0.10628917813301086
1725631019122993400,7.253993408203125,-0.41830283403396606,0.18778645992279053,0.08166293799877167
1725631019133027600,7.264027587890625,-0.3898078203201294,-0.016415676102042198,0.08165574818849564
1725631019143061500,7.2740615234375,-0.3453221917152405,-0.13545534014701843,0.09646491706371307
1725631019153095400,7.284095458984375,-0.3099908232688904,-0.2486191838979721,0.1034567803144455
1725631019163130600,7.294130615234375,-0.289823979139328,-0.325591117143631,0.11742345243692398
1725631019173164500,7.30416455078125,-0.26315322518348694,-0.36245858669281006,0.14699305593967438
1725631019183198500,7.314198486328125,-0.1967741698026657,-0.353130578994751,0.1767655611038208
1725631019193232600,7.324232666015625,-0.08638987690210342,-0.29339638352394104,0.1979033350944519
1725631019203266300,7.334266357421875,0.011123761534690857,-0.17878900468349457,0.2228807657957077
1725631019213301500,7.344301513671875,0.03660595044493675,-0.10633530467748642,0.28795403242111206
1725631019223335400,7.35433544921875,0.047932181507349014,-0.09531775116920471,0.34877756237983704
1725631019233369600,7.36436962890625,0.0452522411942482,0.0015781726688146591,0.4252680838108063
1725631019243403500,7.374403564453125,0.0035255304537713528,0.15058599412441254,0.5225739479064941
1725631019253437400,7.3844375,-0.2025352269411087,0.4202486276626587,0.7647647261619568
1725631019263472600,7.39447265625,-0.4050292670726776,0.4435507357120514,0.9667717218399048
1725631019273506300,7.40450634765625,-0.4907790422439575,0.22387216985225677,0.9692037105560303
1725631019283540500,7.41454052734375,-0.5050042867660522,0.03968904912471771,0.8238642811775208
1725631019293574700,7.42457470703125,-0.5026548504829407,-0.0002104307641275227,0.6497324109077454
1725631019303608300,7.4346083984375,-0.4703265428543091,0.07737164199352264,0.6972829103469849
1725631019313643500,7.4446435546875,-0.43024489283561707,-0.17431838810443878,0.8321613669395447
1725631019323677400,7.454677490234375,-0.42376434803009033,-0.5389647483825684,0.9172856211662292
1725631019333711400,7.46471142578125,-0.3736433982849121,-0.7354096174240112,0.9588863253593445
1725631019343745500,7.47474560546875,-0.37729519605636597,-0.8132387399673462,0.9736347794532776
1725631019353780500,7.484780517578125,-0.4372083246707916,-0.867432177066803,0.9580853581428528
1725631019363814700,7.494814697265625,-0.4549974799156189,-0.8474305868148804,0.8920133709907532
1725631019373848300,7.504848388671875,-0.40459930896759033,-0.6865370869636536,0.814481794834137
1725631019383882500,7.514882568359375,-0.3421328663825989,-0.4881439507007599,0.7484775185585022
1725631019393916700,7.524916748046875,-0.2936961054801941,-0.35861125588417053,0.5908167958259583
1725631019403951400,7.534951416015625,-0.28269079327583313,-0.2934532165527344,0.34825417399406433
1725631019413985500,7.544985595703125,-0.23641729354858398,-0.1498609036207199,0.14929312467575073
1725631019424019500,7.55501953125,-0.20232899487018585,0.13532991707324982,0.07644348591566086
1725631019434053400,7.565053466796875,-0.1448555737733841,0.3873957395553589,0.08231895416975021
1725631019444087600,7.575087646484375,-0.08633418381214142,0.5547341108322144,0.04690597951412201
1725631019454122500,7.58512255859375,0.0046300808899104595,0.6964161396026611,-0.05876052752137184
1725631019464156400,7.595156494140625,0.098746158182621,0.7424246072769165,-0.21431964635849
1725631019474190600,7.605190673828125,0.16578564047813416,0.6923473477363586,-0.3836572766304016
1725631019484224500,7.615224609375,0.19278909265995026,0.6136307716369629,-0.5569321513175964
1725631019494258400,7.625258544921875,0.23428460955619812,0.547275185585022,-0.7080332636833191
1725631019504293400,7.63529345703125,0.29859277606010437,0.46730607748031616,-0.8055149912834167
1725631019514327600,7.64532763671875,0.32932326197624207,0.29064980149269104,-0.8815855383872986
1725631019524361700,7.65536181640625,0.2765914797782898,0.14561502635478973,-0.9834933876991272
1725631019534395400,7.6653955078125,0.1910150647163391,0.04429106414318085,-1.1264973878860474
1725631019544429600,7.6754296875,0.08605942130088806,-0.048893943428993225,-1.2936010360717773
1725631019554464500,7.685464599609375,-0.013556119054555893,-0.14456720650196075,-1.4696274995803833
1725631019564498400,7.69549853515625,-0.02371930330991745,-0.19894659519195557,-1.6222267150878906
1725631019574532600,7.70553271484375,0.04784782603383064,-0.1833796203136444,-1.7022725343704224
1725631019584566500,7.71556640625,0.1360742151737213,-0.11334528028964996,-1.7302041053771973
1725631019594600400,7.725600341796875,0.2045542150735855,0.014747980050742626,-1.6925150156021118
1725631019604635400,7.735635498046875,0.2210991382598877,0.20662982761859894,-1.507326602935791
1725631019614669600,7.745669677734375,0.17088682949543,0.2998223304748535,-1.1579097509384155
1725631019624703500,7.755703369140625,0.1672186255455017,0.20921310782432556,-0.74113929271698
1725631019634737400,7.7657373046875,0.27146434783935547,0.036851733922958374,-0.3452329933643341
1725631019644771600,7.775771484375,0.38000431656837463,-0.16814008355140686,-0.14223922789096832
1725631019654806300,7.78580615234375,0.4634121358394623,-0.3113555908203125,-0.14237931370735168
1725631019664840400,7.79584033203125,0.48983579874038696,-0.4110661447048187,-0.2545355558395386
1725631019674874600,7.80587451171875,0.4352625608444214,-0.4957541227340698,-0.3993430733680725
1725631019684908300,7.815908203125,0.31257370114326477,-0.5483152866363525,-0.5296778082847595
1725631019694943500,7.825943603515625,0.15333795547485352,-0.5819680690765381,-0.6076192259788513
1725631019704977400,7.835977294921875,-0.02459684945642948,-0.5765514373779297,-0.6342047452926636
1725631019715011600,7.846011474609375,-0.15376389026641846,-0.4439923167228699,-0.6149415969848633
1725631019725045500,7.85604541015625,-0.19594156742095947,-0.2628120481967926,-0.5729053616523743
1725631019735079400,7.866079345703125,-0.1324440836906433,-0.10519018024206161,-0.5266595482826233
1725631019745114600,7.876114501953125,-0.024093808606266975,0.09068060666322708,-0.4482664167881012
1725631019755148300,7.886148193359375,0.1321895271539688,0.3860161304473877,-0.38062798976898193
1725631019765182500,7.896182373046875,0.33293581008911133,0.6513139605522156,-0.327775239944458
1725631019775216600,7.906216552734375,0.5201573967933655,0.8081645369529724,-0.24816618859767914
1725631019785250300,7.916250244140625,0.6093992590904236,0.9303335547447205,-0.1685139536857605
1725631019795284500,7.926284423828125,0.5919816493988037,1.0518064498901367,-0.10347556322813034
1725631019805318700,7.936318603515625,0.5377069711685181,1.1460322141647339,-0.05668047070503235
1725631019815352300,7.946352294921875,0.5243940949440002,1.281179666519165,-0.11637043207883835
1725631019825387500,7.956387451171875,0.5509146451950073,1.4186508655548096,-0.2588881552219391
1725631019835421400,7.96642138671875,0.6661948561668396,1.6745541095733643,-0.5432953834533691
1725631019845455400,7.976455322265625,0.8329447507858276,1.9333431720733643,-0.9319267868995667
1725631019855489500,7.986489501953125,1.0318599939346313,2.034876585006714,-1.126178503036499
1725631019865523500,7.9965234375,1.188983678817749,2.059669256210327,-1.138508677482605
1725631019875558400,8.006558349609374,1.2549598217010498,2.009608030319214,-1.0863580703735352
1725631019885592600,8.016592529296876,1.2287836074829102,1.801008701324463,-0.9917793869972229
1725631019895626500,8.02662646484375,1.085570216178894,1.4840959310531616,-0.8803963661193848
1725631019905660400,8.036660400390625,0.8912159204483032,1.1712759733200073,-0.8539102673530579
1725631019915695400,8.0466953125,0.7602105140686035,0.8895289897918701,-0.9808096289634705
1725631019925729500,8.0567294921875,0.6082201600074768,0.4775744378566742,-1.0287504196166992
1725631019935763700,8.066763671875,0.4047594368457794,0.008386180736124516,-0.8972296118736267
1725631019945797400,8.07679736328125,0.27443546056747437,-0.1741565316915512,-0.7809572815895081
1725631019955831600,8.08683154296875,0.2166975885629654,-0.25189340114593506,-0.7618142366409302
1725631019965866500,8.096866455078125,0.18910787999629974,-0.3475756347179413,-0.7303381562232971
1725631019975900200,8.106900146484374,0.18316316604614258,-0.2925605773925781,-0.7111884355545044
1725631019985934300,8.116934326171876,0.14240285754203796,-0.23282676935195923,-0.6440314054489136
1725631019995968300,8.12696826171875,0.02131371758878231,-0.23180784285068512,-0.5574352741241455
1725631020006002200,8.137002197265625,-0.14442601799964905,-0.310878723859787,-0.5179597735404968
1725631020016037000,8.147037109375,-0.2399916797876358,-0.3791262209415436,-0.5099908113479614
1725631020026071300,8.1570712890625,-0.2652302086353302,-0.3067971467971802,-0.30731749534606934
1725631020036105200,8.167105224609376,-0.29698172211647034,-0.1431480497121811,-0.03293680027127266
1725631020046139100,8.17713916015625,-0.3199801445007324,0.051486022770404816,0.17890718579292297
1725631020056173300,8.18717333984375,-0.3131861388683319,0.17654059827327728,0.3529548645019531
1725631020066208300,8.197208251953125,-0.38812878727912903,0.2462904155254364,0.4648398458957672
1725631020076242200,8.2072421875,-0.41806110739707947,0.28617364168167114,0.5659682750701904
1725631020086276400,8.2172763671875,-0.3943968713283539,0.23369039595127106,0.672319769859314
1725631020096310000,8.22731005859375,-0.4019743800163269,0.21526053547859192,0.7933945655822754
1725631020106344200,8.23734423828125,-0.4237753748893738,0.21502633392810822,0.9243590831756592
1725631020116379100,8.247379150390625,-0.4493369162082672,0.2136462926864624,1.0502656698226929
1725631020126413300,8.257413330078125,-0.4446452558040619,0.1805783212184906,1.1797072887420654
1725631020136447200,8.267447265625,-0.4129142165184021,0.17214089632034302,1.3190209865570068
1725631020146481200,8.277481201171875,-0.4094678461551666,0.19718842208385468,1.473816990852356
1725631020156515300,8.287515380859375,-0.36987438797950745,0.20517444610595703,1.6420727968215942
1725631020166551300,8.29755126953125,-0.28721219301223755,0.15813589096069336,1.8509116172790527
1725631020176585200,8.307585205078125,-0.1261548548936844,0.030173929408192635,2.14420747756958
1725631020186619400,8.317619384765624,0.05446387827396393,-0.1980198472738266,2.505770444869995
1725631020196653000,8.327653076171876,0.048840347677469254,-0.4192345142364502,2.71500563621521
1725631020206687200,8.337687255859375,-0.20411893725395203,-0.676871120929718,2.530423641204834
1725631020216722200,8.34772216796875,-0.5143926739692688,-1.020201325416565,2.006368637084961
1725631020226756400,8.35775634765625,-0.7594359517097473,-1.2835429906845093,1.2772760391235352
1725631020236790300,8.367790283203124,-0.8847892880439758,-1.303572654724121,0.47728219628334045
1725631020246824200,8.37782421875,-0.8164871335029602,-1.112117886543274,-0.20710793137550354
1725631020256858400,8.3878583984375,-0.6860985159873962,-1.0526193380355835,-0.4775964021682739
1725631020266893000,8.39789306640625,-0.5672084093093872,-1.0863525867462158,-0.39731666445732117
1725631020276927200,8.40792724609375,-0.4351712763309479,-1.3662809133529663,-0.19987548887729645
1725631020286961400,8.41796142578125,-0.28903064131736755,-2.0976953506469727,0.0034260437823832035
1725631020296995000,8.4279951171875,-0.1916593313217163,-2.3476758003234863,0.1899317353963852
1725631020307029200,8.438029296875,-0.14438161253929138,-2.0892817974090576,0.29804009199142456
1725631020317064200,8.448064208984375,-0.10275453329086304,-1.630253791809082,0.2953875660896301
1725631020327098000,8.45809814453125,-0.09123093634843826,-1.0920614004135132,0.2044283151626587
1725631020337132300,8.46813232421875,-0.11997842788696289,-0.4990882873535156,0.07818301767110825
1725631020347166200,8.478166259765626,-0.13576118648052216,0.05294659361243248,-0.012989148497581482
1725631020357200100,8.4882001953125,-0.12509122490882874,0.457746297121048,-0.09209328889846802
1725631020367235000,8.498235107421875,-0.12661948800086975,0.7344235777854919,-0.13924366235733032
1725631020377269200,8.508269287109375,-0.15488307178020477,0.9101519584655762,-0.152437224984169
1725631020387303400,8.518303466796874,-0.189857617020607,1.004389762878418,-0.11316579580307007
1725631020397337000,8.528337158203126,-0.24236877262592316,1.0396738052368164,-0.007265197578817606
1725631020407372300,8.538372314453126,-0.3778533339500427,1.0408564805984497,0.22854892909526825
1725631020417406200,8.54840625,-0.5003485679626465,0.9371558427810669,0.4953038990497589
1725631020427440000,8.558440185546875,-0.5803847908973694,0.706469714641571,0.6533607244491577
1725631020437474300,8.568474365234374,-0.632570743560791,0.43674585223197937,0.6116838455200195
1725631020447508200,8.57850830078125,-0.6829517483711243,0.359205424785614,0.48292121291160583
1725631020457543200,8.588543212890626,-0.7169946432113647,0.49574464559555054,0.4658429026603699
1725631020467577300,8.598577392578125,-0.6661087870597839,0.5002885460853577,0.6325221657752991
1725631020477611300,8.608611328125,-0.6125726103782654,0.2517554461956024,0.7650948762893677
1725631020487645200,8.618645263671874,-0.5620188117027283,0.0321241095662117,0.795134425163269
1725631020497679400,8.628679443359376,-0.5439854264259338,-0.02877812273800373,0.7498313784599304
1725631020507714300,8.63871435546875,-0.5703584551811218,-0.005812333431094885,0.6466217041015625
1725631020517748500,8.64874853515625,-0.5795791149139404,0.0642935186624527,0.5351492166519165
1725631020527782100,8.6587822265625,-0.5631495118141174,0.17006045579910278,0.44855284690856934
1725631020537816300,8.66881640625,-0.4860328733921051,0.17859722673892975,0.38843145966529846
1725631020547850200,8.678850341796876,-0.3863530457019806,0.12398258596658707,0.322241872549057
1725631020557885200,8.68888525390625,-0.2755514085292816,0.11174588650465012,0.21450451016426086
1725631020567919400,8.69891943359375,-0.06360113620758057,0.15183357894420624,0.11774655431509018
1725631020577953300,8.708953369140625,0.13840974867343903,0.12706245481967926,0.03759659081697464
1725631020587987200,8.7189873046875,0.25053295493125916,0.15382017195224762,-0.10412708669900894
1725631020598021400,8.729021484375,0.4214075207710266,0.24098196625709534,-0.2053314596414566
1725631020608056300,8.739056396484376,0.6076116561889648,0.22204262018203735,-0.15734216570854187
1725631020618090200,8.74909033203125,0.735282838344574,0.033038076013326645,-0.03588604927062988
1725631020628124200,8.759124267578125,0.7421356439590454,-0.2050754874944687,-0.008322053588926792
1725631020638158300,8.769158447265625,0.7222886681556702,-0.39509469270706177,-0.09582926332950592
1725631020648192300,8.779192138671876,0.7826144695281982,-0.5657400488853455,-0.15504787862300873
1725631020658227200,8.789227294921876,0.9187470078468323,-0.8493682742118835,-0.09908899664878845
1725631020668261400,8.799261474609375,0.9689942598342896,-1.1862828731536865,-0.07830006629228592
1725631020678295000,8.809294921875,0.9071175456047058,-1.2917540073394775,-0.17067979276180267
1725631020688329200,8.8193291015625,0.8674373626708984,-1.226528286933899,-0.31397879123687744
1725631020698363400,8.82936328125,0.7586869597434998,-1.000454068183899,-0.4674261510372162
1725631020708398300,8.8393984375,0.6678133010864258,-0.7272943258285522,-0.6145606637001038
1725631020718432300,8.849432373046875,0.6151729822158813,-0.46057984232902527,-0.6709509491920471
1725631020728466200,8.859466064453125,0.5284156203269958,-0.22359322011470795,-0.7098461389541626
1725631020738500400,8.869500244140625,0.39445674419403076,0.008197668939828873,-0.8100667595863342
1725631020748535000,8.87953515625,0.22764073312282562,0.24726414680480957,-0.958665132522583
1725631020758569200,8.8895693359375,-0.014189217239618301,0.41408535838127136,-1.1485629081726074
1725631020768603400,8.899603271484375,-0.26483964920043945,0.5164662003517151,-1.2907273769378662
1725631020778637000,8.909636962890625,-0.38076093792915344,0.666570246219635,-1.2739406824111938
1725631020788671200,8.919671142578125,-0.31930968165397644,0.7452062964439392,-1.108199954032898
1725631020798706200,8.9297060546875,-0.07794099301099777,0.6776938438415527,-0.7440676689147949
1725631020808740000,8.939739990234376,0.21482452750205994,0.41457298398017883,-0.26663705706596375
1725631020818774300,8.949774169921875,0.3943527340888977,0.019777996465563774,0.1970946490764618
1725631020828808200,8.95980810546875,0.3773941099643707,-0.45283442735671997,0.4599684476852417
1725631020838842000,8.969842041015625,0.2946861982345581,-0.8130032420158386,0.4811016917228699
1725631020848877300,8.979877197265624,0.22093188762664795,-0.9585090279579163,0.3715623617172241
1725631020858911200,8.9899111328125,0.1604248583316803,-1.021506667137146,0.22738651931285858
1725631020868945400,8.9999453125,0.09374414384365082,-1.0358562469482422,0.10086734592914581
1725631020878979300,9.009979248046875,0.05532032251358032,-0.9527610540390015,0.014548168517649174
1725631020889013200,9.02001318359375,0.03867333009839058,-0.7955177426338196,-0.02693595178425312
1725631020899048400,9.03004833984375,0.047617554664611816,-0.5762133598327637,-0.04320307448506355
1725631020909082000,9.04008203125,0.10070627182722092,-0.27921104431152344,-0.06031573563814163
1725631020919116300,9.0501162109375,0.17204543948173523,0.005887005943804979,-0.06396373361349106
1725631020929150500,9.060150390625,0.24344033002853394,0.24725469946861267,-0.08932529389858246
1725631020939184000,9.07018408203125,0.28738805651664734,0.3945339024066925,-0.09834142029285431
1725631020949219300,9.08021923828125,0.33630403876304626,0.5087364315986633,-0.10376990586519241
1725631020959253200,9.090253173828126,0.3760538399219513,0.6851823329925537,-0.17510826885700226
1725631020969287200,9.100287109375,0.4693022072315216,1.1842842102050781,-0.4441213607788086
1725631020979321300,9.1103212890625,0.5336681604385376,1.6561527252197266,-0.7858395576477051
1725631020989355300,9.120355224609375,0.6309687495231628,1.8641716241836548,-0.8575150966644287
1725631020999390200,9.13039013671875,0.7298417687416077,1.91652512550354,-0.7535130381584167
1725631021009424100,9.140424072265626,0.7755155563354492,1.902215600013733,-0.6289032697677612
1725631021019458300,9.150458251953125,0.7651270627975464,1.7954102754592896,-0.5467308759689331
1725631021029492200,9.1604921875,0.6446027755737305,1.5336382389068604,-0.5125928521156311
1725631021039527200,9.170527099609375,0.6445476412773132,1.2537192106246948,-0.47948071360588074
1725631021049561300,9.180561279296874,0.6615123152732849,1.083917498588562,-0.595661461353302
1725631021059595300,9.19059521484375,0.47887301445007324,0.7769482731819153,-0.8734976053237915
1725631021069629200,9.200629150390625,0.41275328397750854,0.2666745185852051,-1.1324061155319214
1725631021079663400,9.210663330078125,0.3819173276424408,-0.2825891375541687,-1.208868384361267
1725631021089698300,9.2206982421875,0.281306654214859,-0.6082320809364319,-1.0865551233291626
1725631021099732200,9.230732177734374,0.09098409861326218,-0.7082282304763794,-0.9775031805038452
1725631021109766100,9.24076611328125,-0.1025717705488205,-0.6474045515060425,-0.9767574667930603
1725631021119800300,9.25080029296875,-0.25115111470222473,-0.533568263053894,-0.9548028707504272
1725631021129834200,9.260834228515625,-0.33437293767929077,-0.3802552819252014,-0.8312932848930359
1725631021139869200,9.270869140625,-0.34126198291778564,-0.20139124989509583,-0.592334508895874
1725631021149903400,9.2809033203125,-0.287631094455719,-0.035813599824905396,-0.24557557702064514
1725631021159937000,9.29093701171875,-0.2904292941093445,0.09598863869905472,0.08299912512302399
1725631021169971200,9.30097119140625,-0.3526357114315033,0.324040949344635,0.2309344857931137
1725631021180005400,9.31100537109375,-0.38416966795921326,0.49323582649230957,0.32403913140296936
1725631021190040300,9.321040283203125,-0.3155859410762787,0.5610635280609131,0.4747465252876282
1725631021200074200,9.33107421875,-0.25072067975997925,0.6011400818824768,0.6947681307792664
1725631021210108200,9.341108154296874,-0.18547748029232025,0.5932877063751221,0.9227560758590698
1725631021220142000,9.35114208984375,-0.14800865948200226,0.5606429576873779,1.1067866086959839
1725631021230176300,9.36117626953125,-0.16189974546432495,0.4625789225101471,1.2425107955932617
1725631021240211200,9.371211181640625,-0.22541934251785278,0.28233087062835693,1.3652514219284058
1725631021250245400,9.381245361328125,-0.29389047622680664,0.11293605715036392,1.5139340162277222
1725631021260279300,9.391279296875,-0.31110700964927673,-0.013305766507983208,1.679519772529602
1725631021270313200,9.401313232421876,-0.22658364474773407,-0.1498846560716629,1.8833754062652588
1725631021280347400,9.411347412109375,-0.16282278299331665,-0.47687771916389465,2.052107810974121
1725631021290382000,9.421382080078125,-0.19025768339633942,-0.9019899964332581,2.0582640171051025
1725631021300416300,9.431416259765625,-0.2746942639350891,-1.2387259006500244,1.8391823768615723
1725631021310450400,9.441450439453124,-0.38019829988479614,-1.4592217206954956,1.429274320602417
1725631021320484000,9.451484130859376,-0.45466479659080505,-1.5455211400985718,0.9148520231246948
1725631021330519300,9.461519287109375,-0.47506874799728394,-1.4074716567993164,0.4565533995628357
1725631021340553200,9.47155322265625,-0.45962560176849365,-1.0914108753204346,0.12095116078853607
1725631021350587100,9.481587158203125,-0.49032512307167053,-0.8261998891830444,-0.11273278295993805
1725631021360621300,9.491621337890624,-0.47609320282936096,-0.5309637188911438,-0.2170136570930481
1725631021370655200,9.5016552734375,-0.33785349130630493,-0.20376183092594147,-0.176181823015213
1725631021380690400,9.5116904296875,-0.14780154824256897,-0.033134154975414276,-0.09331462532281876
1725631021390724000,9.52172412109375,-0.012628871016204357,-0.20676088333129883,-0.03680606558918953
1725631021400758300,9.53175830078125,0.04346688836812973,-0.6525972485542297,-0.02205534651875496
1725631021410792400,9.54179248046875,0.037550974637269974,-1.1659576892852783,-0.015153809450566769
1725631021420826000,9.551826171875,-0.04727257043123245,-1.628334641456604,-0.040015216916799545
1725631021430861300,9.561861328125,-0.1917349398136139,-1.933771014213562,-0.11572755128145218
1725631021440895200,9.571895263671875,-0.31482329964637756,-2.1471266746520996,-0.2287110984325409
1725631021450929200,9.58192919921875,-0.34375205636024475,-2.291900396347046,-0.3499399721622467
1725631021460963300,9.59196337890625,-0.3089706301689148,-2.3628320693969727,-0.43006810545921326
1725631021470997200,9.601997314453126,-0.24594943225383759,-2.4392521381378174,-0.4486962556838989
1725631021481032200,9.6120322265625,-0.1639946550130844,-2.5379929542541504,-0.4376329481601715
1725631021491066000,9.622066162109375,-0.09648697823286057,-2.5053718090057373,-0.3809451758861542
1725631021501100300,9.632100341796875,-0.04027004912495613,-2.3110928535461426,-0.3462876081466675
1725631021511134200,9.64213427734375,-0.03183738514780998,-1.9383646249771118,-0.34135565161705017
1725631021521168100,9.652168212890626,-0.0832425206899643,-1.5761921405792236,-0.37144991755485535
1725631021531203300,9.662203369140625,-0.21382249891757965,-1.185962438583374,-0.4425918161869049
1725631021541237200,9.6722373046875,-0.3676338791847229,-0.6493181586265564,-0.47854796051979065
1725631021551271200,9.682271240234375,-0.4120972156524658,-0.08996349573135376,-0.40435636043548584
1725631021561305300,9.692305419921874,-0.43214043974876404,0.5754976272583008,-0.20522409677505493
1725631021571339000,9.702339111328126,-0.47786131501197815,1.103055477142334,0.031433530151844025
1725631021581374200,9.712374267578125,-0.5527070760726929,1.4230248928070068,0.19832104444503784
1725631021591408000,9.722408203125,-0.6368598341941833,1.7416033744812012,0.2632092833518982
1725631021601442300,9.7324423828125,-0.773548424243927,2.149848699569702,0.32253971695899963
1725631021611476200,9.742476318359374,-0.8820388913154602,2.353908061981201,0.41674137115478516
1725631021621510100,9.75251025390625,-0.9570524096488953,2.126002550125122,0.4129796624183655
1725631021631545300,9.76254541015625,-0.9692720174789429,1.77237868309021,0.2747475802898407
1725631021641579300,9.772579345703125,-0.9882142543792725,1.5981427431106567,0.02860223688185215
1725631021651613200,9.78261328125,-1.16798734664917,1.5212388038635254,-0.2828487455844879
1725631021661647400,9.7926474609375,-1.4004836082458496,1.4008253812789917,-0.5546797513961792
1725631021671681300,9.802681396484376,-1.5200660228729248,1.1976584196090698,-0.7727535367012024
1725631021681716200,9.81271630859375,-1.4482709169387817,1.0058006048202515,-0.967795729637146
1725631021691750400,9.82275048828125,-1.2874138355255127,0.8725170493125916,-1.097462773323059
1725631021701784000,9.8327841796875,-1.0605063438415527,0.7054356336593628,-1.1296510696411133
1725631021711818200,9.842818359375,-0.6895029544830322,0.5352122783660889,-1.0516403913497925
1725631021721852400,9.852852294921876,-0.26735249161720276,0.2947714626789093,-0.9525718688964844
1725631021731887400,9.862887451171876,0.07158593833446503,0.03405739739537239,-0.8833943605422974
1725631021741921300,9.87292138671875,0.3430677652359009,-0.21230924129486084,-0.8200521469116211
1725631021751955200,9.882955078125,0.5848866105079651,-0.4138558804988861,-0.763749897480011
1725631021761989400,9.8929892578125,0.7585446834564209,-0.5766953825950623,-0.724238932132721
1725631021772024000,9.903024169921874,0.8141552209854126,-0.7375652194023132,-0.6893845200538635
1725631021782058200,9.913058349609376,0.7721116542816162,-0.953972339630127,-0.6786192059516907
1725631021792092400,9.923092529296875,0.6736930012702942,-1.1711310148239136,-0.6724703311920166
1725631021802126000,9.9331259765625,0.551401674747467,-1.3363747596740723,-0.6658491492271423
1725631021812160300,9.94316015625,0.41450202465057373,-1.3748949766159058,-0.6343268156051636
1725631021822195200,9.9531953125,0.27534598112106323,-1.2491625547409058,-0.5598869323730469
1725631021832229000,9.96322900390625,0.15583127737045288,-0.9294671416282654,-0.4748409688472748
1725631021842263300,9.97326318359375,0.06794030964374542,-0.38006284832954407,-0.391848623752594
1725631021852297200,9.983297119140625,0.049141258001327515,0.28121063113212585,-0.3236498236656189
1725631021862331100,9.9933310546875,0.1178542748093605,0.8574579358100891,-0.2756255865097046
1725631021872366000,10.003365966796874,0.2694858908653259,1.283047080039978,-0.21553084254264832
1725631021882400300,10.013400146484376,0.4913884401321411,1.555702567100525,-0.12686088681221008
1725631021892434400,10.023434326171875,0.7351229786872864,1.5945638418197632,-0.04621141031384468
1725631021902468000,10.033468017578125,0.9181114435195923,1.5125852823257446,0.061417046934366226
1725631021912502300,10.043502197265624,0.9664455652236938,1.2522265911102295,0.15668483078479767
1725631021922537200,10.053537109375,0.9118843078613281,0.8854994773864746,0.20686091482639313
1725631021932571100,10.063571044921876,0.7938985228538513,0.5406211614608765,0.20019978284835815
1725631021942605300,10.073605224609375,0.6354635953903198,0.17102685570716858,0.10480482876300812
1725631021952639200,10.08363916015625,0.46065089106559753,-0.26340487599372864,-0.07576397806406021
1725631021962673200,10.093673095703124,0.31913265585899353,-0.7330616116523743,-0.2852274775505066
1725631021972708400,10.103708251953124,0.22917503118515015,-1.2670913934707642,-0.44078221917152405
1725631021982742500,10.113742431640626,0.12995922565460205,-1.7975475788116455,-0.5172173380851746
1725631021992776700,10.123776611328125,-0.01238156110048294,-2.1350271701812744,-0.558042585849762
1725631022002810400,10.133810302734375,-0.15512458980083466,-2.1869957447052,-0.6020097732543945
1725631022012844500,10.143844482421875,-0.23261526226997375,-2.0828444957733154,-0.660801887512207
1725631022022879500,10.15387939453125,-0.2342246025800705,-1.8232040405273438,-0.7196577191352844
1725631022032913400,10.163913330078126,-0.16037693619728088,-1.4381531476974487,-0.7037306427955627
1725631022042947600,10.173947509765625,-0.026522453874349594,-1.0107890367507935,-0.5928171277046204
1725631022052981500,10.1839814453125,0.18331603705883026,-0.5141938924789429,-0.43499645590782166
1725631022063015400,10.194015380859375,0.41126635670661926,-0.03166345879435539,-0.27092602849006653
1725631022073050600,10.204050537109374,0.6245720386505127,0.3484756648540497,-0.1456640660762787
1725631022083084500,10.21408447265625,0.7469229698181152,0.5427868366241455,-0.08962689340114594
1725631022093118500,10.224118408203125,0.8135523200035095,0.8409351706504822,-0.14863725006580353
1725631022103152600,10.234152587890625,0.9646489024162292,1.6572821140289307,-0.6565632820129395
1725631022113186600,10.2441865234375,1.0913746356964111,2.107144355773926,-1.113843560218811
1725631022123221800,10.2542216796875,1.2280744314193726,2.312714099884033,-1.193487524986267
1725631022133255400,10.26425537109375,1.3116085529327393,2.4176230430603027,-1.039842963218689
1725631022143289600,10.27428955078125,1.3213642835617065,2.3239223957061768,-0.8059462904930115
1725631022153323800,10.28432373046875,1.2267992496490479,2.1302125453948975,-0.6452025771141052
1725631022163357400,10.294357421875,1.0528398752212524,1.8902620077133179,-0.6525169610977173
1725631022173392600,10.304392578125,0.7953232526779175,1.5800131559371948,-0.7909932136535645
1725631022183426600,10.314426513671876,0.593754231929779,1.2563132047653198,-0.9618659019470215
1725631022193460500,10.32446044921875,0.4528636038303375,0.8450750112533569,-1.2056457996368408
1725631022203494700,10.33449462890625,0.48611903190612793,0.35151535272598267,-1.316982388496399
1725631022213528600,10.344528564453125,0.4855305552482605,-0.016079938039183617,-1.1699801683425903
1725631022223563500,10.3545634765625,0.3881289064884186,-0.24046297371387482,-0.9227331876754761
1725631022233597400,10.364597412109376,0.2692648470401764,-0.47209352254867554,-0.7428917288780212
1725631022243631600,10.374631591796875,0.1798880696296692,-0.7090296149253845,-0.6308932900428772
1725631022253665500,10.38466552734375,0.04866408556699753,-0.9730279445648193,-0.5223297476768494
1725631022263700500,10.394700439453125,-0.05152376741170883,-1.2070010900497437,-0.356642484664917
1725631022273734700,10.404734619140624,-0.10616075247526169,-1.3074305057525635,-0.10369667410850525
1725631022283768600,10.4147685546875,-0.20535098016262054,-1.3269048929214478,0.0690079927444458
1725631022293802500,10.424802490234375,-0.2485196590423584,-1.2168259620666504,0.18561862409114838
1725631022303836700,10.434836669921875,-0.26408717036247253,-0.9586988091468811,0.3414449989795685
1725631022313871600,10.44487158203125,-0.2309328019618988,-0.519250214099884,0.39084112644195557
1725631022323905500,10.454905517578124,-0.17810741066932678,-0.16488118469715118,0.533686637878418
1725631022333939500,10.464939453125,-0.16816803812980652,0.1534445434808731,0.7277751564979553
1725631022343973600,10.4749736328125,-0.20100533962249756,0.41841018199920654,0.8810771107673645
1725631022354007600,10.485007568359375,-0.23876623809337616,0.5836758613586426,1.0212050676345825
1725631022364042500,10.49504248046875,-0.2778204381465912,0.7338033318519592,1.1959731578826904
1725631022374076700,10.50507666015625,-0.29787981510162354,0.93913334608078,1.3987911939620972
1725631022384110300,10.5151103515625,-0.30574652552604675,1.0236825942993164,1.5860358476638794
1725631022394144500,10.52514453125,-0.3093765377998352,0.9268769025802612,1.7407472133636475
1725631022404178700,10.5351787109375,-0.2949405908584595,0.8078410625457764,1.844199538230896
1725631022414213400,10.54521337890625,-0.3102947473526001,0.6751466989517212,1.9125092029571533
1725631022424247600,10.55524755859375,-0.2872845232486725,0.39278101921081543,1.9665313959121704
1725631022434281500,10.565281494140624,-0.2078421413898468,0.026681864634156227,1.9987859725952148
1725631022444315400,10.5753154296875,-0.16267971694469452,-0.4565119743347168,1.953049898147583
1725631022454349600,10.585349609375,-0.19922763109207153,-1.0064231157302856,1.7611373662948608
1725631022464384500,10.595384521484375,-0.31307166814804077,-1.4674993753433228,1.3505789041519165
1725631022474418700,10.605418701171875,-0.4235791862010956,-1.5225486755371094,0.7448184490203857
1725631022484452600,10.61545263671875,-0.42871373891830444,-1.2234807014465332,0.10336977243423462
1725631022494486500,10.625486572265626,-0.37332621216773987,-0.9098421931266785,-0.27681857347488403
1725631022504520700,10.635520751953125,-0.37490013241767883,-0.7864978909492493,-0.31212088465690613
1725631022514555400,10.645555419921875,-0.40990641713142395,-0.7117984890937805,-0.16900542378425598
1725631022524589600,10.655589599609375,-0.4333374500274658,-0.6904029250144958,-0.03535601496696472
1725631022534623700,10.665623779296874,-0.4496941864490509,-0.7306753396987915,0.0038125202991068363
1725631022544657400,10.675657470703126,-0.4758552312850952,-0.8443595170974731,-0.025514209643006325
1725631022554691600,10.685691650390625,-0.4924710690975189,-0.9634301662445068,-0.044238269329071045
1725631022564726500,10.6957265625,-0.45220887660980225,-0.9628788828849792,-0.002846354618668556
1725631022574760400,10.705760498046875,-0.3308766484260559,-0.7832050323486328,0.08231949061155319
1725631022584794600,10.715794677734374,-0.18698526918888092,-0.5309246182441711,0.19579678773880005
1725631022594828500,10.72582861328125,-0.059236619621515274,-0.2731860280036926,0.32866063714027405
1725631022604862500,10.735862548828125,0.07169769704341888,0.013099015690386295,0.4575197994709015
1725631022614897400,10.7458974609375,0.1767631620168686,0.2504271864891052,0.5498493313789368
1725631022624931600,10.755931640625,0.25208935141563416,0.4677070379257202,0.6260644793510437
1725631022634965500,10.765965576171874,0.2939154803752899,0.6337164044380188,0.6838435530662537
1725631022644999400,10.77599951171875,0.2155783474445343,0.6762601137161255,0.7394937872886658
1725631022655033600,10.78603369140625,0.058351993560791016,0.5916083455085754,0.7635895609855652
1725631022665068500,10.796068603515625,-0.1467156708240509,0.6066222190856934,0.8562092185020447
1725631022675102500,10.8061025390625,-0.3365408778190613,0.6070481538772583,0.982914388179779
1725631022685136600,10.81613671875,-0.45885056257247925,0.3951984643936157,0.9754503965377808
1725631022695170600,10.826170654296876,-0.4843861162662506,0.31623804569244385,0.926525354385376
1725631022705204500,10.83620458984375,-0.4320358335971832,0.3557873070240021,0.989432156085968
1725631022715239400,10.846239501953125,-0.37677448987960815,0.2740761637687683,1.1149663925170898
1725631022725273600,10.856273681640625,-0.37532758712768555,0.04817593842744827,1.1761962175369263
1725631022735307500,10.8663076171875,-0.5092889666557312,-0.17538800835609436,1.1134648323059082
1725631022745341400,10.876341552734376,-0.6800005435943604,-0.30736681818962097,0.893667995929718
1725631022755376600,10.886376708984375,-0.7566085457801819,-0.2190501093864441,0.6975396275520325
1725631022765410300,10.896410400390625,-0.8596012592315674,-0.056718721985816956,0.570110023021698
1725631022775444500,10.906444580078125,-0.8956805467605591,0.06645318865776062,0.47741833329200745
1725631022785478700,10.916478759765624,-0.7819883227348328,0.19938354194164276,0.43369561433792114
1725631022795512300,10.92651220703125,-0.5717803835868835,0.2599135935306549,0.5050697922706604
1725631022805546500,10.93654638671875,-0.3330564498901367,0.22070680558681488,0.5966089963912964
1725631022815581400,10.94658154296875,-0.14112837612628937,0.1000085100531578,0.5581628680229187
1725631022825615600,10.95661572265625,-0.010369043797254562,0.013486933894455433,0.34474486112594604
1725631022835649500,10.9666494140625,0.056460484862327576,0.005858211778104305,0.05917874723672867
1725631022845683500,10.976683349609376,0.11394854635000229,-0.0001240472192876041,-0.20919279754161835
1725631022855718700,10.98671875,0.25019827485084534,0.006101349368691444,-0.29798370599746704
1725631022865752600,10.996752685546875,0.353002667427063,0.05673043802380562,-0.3037595748901367
1725631022875786500,11.006786376953125,0.37034881114959717,0.14253845810890198,-0.3569451868534088
1725631022885820700,11.016820556640624,0.34464797377586365,0.32340356707572937,-0.4549087584018707
1725631022895854600,11.0268544921875,0.29211676120758057,0.5157783031463623,-0.5466756224632263
1725631022905889500,11.0368896484375,0.19136035442352295,0.7150411009788513,-0.6024813652038574
1725631022915923700,11.046923828125,0.09301300346851349,0.904186487197876,-0.6648927330970764
1725631022925957400,11.056957275390625,0.01283667329698801,1.0343005657196045,-0.7769747972488403
1725631022935991600,11.066991455078124,-0.05280648544430733,1.0916248559951782,-0.9017375111579895
1725631022946025700,11.077025634765626,-0.15285558998584747,1.0024038553237915,-1.038794755935669
1725631022956060700,11.087060791015626,-0.23509399592876434,0.8636356592178345,-1.1703124046325684
1725631022966094600,11.097094482421875,-0.24197854101657867,0.769240140914917,-1.254991054534912
1725631022976128500,11.10712841796875,-0.16659396886825562,0.6346107721328735,-1.224647879600525
1725631022986162400,11.117162353515624,-0.06406545639038086,0.4890943169593811,-1.0194648504257202
1725631022996196600,11.127196533203126,0.007198828738182783,0.48922476172447205,-0.6217775940895081
1725631023006231600,11.1372314453125,0.13971026241779327,0.4519605040550232,-0.18350088596343994
1725631023016265500,11.147265380859375,0.343107134103775,0.35724976658821106,0.17419610917568207
1725631023026299400,11.15729931640625,0.5450918674468994,0.2528402805328369,0.4050500988960266
1725631023036333600,11.16733349609375,0.6752496957778931,0.22310104966163635,0.53587406873703
1725631023046367500,11.177367431640626,0.7587491273880005,0.1416272222995758,0.512559711933136
1725631023056402400,11.18740234375,0.758918046951294,-0.024228714406490326,0.3650704026222229
1725631023066436600,11.1974365234375,0.6449153423309326,-0.06757272779941559,0.18753182888031006
1725631023076470300,11.20747021484375,0.4978815019130707,-0.04763917252421379,0.024449534714221954
1725631023086504400,11.21750439453125,0.35090965032577515,-0.16741564869880676,-0.09725452959537506
1725631023096538600,11.22753857421875,0.21427607536315918,-0.4030740261077881,-0.17748156189918518
1725631023106573600,11.237573486328126,0.11421073228120804,-0.6116594672203064,-0.2261071503162384
1725631023116607500,11.247607421875,0.06377332657575607,-0.7448724508285522,-0.2844117283821106
1725631023126641400,11.257641357421875,0.06127234920859337,-0.7968634963035583,-0.3764231503009796
1725631023136675600,11.267675537109374,0.06649510562419891,-0.8378702402114868,-0.4617636501789093
1725631023146709500,11.27770947265625,0.10361424833536148,-0.7388837337493896,-0.5481475591659546
1725631023156744400,11.287744384765626,0.16571517288684845,-0.5570657849311829,-0.5905922651290894
1725631023166778600,11.297778564453125,0.22997459769248962,-0.4246329069137573,-0.5490522980690002
1725631023176812300,11.307812255859375,0.27002716064453125,-0.2632821202278137,-0.4557696282863617
1725631023186846500,11.317846435546874,0.31070107221603394,-0.013073070906102657,-0.37214958667755127
1725631023196880600,11.327880615234376,0.3859556019306183,0.3505713939666748,-0.3841397762298584
1725631023206915300,11.337915283203126,0.5066481828689575,0.6967781186103821,-0.49794623255729675
1725631023216949500,11.347949462890625,0.6168472766876221,1.209106683731079,-0.8246676325798035
1725631023226983400,11.3579833984375,0.6365394592285156,1.308026909828186,-1.120720624923706
1725631023237017300,11.368017333984374,0.641156792640686,1.220178246498108,-1.1743369102478027
1725631023247051500,11.378051513671876,0.6649739742279053,1.2436848878860474,-1.1907981634140015
1725631023257086500,11.38808642578125,0.7182175517082214,1.276714563369751,-1.283757209777832
1725631023267120600,11.39812060546875,0.758751392364502,1.2339119911193848,-1.4532370567321777
1725631023277154600,11.408154541015625,0.7466288805007935,1.0342638492584229,-1.6544888019561768
1725631023287188500,11.4181884765625,0.7008534073829651,0.7321193218231201,-1.7830452919006348
1725631023297222400,11.428222412109376,0.5718840956687927,0.4775516092777252,-1.7661230564117432
1725631023307257300,11.43825732421875,0.4393390715122223,0.3862669765949249,-1.6099367141723633
1725631023317291500,11.44829150390625,0.3218986690044403,0.3687047064304352,-1.4000593423843384
1725631023327325700,11.45832568359375,0.1670348048210144,0.3697686195373535,-1.2911465167999268
1725631023337359400,11.468359375,0.11228753626346588,0.3608146905899048,-1.2723139524459839
1725631023347393500,11.4783935546875,0.11962241679430008,0.2059345692396164,-1.2432141304016113
1725631023357428500,11.488428466796876,0.0999094545841217,0.027449823915958405,-1.1243572235107422
1725631023367462400,11.49846240234375,-0.006285153795033693,-0.06062304228544235,-0.9660224914550781
1725631023377496600,11.50849658203125,-0.12314728647470474,-0.11510729044675827,-0.8131749033927917
1725631023387530500,11.518530517578125,-0.17846541106700897,-0.11312829703092575,-0.6774895191192627
1725631023397564400,11.528564453125,-0.18998147547245026,-0.07999355345964432,-0.5388661026954651
1725631023407599400,11.538599365234376,-0.20398731529712677,-0.06664366275072098,-0.3527628779411316
1725631023417633500,11.548633544921875,-0.2470681369304657,-0.05839178338646889,-0.1805088073015213
1725631023427667500,11.55866748046875,-0.2704581618309021,-0.04203544929623604,-0.04852920398116112
1725631023437701400,11.568701416015625,-0.32618072628974915,-0.034192897379398346,0.06591880321502686
1725631023447735600,11.578735595703124,-0.36751964688301086,0.03563864529132843,0.17340265214443207
1725631023457770500,11.5887705078125,-0.3594208061695099,0.16915054619312286,0.30979683995246887
1725631023467804400,11.598804443359375,-0.33867186307907104,0.25872543454170227,0.46754705905914307
1725631023477838600,11.608838623046875,-0.3656958341598511,0.3000123202800751,0.6044012904167175
1725631023487872500,11.61887255859375,-0.40702810883522034,0.3379967212677002,0.7174484729766846
1725631023497907500,11.628907470703124,-0.42125850915908813,0.29117798805236816,0.8615375757217407
1725631023507941400,11.63894140625,-0.4377234876155853,0.2832668125629425,1.0390503406524658
1725631023517975600,11.6489755859375,-0.44802147150039673,0.3623940944671631,1.2471630573272705
1725631023528009500,11.659009521484375,-0.3754465878009796,0.4840547442436218,1.484880805015564
1725631023538043400,11.66904345703125,-0.22373849153518677,0.5119333267211914,1.769606113433838
1725631023548078600,11.67907861328125,-0.10890030860900879,0.4354603886604309,2.0166590213775635
1725631023558112300,11.6891123046875,-0.07346861064434052,0.24290257692337036,2.1749699115753174
1725631023568146400,11.699146484375,-0.09685143083333969,-0.15031342208385468,2.243372678756714
1725631023578180600,11.7091806640625,-0.13279548287391663,-0.6057719588279724,2.222609281539917
1725631023588214300,11.71921435546875,-0.21866299211978912,-1.031781554222107,2.0745692253112793
1725631023598249500,11.72924951171875,-0.34447306394577026,-1.42940092086792,1.7698925733566284
1725631023608283400,11.739283447265626,-0.4150790572166443,-1.702917218208313,1.35524320602417
1725631023618317600,11.749317626953125,-0.42446255683898926,-1.4734159708023071,0.7692182064056396
1725631023628351500,11.7593515625,-0.4951383173465729,-1.1235431432724,0.2613235414028168
1725631023638385400,11.769385498046875,-0.4983859062194824,-0.9715396761894226,0.05071501433849335
1725631023648420600,11.779420654296874,-0.4231143295764923,-0.8580184578895569,0.029777776449918747
1725631023658454500,11.78945458984375,-0.3322417438030243,-0.8031640648841858,0.11469549685716629
1725631023668488400,11.799488525390625,-0.25594645738601685,-0.7463935017585754,0.2415333390235901
1725631023678522600,11.809522705078125,-0.156692236661911,-0.692879319190979,0.37047019600868225
1725631023688556500,11.819556640625,-0.07375633716583252,-0.6603386998176575,0.4755529463291168
1725631023698591500,11.829591552734374,-0.005740068852901459,-0.6052461862564087,0.5117807984352112
1725631023708625700,11.839625732421876,0.07819823920726776,-0.48444682359695435,0.491359680891037
1725631023718659300,11.849659423828125,0.12335816025733948,-0.29154059290885925,0.44132494926452637
1725631023728693500,11.859693603515625,0.16390319168567657,-0.10139061510562897,0.39289724826812744
1725631023738727700,11.869727783203125,0.1811285763978958,0.13144029676914215,0.4017763137817383
1725631023748762600,11.8797626953125,0.1702333241701126,0.2397068440914154,0.43542322516441345
1725631023758796500,11.889796630859376,0.13875390589237213,0.2094319611787796,0.4402800500392914
1725631023768830500,11.89983056640625,0.07061878591775894,0.12929345667362213,0.42035534977912903
1725631023778864400,11.909864501953125,-0.014227265492081642,0.04192114248871803,0.39922285079956055
1725631023788898600,11.919898681640625,-0.19311951100826263,0.10040123015642166,0.4604683816432953
1725631023798932500,11.929932373046874,-0.4632720947265625,0.24796201288700104,0.6609272956848145
1725631023808966400,11.93996630859375,-0.6244537830352783,0.34208717942237854,0.7726786136627197
1725631023819000600,11.95000048828125,-0.70604008436203,0.45529723167419434,0.7448469996452332
1725631023829034500,11.960034423828125,-0.7798240184783936,0.6435784101486206,0.7781738042831421
1725631023839069700,11.970069580078125,-0.8764588832855225,0.6328449845314026,0.9741265177726746
1725631023849103400,11.980103271484374,-0.8424801230430603,0.17305955290794373,1.1503171920776367
1725631023859137500,11.990137451171876,-0.6794769763946533,-0.41217267513275146,1.209843397140503
1725631023869171500,12.00017138671875,-0.4358358085155487,-0.7953174114227295,1.1560372114181519
1725631023879205400,12.010205322265625,-0.27367842197418213,-0.9117146134376526,1.0187232494354248
1725631023889240600,12.020240478515625,-0.23350515961647034,-0.8454189300537109,0.8353174328804016
1725631023899274500,12.0302744140625,-0.19222456216812134,-0.6244117021560669,0.7291001677513123
1725631023909308400,12.040308349609376,-0.16417641937732697,-0.4749082922935486,0.6433866024017334
1725631023919342600,12.050342529296875,-0.11053508520126343,-0.3778417408466339,0.5370926856994629
1725631023929376500,12.06037646484375,-0.04377017170190811,-0.22640852630138397,0.44389456510543823
1725631023939411500,12.070411376953125,0.019666021689772606,-0.048516590148210526,0.3684355318546295
1725631023949445400,12.0804453125,0.09013379365205765,0.1293727159500122,0.29910892248153687
1725631023959479600,12.0904794921875,0.18662765622138977,0.23354366421699524,0.2311612218618393
1725631023969513500,12.100513427734375,0.19672183692455292,0.18234598636627197,0.05445701628923416
1725631023979547000,12.110546875,0.2274325042963028,0.11681029945611954,-0.182249516248703
1725631023989581800,12.120581787109375,0.2857847511768341,0.08494184911251068,-0.3018976151943207
1725631023999615700,12.13061572265625,0.3073764443397522,0.03392484039068222,-0.4125923216342926
1725631024009649700,12.140649658203126,0.3408052623271942,0.0026329660322517157,-0.555100679397583
1725631024019683800,12.150683837890625,0.37428605556488037,0.047841016203165054,-0.6821149587631226
1725631024029717800,12.1607177734375,0.4111410081386566,0.175231471657753,-0.7732446193695068
1725631024039752700,12.170752685546875,0.40579497814178467,0.31068888306617737,-0.8578088283538818
1725631024049787000,12.180786865234374,0.3983903229236603,0.4527781307697296,-0.9559886455535889
1725631024059820500,12.190820556640626,0.4073350727558136,0.5734613537788391,-1.0516831874847412
1725631024069854700,12.200854736328125,0.3657916188240051,0.589301347732544,-1.1588714122772217
1725631024079889000,12.210888916015625,0.26763755083084106,0.5066673755645752,-1.258287787437439
1725631024089923800,12.220923828125,0.1350765973329544,0.38334038853645325,-1.3227602243423462
1725631024099957800,12.230957763671874,-0.0055348738096654415,0.22090376913547516,-1.331069827079773
1725631024109991700,12.24099169921875,-0.12528710067272186,0.14089521765708923,-1.2272515296936035
1725631024120025600,12.251025634765625,-0.18161416053771973,0.10257033258676529,-0.9761509895324707
1725631024130059800,12.261059814453125,-0.11880217492580414,-0.000523029244504869,-0.6209737062454224
1725631024140094700,12.2710947265625,0.026952525600790977,-0.11219026148319244,-0.2234559804201126
1725631024150129000,12.28112890625,0.17609354853630066,-0.2690448462963104,0.03224370628595352
1725631024160162600,12.29116259765625,0.29385679960250854,-0.47756704688072205,0.10489156097173691
1725631024170197800,12.30119775390625,0.3423851728439331,-0.6200477480888367,0.007174055557698011
1725631024180232000,12.31123193359375,0.3561249077320099,-0.6497231721878052,-0.12133057415485382
1725631024190265600,12.321265625,0.32104548811912537,-0.6574569940567017,-0.1787904053926468
1725631024200300800,12.33130078125,0.24424287676811218,-0.6403983235359192,-0.1697542667388916
1725631024210334700,12.341334716796876,0.17273753881454468,-0.5617868900299072,-0.13431930541992188
1725631024220369000,12.351368896484376,0.1363559514284134,-0.514763593673706,-0.0904112234711647
1725631024230402800,12.36140283203125,0.14464424550533295,-0.4659430682659149,-0.04995913803577423
1725631024240436700,12.371436767578125,0.20506733655929565,-0.3790436089038849,-0.043947458267211914
1725631024250472000,12.381471923828125,0.2346705049276352,-0.33975398540496826,-0.03710499778389931
1725631024260505600,12.391505615234376,0.2275906205177307,-0.2952428460121155,-0.021124955266714096
1725631024270539800,12.401539794921876,0.24277782440185547,-0.16668249666690826,-0.02704596146941185
1725631024280574000,12.411573974609375,0.2836749851703644,-0.061018284410238266,-0.06809524446725845
1725631024290607600,12.421607666015625,0.34918075799942017,0.03149859979748726,-0.11867319792509079
1725631024300642800,12.431642822265625,0.3997645974159241,0.060499876737594604,-0.16794928908348083
1725631024310676700,12.4416767578125,0.4505111277103424,0.006498693488538265,-0.2004377245903015
1725631024320710700,12.451710693359376,0.46497926115989685,-0.08104396611452103,-0.254096120595932
1725631024330744800,12.461744873046875,0.5136277079582214,0.30507656931877136,-0.6790178418159485
1725631024340778800,12.47177880859375,0.513425350189209,0.4382021725177765,-1.220495343208313
1725631024350813700,12.481813720703125,0.5793665647506714,0.12629354000091553,-1.3496296405792236
1725631024360847600,12.49184765625,0.6022249460220337,-0.1086660698056221,-1.2240774631500244
1725631024370881800,12.5018818359375,0.6005234122276306,-0.0336083360016346,-1.1157017946243286
1725631024380915700,12.511915771484375,0.7216517329216003,0.1535400003194809,-1.069222092628479
