time,seconds_elapsed,z,y,x
1725892369918665000,0.0396650390625,0,0,0
1725892369937513200,0.05851318359375,0.3493461608886719,-4.026991844177246,1.1906394958496094
1725892369956361500,0.077361572265625,1.3011293411254883,-7.764756202697754,3.6980233192443848
1725892369975209700,0.096209716796875,0.18840694427490234,-3.7724318504333496,-0.13738632202148438
1725892369994058000,0.11505810546875,1.1504487991333008,-6.056696891784668,-0.9771809577941895
1725892370012906500,0.133906494140625,-2.899311065673828,-5.581485271453857,-3.1547775268554688
1725892370031754800,0.152754638671875,-5.111949443817139,-7.088362216949463,-3.543177366256714
1725892370050603000,0.17160302734375,-4.4065423011779785,-6.3975934982299805,-4.539216041564941
1725892370069451500,0.190451416015625,-4.884035110473633,-4.705286979675293,-6.19217586517334
1725892370088299800,0.2092998046875,-6.772890090942383,-6.457733631134033,-2.8717880249023438
1725892370107148000,0.22814794921875,-5.679659843444824,-4.240623950958252,-1.0085275173187256
1725892370125996300,0.246996337890625,-2.3675858974456787,-2.351273536682129,-1.7627363204956055
1725892370144844500,0.265844482421875,-0.8671016693115234,-3.994291305541992,-1.34928560256958
1725892370163693000,0.284693115234375,0.6903706789016724,-4.213720321655273,-2.449308395385742
1725892370182541300,0.303541259765625,2.7449045181274414,-3.3627548217773438,-1.8376200199127197
1725892370201389600,0.3223896484375,3.7335946559906006,-3.8372278213500977,-1.5247306823730469
1725892370220237800,0.34123779296875,4.799955368041992,-4.553908824920654,-0.6229901313781738
1725892370239099000,0.360098876953125,6.227268218994141,-4.0731120109558105,0.32588768005371094
1725892370257934600,0.3789345703125,6.442345142364502,-3.604395866394043,0.9183359146118164
1725892370276782800,0.397782958984375,5.271474361419678,-4.141834259033203,0.9367671012878418
1725892370295631000,0.416631103515625,5.859856605529785,-0.9571666717529297,8.139312744140625
1725892370314479600,0.435479736328125,2.541245460510254,-4.082370758056641,0.5027046203613281
1725892370333328000,0.454327880859375,0.7516571879386902,-3.277494430541992,1.3229246139526367
1725892370352176000,0.473176025390625,-2.79475736618042,-5.252696514129639,7.9373931884765625
1725892370371024400,0.4920244140625,-3.7847888469696045,-4.576635837554932,8.016350746154785
1725892370389873000,0.510872802734375,-0.12777996063232422,-1.7657999992370605,3.380110740661621
1725892370408721200,0.52972119140625,5.377246379852295,-0.9269683361053467,3.171571731567383
1725892370427569400,0.5485693359375,4.725738525390625,-0.17762494087219238,-1.0312118530273438
1725892370446417700,0.567417724609375,1.8000527620315552,0.8860993385314941,-1.015345573425293
1725892370465266200,0.58626611328125,-1.2884972095489502,-1.1472618579864502,-1.7334070205688477
1725892370484114400,0.605114501953125,0.3284568786621094,-0.29598140716552734,-2.604127883911133
1725892370502962700,0.623962646484375,0.6583439111709595,-1.2703022956848145,-1.2097220420837402
1725892370521811000,0.64281103515625,-0.062496185302734375,-0.859060525894165,-0.11473846435546875
1725892370540659500,0.661659423828125,-0.9080513715744019,-1.0253591537475586,2.3445749282836914
1725892370559507700,0.6805078125,-0.3630937337875366,-2.065340518951416,0.9499683380126953
1725892370578356000,0.69935595703125,-0.08039677143096924,-2.689000129699707,-1.7871589660644531
1725892370597204200,0.718204345703125,-1.3584399223327637,-1.0652978420257568,-2.6307382583618164
1725892370616052700,0.737052734375,-1.7660553455352783,-2.162161350250244,-3.15877103805542
1725892370634901000,0.75590087890625,-1.9681180715560913,0.05233478546142578,-2.4250059127807617
1725892370653749200,0.774749267578125,0.4516059160232544,-1.4398150444030762,-1.4193158149719238
1725892370672597800,0.79359765625,2.557713747024536,-5.021697044372559,1.2388553619384766
1725892370691446000,0.812446044921875,3.666390895843506,-1.9942493438720703,3.702840805053711
1725892370710294300,0.831294189453125,3.8560876846313477,-0.8998064994812012,2.0020151138305664
1725892370729142500,0.850142578125,6.100083351135254,-3.565869092941284,-1.300239086151123
1725892370747990800,0.86899072265625,3.9528160095214844,0.7736258506774902,0.4072284698486328
1725892370766839300,0.88783935546875,3.1447181701660156,-0.9118037223815918,4.10406494140625
1725892370785687600,0.9066875,1.5690476894378662,-3.3045501708984375,0.8827047348022461
1725892370804535800,0.925535888671875,0.5174717903137207,2.497563600540161,0.7799749374389648
1725892370823384300,0.94438427734375,-1.5040725469589233,3.0098800659179688,6.794122695922852
1725892370842232600,0.963232666015625,-0.5054645538330078,2.4346508979797363,1.892679214477539
1725892370861080800,0.982080810546875,1.0515016317367554,2.338264226913452,-0.16822338104248047
1725892370879929300,1.000929443359375,-0.7732386589050293,3.5964932441711426,1.2410268783569336
1725892370898777600,1.019777587890625,-2.0288937091827393,5.6521806716918945,-0.9212017059326172
1725892370917625900,1.0386259765625,-2.107614278793335,2.2218494415283203,0.5639104843139648
1725892370936474000,1.05747412109375,-4.084187984466553,2.1905837059020996,3.125530242919922
1725892370955322600,1.076322509765625,-0.6215654015541077,3.9365687370300293,-0.21614933013916016
1725892370974171000,1.0951708984375,1.8039326667785645,-2.1592459678649902,-3.872410774230957
1725892370993019100,1.11401904296875,-3.0204687118530273,5.0933074951171875,5.275254249572754
1725892371011867600,1.13286767578125,2.2931456565856934,-1.3810195922851562,0.1726360321044922
1725892371030716000,1.1517158203125,-2.3745553493499756,2.1963820457458496,1.271256446838379
1725892371049564200,1.170564208984375,0.9505952596664429,1.0909414291381836,-0.25852108001708984
1725892371068412700,1.18941259765625,-1.8695785999298096,-0.3406691551208496,0.03860950469970703
1725892371087261000,1.208260986328125,-0.09937429428100586,1.6528820991516113,-1.9475135803222656
1725892371106109200,1.227109130859375,2.0751683712005615,-3.6204652786254883,-2.80283784866333
1725892371124957700,1.245957763671875,-1.909532070159912,2.0438919067382812,-2.17415714263916
1725892371143806000,1.264805908203125,2.999809741973877,2.5725960731506348,3.8482561111450195
1725892371162654200,1.283654296875,0.712536096572876,-1.923222541809082,-1.560962200164795
1725892371181502500,1.30250244140625,-0.09006547927856445,4.339885711669922,-3.470935821533203
1725892371200351000,1.32135107421875,-0.12255430221557617,-2.612567901611328,-2.128199577331543
1725892371219199200,1.34019921875,-0.31815648078918457,-1.9366953372955322,-3.1191978454589844
1725892371238047500,1.359047607421875,-2.403146982192993,3.9579153060913086,4.5130510330200195
1725892371256896000,1.37789599609375,1.314983606338501,-2.4333910942077637,1.0943794250488281
1725892371275744300,1.396744140625,-1.2973411083221436,-1.3523914813995361,-1.5725460052490234
1725892371294592500,1.415592529296875,1.1119372844696045,-4.815608024597168,-7.078692436218262
1725892371313441000,1.43444091796875,-0.7157919406890869,2.2127556800842285,-2.0085549354553223
1725892371332289300,1.453289306640625,3.089479446411133,-3.6324996948242188,7.829658508300781
1725892371351137500,1.472137451171875,-0.431549072265625,1.4140572547912598,2.353992462158203
1725892371369985800,1.49098583984375,-3.7575063705444336,0.007050037384033203,-2.871828556060791
1725892371388834300,1.509834228515625,0.020694732666015625,3.911065101623535,-2.7137951850891113
1725892371407682600,1.5286826171875,3.85432767868042,0.47632360458374023,4.241061210632324
1725892371426530800,1.54753076171875,1.6405895948410034,-2.244152307510376,4.035861968994141
1725892371445379300,1.56637939453125,1.0793778896331787,-0.4702029228210449,-0.7853612899780273
1725892371464227600,1.5852275390625,-7.56433629989624,5.179600715637207,1.5564231872558594
1725892371483075800,1.604075927734375,-6.170988082885742,-1.5656116008758545,-5.468569755554199
1725892371501924400,1.62292431640625,-3.1621198654174805,-5.9777021408081055,2.0205678939819336
1725892371520772600,1.641772705078125,-0.3276998996734619,-6.698866844177246,6.373400688171387
1725892371539620900,1.660620849609375,-2.189661979675293,-2.013747453689575,-1.2005081176757812
1725892371558469000,1.67946923828125,4.476886749267578,3.8383641242980957,1.209803581237793
1725892371577317600,1.698317626953125,10.041670799255371,-3.2034707069396973,1.9366216659545898
1725892371596166000,1.717165771484375,6.793816089630127,0.8114013671875,3.2287464141845703
1725892371615014100,1.73601416015625,5.483772277832031,-2.7019834518432617,2.726496696472168
1725892371633862700,1.754862548828125,0.605095624923706,-2.04205322265625,-2.8680973052978516
1725892371652711000,1.7737109375,2.796355724334717,3.414226531982422,-1.8318958282470703
1725892371671559200,1.79255908203125,2.179605484008789,-3.4217331409454346,-1.218043327331543
1725892371690407700,1.81140771484375,-1.5207178592681885,-3.537372350692749,0.9325656890869141
1725892371709256000,1.830255859375,-1.9312924146652222,1.2322344779968262,-4.293446063995361
1725892371728104200,1.849104248046875,1.8673514127731323,0.5521600246429443,-2.8367385864257812
1725892371746952700,1.86795263671875,-0.49720263481140137,-1.3934142589569092,-0.6995468139648438
1725892371765801000,1.886801025390625,1.0490140914916992,0.6504414081573486,1.4661760330200195
1725892371784649200,1.905649169921875,1.5407309532165527,3.6601717472076416,0.49027156829833984
1725892371803497700,1.924497802734375,5.618844032287598,3.6737122535705566,2.4008007049560547
1725892371822346000,1.943345947265625,5.387111663818359,-1.9292709827423096,7.261757850646973
1725892371841194200,1.9621943359375,-9.038936614990234,-2.057999610900879,-0.7075157165527344
1725892371860042800,1.981042724609375,-0.3045136630535126,-1.0777008533477783,-10.265854835510254
1725892371878891000,1.99989111328125,9.721285820007324,-2.800082206726074,-3.2366676330566406
1725892371897739300,2.0187392578125,5.784262180328369,-2.707857131958008,3.819399833679199
1725892371916587800,2.037587890625,-6.1427507400512695,-1.824505090713501,4.115998268127441
1725892371935436000,2.05643603515625,-2.937741279602051,5.274406433105469,-4.393889427185059
1725892371954284500,2.075284423828125,1.7846055030822754,-5.351875305175781,-0.05981636047363281
1725892371973132800,2.0941328125,2.7759337425231934,-2.6515798568725586,1.0233020782470703
1725892371991981000,2.11298095703125,-3.241854667663574,2.7232799530029297,-1.5056819915771484
1725892372010829600,2.13182958984375,-1.7963635921478271,0.5277879238128662,-2.237851619720459
1725892372029677800,2.150677734375,8.947450637817383,1.4882147312164307,6.853664398193359
1725892372048526300,2.1695263671875,0.2518649101257324,-4.210788726806641,1.0863800048828125
1725892372067374600,2.18837451171875,4.35732889175415,2.3218395709991455,-5.33919620513916
1725892372086222800,2.207222900390625,1.061739444732666,-6.778733253479004,-2.8047852516174316
1725892372105071000,2.226071044921875,3.5291192531585693,-3.951723337173462,-3.556734085083008
1725892372123919600,2.244919677734375,0.5934756994247437,-2.3181874752044678,0.9267921447753906
1725892372142767900,2.263767822265625,-1.3839198350906372,-8.398622512817383,1.3929119110107422
1725892372161616400,2.282616455078125,1.070931077003479,1.913628101348877,0.7650594711303711
1725892372180464600,2.301464599609375,-5.448920726776123,-2.18652081489563,-2.100992202758789
1725892372199313000,2.32031298828125,0.5373263955116272,-7.36520528793335,3.3838634490966797
1725892372218161400,2.339161376953125,0.7806218862533569,-4.282203674316406,3.267129898071289
1725892372237009700,2.358009765625,3.0759150981903076,1.9859261512756348,-7.796261787414551
1725892372255858200,2.376858154296875,-1.2762342691421509,2.0076377391815186,0.8933849334716797
1725892372274706400,2.39570654296875,1.2989528179168701,-0.7852301597595215,5.392305374145508
1725892372293555000,2.414554931640625,-4.747105121612549,1.6371910572052002,1.7558393478393555
1725892372312403200,2.4334033203125,-2.1147043704986572,-7.880141258239746,2.5175933837890625
1725892372331251500,2.45225146484375,-0.7014871835708618,2.7171778678894043,-4.012665271759033
1725892372350100000,2.471099853515625,0.609494686126709,7.411591529846191,-1.1497039794921875
1725892372368948200,2.4899482421875,-3.200451374053955,1.894676685333252,3.144174575805664
1725892372387796700,2.508796630859375,1.4972567558288574,1.8459815979003906,6.303779602050781
1725892372406645000,2.52764501953125,4.8893723487854,-2.97487735748291,-2.895765781402588
1725892372425493500,2.546493408203125,-3.9426651000976562,-5.066803455352783,-3.2152037620544434
1725892372444341800,2.565341796875,3.212282419204712,-3.2861177921295166,-1.8724308013916016
1725892372463190300,2.584190185546875,0.8778235912322998,2.188586711883545,1.5292415618896484
1725892372482038500,2.60303857421875,-3.7991676330566406,0.7701582908630371,-4.707283973693848
1725892372500886800,2.62188671875,-1.802673578262329,0.14189362525939941,-1.651998519897461
1725892372519735300,2.6407353515625,3.9973292350769043,-2.562014579772949,3.462155342102051
1725892372538583600,2.65958349609375,-7.599878311157227,3.1985230445861816,-1.715876579284668
1725892372557432000,2.67843212890625,-4.461983680725098,-2.4783341884613037,0.8943243026733398
1725892372576280300,2.6972802734375,1.747070550918579,-1.5878057479858398,1.3507423400878906
1725892372595128800,2.71612890625,-1.9274511337280273,4.440728664398193,3.2846755981445312
1725892372613977000,2.73497705078125,-3.2706258296966553,-4.170836448669434,4.837825775146484
1725892372632825600,2.75382568359375,1.7661454677581787,-2.660531520843506,-2.159724235534668
1725892372651673900,2.772673828125,2.5747270584106445,8.090169906616211,1.761702537536621
1725892372670522400,2.7915224609375,0.19234108924865723,-1.4072281122207642,0.8954219818115234
1725892372689370600,2.81037060546875,-1.038381814956665,1.4316530227661133,5.837937355041504
1725892372708219000,2.829218994140625,1.4244298934936523,4.229889869689941,0.013515472412109375
1725892372727067400,2.8480673828125,-3.589475631713867,4.510960578918457,1.651494026184082
1725892372745915600,2.86691552734375,-0.042171478271484375,-4.711663722991943,3.713897705078125
1725892372764764200,2.88576416015625,-1.089311122894287,-1.0645408630371094,-3.47141170501709
1725892372783612400,2.9046123046875,-4.26202392578125,2.9457080364227295,-1.1914186477661133
1725892372802461000,2.9234609375,-4.716731548309326,2.897822141647339,-1.4691691398620605
1725892372821309200,2.94230908203125,-0.7022061347961426,-1.2889487743377686,4.959872245788574
1725892372840157700,2.96115771484375,-0.040293216705322266,-1.2395641803741455,2.049196243286133
1725892372859006000,2.980005859375,1.201139211654663,-3.5838496685028076,-1.3747711181640625
1725892372877854500,2.9988544921875,2.348677396774292,-0.6079399585723877,0.93017578125
1725892372896702700,3.01770263671875,6.227657318115234,-4.3159894943237305,6.271854400634766
1725892372915551200,3.03655126953125,1.8944940567016602,-3.5073416233062744,1.452986717224121
1725892372934399500,3.0553994140625,0.43575000762939453,-5.890870571136475,-0.2244734764099121
1725892372953248000,3.074248046875,2.394564151763916,-1.7755496501922607,4.766667366027832
1725892372972096300,3.09309619140625,5.332406520843506,-1.0752201080322266,5.206940650939941
1725892372990944800,3.11194482421875,9.254133224487305,-1.4082016944885254,1.2110800743103027
1725892373009793000,3.13079296875,3.9818553924560547,-3.4551265239715576,-1.3764572143554688
1725892373028641500,3.1496416015625,0.4631061553955078,-2.628831386566162,-0.21887922286987305
1725892373047489800,3.16848974609375,0.15172481536865234,-2.3989267349243164,0.03276777267456055
1725892373066338300,3.18733837890625,5.41087007522583,-1.588252067565918,0.8176145553588867
1725892373085187600,3.2061875,3.4343528747558594,0.9658007621765137,-1.818591594696045
1725892373104035000,3.22503515625,-0.27214956283569336,-1.63641357421875,0.2639589309692383
1725892373122883600,3.243883544921875,-1.7554311752319336,-2.419116973876953,0.44629669189453125
1725892373141731800,3.26273193359375,-4.9389967918396,-1.5306367874145508,0.6110329627990723
1725892373160580400,3.281580322265625,-7.221220970153809,-1.4112062454223633,1.2138607501983643
1725892373179428600,3.3004287109375,-7.988859176635742,-0.6461596488952637,1.8368998765945435
1725892373198277000,3.319277099609375,-4.519589900970459,-1.4093608856201172,4.145678997039795
1725892373217125400,3.33812548828125,-4.812182903289795,0.7551493644714355,2.1627025604248047
1725892373235974000,3.356973876953125,-3.2173781394958496,2.8418288230895996,0.687077522277832
1725892373254822100,3.375822265625,-3.78403377532959,3.469679832458496,-1.740605354309082
1725892373273670700,3.394670654296875,0.7468461990356445,2.4895238876342773,-0.7458205223083496
1725892373292519200,3.413519287109375,-0.3022747039794922,2.7692108154296875,-1.6273245811462402
1725892373311367400,3.432367431640625,0.049674034118652344,2.1893954277038574,-1.6099343299865723
1725892373330216000,3.4512158203125,0.07557868957519531,1.8863821029663086,-2.30940580368042
1725892373349064400,3.470064453125,0.303189754486084,1.532144546508789,-0.19525814056396484
1725892373367912700,3.48891259765625,-0.620607852935791,0.48995494842529297,0.4875621795654297
1725892373386761200,3.50776123046875,-2.266035318374634,-1.5145692825317383,0.6082711219787598
1725892373405609500,3.526609375,-0.2408604621887207,-1.7841103076934814,2.169191360473633
1725892373424458000,3.5454580078125,-0.07851696014404297,-1.3624742031097412,2.3787007331848145
1725892373443306200,3.56430615234375,-0.2390308380126953,-2.092555046081543,1.8664336204528809
1725892373462154800,3.58315478515625,1.8413643836975098,-2.0304861068725586,2.5399603843688965
1725892373481003300,3.602003173828125,0.5049848556518555,-0.5697975158691406,1.8564801216125488
1725892373499851500,3.6208515625,0.13127803802490234,-1.0083580017089844,1.2388253211975098
1725892373518700000,3.639699951171875,-3.582048177719116,-1.1552510261535645,1.220170497894287
1725892373537548300,3.65854833984375,-3.4533531665802,0.6128125190734863,-1.1358742713928223
1725892373556396800,3.677396728515625,-2.22066593170166,-0.43428659439086914,-0.20389223098754883
1725892373575245000,3.6962451171875,-0.16994476318359375,-0.3942255973815918,-0.7974963188171387
1725892373594093600,3.715093505859375,1.7339444160461426,1.3646636009216309,-2.745224952697754
1725892373612942000,3.733942138671875,1.9645891189575195,0.38663244247436523,-1.8022117614746094
1725892373631790600,3.75279052734375,2.3127641677856445,-0.7447412014007568,-1.1921825408935547
1725892373650638800,3.771638916015625,2.0772294998168945,-0.9368637800216675,-0.4277992248535156
1725892373669487400,3.7904873046875,3.2786216735839844,-0.7067465782165527,0.23202776908874512
1725892373688335600,3.809335693359375,2.4948272705078125,-0.5516126155853271,0.452345609664917
1725892373707184000,3.82818408203125,0.8160181045532227,-1.2906410694122314,-0.012392044067382812
1725892373726032600,3.84703271484375,0.6483573913574219,-0.9394626617431641,0.6979206204414368
1725892373744881000,3.865880859375,-0.20730209350585938,-1.8131433725357056,2.497204303741455
1725892373763729400,3.8847294921875,-0.9678068161010742,-2.7355716228485107,3.8726425170898438
1725892373782577700,3.90357763671875,-2.0309362411499023,-3.2161717414855957,2.529501438140869
1725892373801426200,3.92242626953125,-1.8339099884033203,-4.787156581878662,2.6985630989074707
1725892373820274700,3.941274658203125,-1.9577407836914062,-1.3216276168823242,0.006773114204406738
1725892373839123200,3.960123291015625,-1.457864761352539,-0.27083778381347656,-1.402883768081665
1725892373857971500,3.978971435546875,-0.3705143928527832,-0.17883825302124023,-1.9066965579986572
1725892373876820000,3.997820068359375,0.7459192276000977,-0.7893295288085938,-0.8758432865142822
1725892373895668200,4.016668212890625,1.7325634956359863,-1.6041059494018555,0.8168601989746094
1725892373914516700,4.035516845703125,2.2462992668151855,-1.7310175895690918,1.1846733093261719
1725892373933365200,4.054365234375,1.3557233810424805,-1.736295223236084,0.9031462669372559
1725892373952213500,4.073213623046875,0.5377612113952637,-1.4526300430297852,-0.27695322036743164
1725892373971062000,4.09206201171875,0.518496036529541,-1.5869314670562744,0.3645467758178711
1725892373989910500,4.11091064453125,-0.19962596893310547,-1.970440149307251,0.25320911407470703
1725892374008759000,4.129759033203125,0.30565738677978516,-2.1993846893310547,-0.7223949432373047
1725892374027607300,4.148607177734375,0.6766195297241211,-1.9832875728607178,-1.9279122352600098
1725892374046455800,4.167455810546875,0.9062433242797852,-2.7181949615478516,-3.1104307174682617
1725892374065304300,4.18630419921875,0.915442943572998,-3.4002363681793213,-2.2922658920288086
1725892374084152600,4.205152587890625,0.055533647537231445,-4.939145565032959,-0.5841794013977051
1725892374103001000,4.2240009765625,-0.24791240692138672,-5.984683990478516,-0.17897605895996094
1725892374121849300,4.242849365234375,-0.0496138334274292,-5.529535293579102,-0.6671352386474609
1725892374140697900,4.26169775390625,0.2921898365020752,-2.5077602863311768,-1.6882553100585938
1725892374159546400,4.28054638671875,1.1881606578826904,1.0341901779174805,-2.672818183898926
1725892374178395000,4.299394775390625,0.03332597017288208,-0.7872579097747803,-1.981461524963379
1725892374197243100,4.3182431640625,0.2961851954460144,-1.5257030725479126,-1.1259727478027344
1725892374216091600,4.337091552734375,2.9379961490631104,-1.061207890510559,1.7783832550048828
1725892374234940200,4.355940185546875,2.690045118331909,0.30018794536590576,3.0133180618286133
1725892374253788400,4.374788330078125,2.049673557281494,2.1274547576904297,4.686037063598633
1725892374272637000,4.393636962890625,0.47751641273498535,2.635741710662842,6.2421159744262695
1725892374291485400,4.4124853515625,-0.34244245290756226,3.3719482421875,5.733102798461914
1725892374310333700,4.431333740234375,-1.0287597179412842,3.417495012283325,5.346980094909668
1725892374329182200,4.45018212890625,-2.1773276329040527,3.2288570404052734,4.822477340698242
1725892374348030700,4.46903076171875,-6.275853633880615,3.8608789443969727,4.010684013366699
1725892374366879200,4.487879150390625,-6.287210464477539,4.671085834503174,3.1966676712036133
1725892374385727500,4.5067275390625,-4.235292911529541,2.370861768722534,1.8818550109863281
1725892374404576000,4.525575927734375,0.1622002124786377,0.9014707207679749,0.7726001739501953
1725892374423424500,4.544424560546875,1.6976094245910645,-1.374529480934143,-0.02859783172607422
1725892374442272800,4.563272705078125,0.7849099040031433,1.143848180770874,-2.0540428161621094
1725892374461121300,4.582121337890625,-1.0011062622070312,-0.4995749592781067,0.0317840576171875
1725892374479969800,4.6009697265625,0.28885841369628906,0.08204597234725952,-0.6325874328613281
1725892374498818300,4.619818359375,0.7376598119735718,-0.28708380460739136,0.09201240539550781
1725892374517666600,4.63866650390625,-0.10313153266906738,-0.18967610597610474,-0.2163829803466797
1725892374536515000,4.65751513671875,-0.6133966445922852,0.5067224502563477,0.14756011962890625
1725892374555363600,4.676363525390625,-0.523017406463623,0.2935749292373657,1.0364913940429688
1725892374574211800,4.6952119140625,-0.8986606597900391,-0.12706053256988525,-0.5800533294677734
1725892374593060600,4.714060546875,0.27727198600769043,-0.2608006000518799,-0.04695892333984375
1725892374611920000,4.732919921875,0.28547120094299316,0.25519466400146484,0.9538679122924805
1725892374630757400,4.75175732421875,-0.8093545436859131,0.4358900785446167,-0.6892766952514648
1725892374649606000,4.77060595703125,-0.667475700378418,0.19331133365631104,-1.2220783233642578
1725892374668454100,4.7894541015625,0.45656418800354004,-0.6409279108047485,-0.980473518371582
1725892374687302700,4.808302734375,0.5599053502082825,-0.2064145803451538,-1.4802284240722656
1725892374706151200,4.827151123046875,-0.14260423183441162,-0.0575028657913208,-0.4924802780151367
1725892374724999400,4.84599951171875,0.9839538335800171,-0.06109142303466797,-1.6801939010620117
1725892374743848000,4.864847900390625,2.739954948425293,-1.5492380857467651,-0.7562847137451172
1725892374762696400,4.883696533203125,8.03013801574707,-3.0363967418670654,0.173095703125
1725892374781545000,4.902544921875,4.455615043640137,-2.7495837211608887,-1.5885238647460938
1725892374800393500,4.9213935546875,2.1317338943481445,-2.0133056640625,-1.765087604522705
1725892374819241700,4.94024169921875,0.7368712425231934,-1.0182433128356934,-1.5066423416137695
1725892374838090200,4.95909033203125,-2.140233278274536,-0.059535861015319824,-1.8309054374694824
1725892374856938800,4.977938720703125,-6.79695987701416,2.743403911590576,-1.2171220779418945
1725892374875787300,4.996787353515625,-3.8887813091278076,0.6642444729804993,0.39414119720458984
1725892374894635500,5.015635498046875,0.09488892555236816,-0.7810355424880981,1.1986122131347656
1725892374913484000,5.034484130859375,2.69767427444458,-1.168779969215393,1.759958267211914
1725892374932332500,5.05333251953125,2.7963314056396484,-0.9031095504760742,0.8137216567993164
1725892374951181000,5.07218115234375,3.0463955402374268,0.16257166862487793,-0.7488307952880859
1725892374970029600,5.091029541015625,0.9930448532104492,-0.054585933685302734,0.3516683578491211
1725892374988877800,5.1098779296875,0.07901573181152344,-0.6639465093612671,-0.2772502899169922
1725892375007726300,5.128726318359375,-0.8209929466247559,-0.5729092359542847,0.7943696975708008
1725892375026574800,5.147574951171875,-0.5099992752075195,-0.7578940391540527,-1.2825212478637695
1725892375045423000,5.166423095703125,0.11747145652770996,2.008760452270508,-1.1217365264892578
1725892375064271600,5.185271728515625,-0.11337590217590332,1.704195261001587,0.7158689498901367
1725892375083120000,5.2041201171875,0.6714750528335571,0.6884021759033203,1.0099077224731445
1725892375101968600,5.22296875,2.324329376220703,-0.5264997482299805,-1.1040706634521484
1725892375120817200,5.241817138671875,2.3551933765411377,-2.843501091003418,0.016115188598632812
1725892375139665400,5.26066552734375,0.4113943576812744,-2.775294542312622,1.2231330871582031
1725892375158514000,5.279513916015625,-0.7693607807159424,-1.0242342948913574,0.6612510681152344
1725892375177362400,5.298362548828125,-1.30894136428833,-0.806102991104126,0.4225730895996094
1725892375196211000,5.3172109375,-1.4531793594360352,-0.978330135345459,0.8537302017211914
1725892375215059500,5.3360595703125,-1.0253760814666748,-0.8390030860900879,0.597630500793457
1725892375233907700,5.35490771484375,-0.1990375518798828,-1.0111563205718994,-0.05839729309082031
1725892375252756200,5.373756103515625,0.7183804512023926,-1.3957188129425049,-1.2210378646850586
1725892375271604700,5.392604736328125,1.0993598699569702,-1.6168341636657715,0.055817604064941406
1725892375290453200,5.411453369140625,0.855928897857666,-0.3169434070587158,-1.1598272323608398
1725892375309301800,5.4303017578125,1.2261626720428467,-0.6918754577636719,-0.6131925582885742
1725892375328150000,5.44914990234375,1.0028371810913086,-0.6232116222381592,-0.31066417694091797
1725892375346998500,5.46799853515625,0.25384747982025146,0.8400650024414062,-0.704716682434082
1725892375365847000,5.486846923828125,-0.14960217475891113,1.4026060104370117,-0.44896793365478516
1725892375384695600,5.505695556640625,-0.10884428024291992,1.4353547096252441,-0.10721397399902344
1725892375403543800,5.524543701171875,-0.43315720558166504,1.5077769756317139,-0.7072820663452148
1725892375422392600,5.543392578125,0.009995222091674805,-0.006531715393066406,0.20168781280517578
1725892375441240800,5.56224072265625,0.35326218605041504,-0.13256216049194336,-0.38085365295410156
1725892375460089300,5.58108935546875,-0.05049240589141846,-0.5515234470367432,-1.0725431442260742
1725892375478937900,5.599937744140625,-0.6462030410766602,-1.0302751064300537,-1.5947513580322266
1725892375497786400,5.618786376953125,-0.6910173892974854,-0.09101104736328125,-1.408639907836914
1725892375516635000,5.637634765625,0.4493977427482605,0.9333044290542603,-1.621870517730713
1725892375535483100,5.656483154296875,1.439665675163269,0.2792093753814697,-0.2849311828613281
1725892375554331600,5.67533154296875,1.436417818069458,0.7525293827056885,0.6186285018920898
1725892375573180200,5.69418017578125,0.49722325801849365,0.684741735458374,0.7246589660644531
1725892375592028700,5.713028564453125,0.12999963760375977,-1.8613402843475342,2.8008298873901367
1725892375610877000,5.731876953125,0.26679229736328125,-2.568068265914917,1.086761474609375
1725892375629725700,5.7507255859375,1.3952572345733643,-1.5904362201690674,-0.520625114440918
1725892375648574000,5.769573974609375,0.7372193336486816,-2.6176068782806396,-1.2965764999389648
1725892375667422500,5.78842236328125,0.7500746250152588,-1.1419788599014282,-0.7611160278320312
1725892375686271000,5.80727099609375,1.3258304595947266,-0.5603009462356567,-0.9431743621826172
1725892375705119500,5.826119384765625,1.1836169958114624,-0.663916826248169,-0.13088226318359375
1725892375723968000,5.844968017578125,-1.0542173385620117,-0.6361510753631592,0.28524208068847656
1725892375742816500,5.86381640625,-1.3612861633300781,-0.5462054014205933,-0.19655132293701172
1725892375761664800,5.882664794921875,0.020084857940673828,-0.24562406539916992,-0.8600854873657227
1725892375780513300,5.90151318359375,0.4600186347961426,-0.9763667583465576,-0.6655778884887695
1725892375799361800,5.92036181640625,-0.3634653091430664,-0.5583703517913818,1.099569320678711
1725892375818210300,5.939210205078125,-0.392275333404541,0.9474561214447021,-0.10257625579833984
1725892375837058800,5.958058837890625,0.28642702102661133,0.4904055595397949,0.10806941986083984
1725892375855907300,5.9769072265625,1.4267210960388184,-0.04608476161956787,-0.5879526138305664
1725892375874755600,5.995755615234375,1.5074796676635742,0.36951178312301636,-2.3694052696228027
1725892375893604000,6.01460400390625,-0.04308176040649414,-0.3200286626815796,-1.9815378189086914
1725892375912452600,6.03345263671875,-0.372314453125,-1.0184080600738525,-1.581594467163086
1725892375931301000,6.052301025390625,0.5725736618041992,-0.5250648260116577,-1.1339216232299805
1725892375950149600,6.071149658203125,0.47150659561157227,-1.3044439554214478,-0.45537281036376953
1725892375968998100,6.089998046875,-0.4445509910583496,-0.7097799181938171,0.4253253936767578
1725892375987846700,6.1088466796875,-0.02303028106689453,-1.1686007976531982,0.6931877136230469
1725892376006695000,6.12769482421875,-0.9636330604553223,-0.5746262073516846,1.1926851272583008
1725892376025543400,6.14654345703125,-0.7416610717773438,-0.0903170108795166,1.2483501434326172
1725892376044392000,6.165391845703125,-0.4173574447631836,0.12701600790023804,-0.3237028121948242
1725892376063240400,6.184240478515625,-0.3588681221008301,1.663287878036499,-0.6413459777832031
1725892376082089000,6.2030888671875,0.34063053131103516,1.4456431865692139,-0.7684078216552734
1725892376100937500,6.2219375,-0.0012717247009277344,0.33061161637306213,0.47977638244628906
1725892376119786000,6.240785888671875,0.2727169990539551,0.2255537509918213,-1.218796730041504
1725892376138634200,6.25963427734375,0.4816570281982422,-0.1703730821609497,-3.7104063034057617
1725892376157482800,6.278482666015625,0.9998345375061035,-6.229114532470703,-0.5768041610717773
1725892376176331300,6.297331298828125,-0.37146902084350586,-2.806973457336426,-1.6211013793945312
1725892376195179800,6.3161796875,-0.34831762313842773,-2.932720899581909,-2.3530945777893066
1725892376214028300,6.3350283203125,-0.9917111396789551,-3.397282838821411,0.04355049133300781
1725892376232876800,6.353876708984375,-1.520528793334961,-1.6868255138397217,-3.685924530029297
1725892376251725000,6.37272509765625,0.20959806442260742,-5.259207248687744,-6.1102142333984375
1725892376270573800,6.39157373046875,1.072700023651123,-3.2022342681884766,-2.689019203186035
1725892376289422000,6.410422119140625,3.0083694458007812,0.3254070281982422,-2.381349563598633
1725892376308270600,6.4292705078125,2.0959689617156982,5.179161548614502,6.853128910064697
1725892376327119000,6.448119140625,0.4339427947998047,6.274199485778809,9.826141357421875
1725892376345967600,6.466967529296875,-1.0579962730407715,5.913381099700928,3.6696548461914062
1725892376364816100,6.485816162109375,-1.7273106575012207,5.742674350738525,1.9742064476013184
1725892376383664600,6.50466455078125,-1.4287424087524414,4.049718856811523,0.7965149879455566
1725892376402513200,6.52351318359375,0.29671406745910645,1.0841526985168457,0.7312722206115723
1725892376421361400,6.542361328125,-0.00635218620300293,-2.3175110816955566,1.2445740699768066
1725892376440210200,6.561210205078125,-1.0656747817993164,-4.157444000244141,0.6610512733459473
1725892376459058400,6.580058349609375,0.36801624298095703,-4.936017036437988,0.8427095413208008
1725892376477907000,6.598906982421875,-0.7727868556976318,-5.588276386260986,-0.43051671981811523
1725892376496755500,6.61775537109375,0.6379435062408447,-4.935571193695068,-1.0416340827941895
1725892376515604000,6.63660400390625,-0.10373926162719727,-1.1098246574401855,-1.2575550079345703
1725892376534452500,6.655452392578125,-0.18849515914916992,-1.4751343727111816,-1.5403504371643066
1725892376553301000,6.674301025390625,1.2286155223846436,-1.7194137573242188,-1.4204540252685547
1725892376572149500,6.6931494140625,-5.325662612915039,9.301396369934082,4.006804466247559
1725892376590997800,6.711997802734375,4.321516036987305,-3.0509285926818848,-1.1485357284545898
1725892376609846500,6.730846435546875,4.6288838386535645,-5.414106845855713,-5.675506591796875
1725892376628694800,6.74969482421875,0.1710529327392578,-4.613995552062988,-6.611597537994385
1725892376647543300,6.768543212890625,-1.5421690940856934,-5.480854511260986,-4.137606620788574
1725892376666391800,6.787391845703125,0.3240084648132324,-6.187447547912598,-1.4944796562194824
1725892376685240300,6.806240234375,0.5803561210632324,-4.936313152313232,0.825047492980957
1725892376704088800,6.8250888671875,-0.11138772964477539,0.20878839492797852,2.9941601753234863
1725892376722937300,6.843937255859375,-0.5629701614379883,6.8689775466918945,6.606100082397461
1725892376741785900,6.862785888671875,-1.43424654006958,7.800854682922363,5.460407257080078
1725892376760634400,6.88163427734375,-1.9117655754089355,5.929376602172852,3.4575624465942383
1725892376779483000,6.90048291015625,0.3473694324493408,3.6413679122924805,9.127378463745117
1725892376798331400,6.919331298828125,-0.5073962211608887,0.6695442199707031,1.9857378005981445
1725892376817179600,6.9381796875,2.0532736778259277,-3.390072822570801,-2.2006216049194336
1725892376836028400,6.9570283203125,-0.008739471435546875,-8.060791015625,-7.4984002113342285
1725892376854876700,6.975876708984375,-0.5292391777038574,-5.303426742553711,-7.304139614105225
1725892376873725200,6.99472509765625,-1.2556018829345703,-3.642751693725586,-2.4673995971679688
1725892376892573700,7.01357373046875,1.0902724266052246,-4.683882236480713,-2.2667877674102783
1725892376911422200,7.032422119140625,1.9912538528442383,2.7485032081604004,-0.8111424446105957
1725892376930270700,7.051270751953125,1.9871163368225098,1.6095170974731445,-2.6423048973083496
1725892376949119200,7.070119140625,2.661313772201538,-3.252387046813965,-0.48117589950561523
1725892376967967700,7.0889677734375,5.07795524597168,2.8866186141967773,-1.4109187126159668
1725892376986816300,7.107816162109375,-1.5149779319763184,0.2720179557800293,-1.5725011825561523
1725892377005664800,7.126664794921875,0.0015940666198730469,-2.218036651611328,-1.2790331840515137
1725892377024513300,7.14551318359375,0.19576406478881836,-2.6510276794433594,-1.3572978973388672
1725892377043361800,7.16436181640625,0.4144477844238281,0.6359519958496094,-1.5958900451660156
1725892377062210000,7.1832099609375,-0.24986696243286133,6.952305793762207,2.507936954498291
1725892377081058800,7.202058837890625,-1.9000120162963867,4.2685723304748535,3.0048556327819824
1725892377099907000,7.220906982421875,-1.9838356971740723,4.173779487609863,1.2373552322387695
1725892377118755600,7.239755615234375,-1.4387993812561035,1.1169605255126953,2.0648579597473145
1725892377137604000,7.25860400390625,-1.0882315635681152,-1.2731947898864746,0.8350787162780762
1725892377156452600,7.27745263671875,-1.383455753326416,-2.9958367347717285,0.10056018829345703
1725892377175301000,7.296301025390625,-1.1315274238586426,-3.437387466430664,0.7531242370605469
1725892377194149600,7.315149658203125,-0.10889387130737305,-0.1447768211364746,0.13562774658203125
1725892377212998100,7.333998046875,0.18503570556640625,-1.9540719985961914,-0.4598546028137207
1725892377231846700,7.3528466796875,0.9317584037780762,0.687990665435791,-0.4798402786254883
1725892377250707000,7.37170703125,1.4562387466430664,0.8041749000549316,-1.1097311973571777
1725892377269553400,7.390553466796875,1.1441078186035156,1.0627789497375488,-1.6874756813049316
1725892377288392200,7.40939208984375,0.5125722885131836,1.0038270950317383,-1.0441851615905762
1725892377307240700,7.42824072265625,-0.09671974182128906,0.13793182373046875,-0.5195102691650391
1725892377326089200,7.447089111328125,0.2443985939025879,-0.903526782989502,0.03872346878051758
1725892377344937700,7.465937744140625,0.7273836135864258,0.6547393798828125,-0.49526262283325195
1725892377363786200,7.4847861328125,0.7695059776306152,-0.1246039867401123,-0.07026386260986328
1725892377382634800,7.503634765625,-0.16381311416625977,-2.467280626296997,1.2753891944885254
1725892377401483300,7.522483154296875,-0.0694880485534668,-2.10339093208313,0.4781460762023926
1725892377420331800,7.541331787109375,0.621213436126709,-1.4071605205535889,-0.8643898963928223
1725892377439180300,7.56018017578125,-1.156423568725586,0.28046107292175293,0.2510209083557129
1725892377458028800,7.57902880859375,-0.565162181854248,-0.9828248023986816,-0.9660611152648926
1725892377476877000,7.597876953125,0.16898393630981445,-2.0694830417633057,-0.9691276550292969
1725892377495725800,7.616725830078125,-1.4770030975341797,-0.977536678314209,1.5709481239318848
1725892377514574300,7.63557421875,0.7525100708007812,-0.17746520042419434,-0.4139084815979004
1725892377533422600,7.654422607421875,0.9848413467407227,-1.165034532546997,-1.1502909660339355
1725892377552271000,7.67327099609375,-0.25544214248657227,-0.8946857452392578,1.3498444557189941
1725892377571119900,7.692119873046875,1.8366880416870117,-0.52048659324646,-1.5447125434875488
1725892377589968100,7.710968017578125,0.7174105644226074,-0.8059554100036621,-1.5716257095336914
1725892377608816600,7.729816650390625,0.7195863723754883,-0.22806715965270996,-0.447415828704834
1725892377627665400,7.74866552734375,1.601109504699707,1.6301612854003906,-2.1817054748535156
1725892377646513700,7.767513671875,-0.08171939849853516,0.578779935836792,-2.9974560737609863
1725892377665362200,7.786362060546875,-0.15005064010620117,0.12726759910583496,-0.7252817153930664
1725892377684210700,7.805210693359375,0.7644243240356445,1.3816707134246826,-0.4636378288269043
1725892377703059200,7.82405908203125,0.8614158630371094,0.42870545387268066,-3.516576051712036
1725892377721907700,7.84290771484375,-1.9908232688903809,0.12357139587402344,-0.10558509826660156
1725892377740756200,7.861756103515625,-0.04868030548095703,0.5376932621002197,0.04773712158203125
1725892377759604700,7.880604736328125,1.1904067993164062,0.7020686864852905,-2.0110793113708496
1725892377778453200,7.899453369140625,-1.4299588203430176,0.20993733406066895,0.27053070068359375
1725892377797301800,7.9183017578125,1.3710932731628418,1.3590869903564453,-0.5543212890625
1725892377816150300,7.937150390625,-0.19916152954101562,1.3423923254013062,-1.414546012878418
1725892377834998800,7.955998779296875,-0.6309151649475098,1.0284242630004883,0.3488583564758301
1725892377853847300,7.974847412109375,0.45797252655029297,0.8137903213500977,0.10767984390258789
1725892377872695800,7.99369580078125,0.07648372650146484,1.679295539855957,-1.0613374710083008
1725892377891544300,8.01254443359375,-0.6911048889160156,-0.3976123332977295,-1.2528657913208008
1725892377910392800,8.031392822265625,-0.16519546508789062,0.02784585952758789,0.2388300895690918
1725892377929241300,8.050241455078124,0.3531503677368164,0.3929176330566406,-1.3853111267089844
1725892377948089900,8.06908984375,0.10025739669799805,-0.6504960060119629,-0.9842128753662109
1725892377966938400,8.0879384765625,-0.5054402351379395,0.22334766387939453,0.1328582763671875
1725892377985787000,8.106786865234374,0.6120352745056152,0.25792932510375977,-0.7708792686462402
1725892378004635400,8.125635498046876,-0.5493378639221191,-0.6374101638793945,0.16133356094360352
1725892378023484000,8.14448388671875,2.123289108276367,0.8973441123962402,2.039092540740967
1725892378042332400,8.16333251953125,2.674086570739746,-1.2282633781433105,-2.7066564559936523
1725892378061181000,8.182180908203126,-1.861638069152832,-2.389029026031494,-0.8158068656921387
1725892378080029400,8.201029541015625,-0.047220706939697266,-0.5292057991027832,1.1454977989196777
1725892378098878000,8.2198779296875,-0.5418081283569336,0.9058570861816406,-1.6506569385528564
1725892378117726500,8.2387265625,-2.6749773025512695,0.7485146522521973,-0.32936906814575195
1725892378136575000,8.257574951171875,1.168717861175537,3.1625280380249023,0.32831716537475586
1725892378155423500,8.276423583984375,1.595395565032959,4.48997688293457,-1.8798158168792725
1725892378174272000,8.29527197265625,0.4169483184814453,1.2389249801635742,0.8364706039428711
1725892378193120500,8.31412060546875,0.7732362747192383,-0.4012880325317383,-0.15384721755981445
1725892378211969000,8.332968994140625,-2.2700114250183105,-3.2273011207580566,0.16837453842163086
1725892378230817800,8.35181787109375,-0.9176149368286133,-1.7966485023498535,-0.5813815593719482
1725892378249666000,8.370666015625,-0.6203045845031738,-2.3147096633911133,-1.4034080505371094
1725892378268514600,8.3895146484375,0.22036361694335938,-1.3080673217773438,-1.1787190437316895
1725892378287363000,8.408363037109375,1.7959489822387695,-1.336827278137207,-0.5506086349487305
1725892378306211800,8.4272119140625,-0.36415863037109375,-2.1564483642578125,-0.29172515869140625
1725892378325060400,8.446060302734375,0.8126335144042969,-1.1654210090637207,0.8443050384521484
1725892378343908600,8.46490869140625,-0.11237668991088867,3.0530524253845215,-2.5013296604156494
1725892378362757400,8.48375732421875,-0.7745351791381836,1.270566463470459,-1.3039779663085938
1725892378381606000,8.50260595703125,1.834409236907959,-1.5327768325805664,0.5925302505493164
1725892378400454400,8.521454345703125,1.2472422122955322,-2.9423060417175293,0.7029008865356445
1725892378419303000,8.540302978515625,-0.6582450866699219,-3.7929773330688477,-1.1953721046447754
1725892378438151400,8.5591513671875,-2.971691608428955,-4.485289096832275,-2.1257572174072266
1725892378457000000,8.578,-2.610658884048462,-5.256961822509766,0.49657487869262695
1725892378475848400,8.596848388671875,-1.8015778064727783,-4.194617748260498,-1.0091063976287842
1725892378494697000,8.615697021484374,-0.048494815826416016,-0.49623870849609375,0.2269730567932129
1725892378513545500,8.63454541015625,-0.29900312423706055,1.0586919784545898,0.13460731506347656
1725892378532394000,8.65339404296875,1.0647413730621338,0.2558565139770508,0.3251166343688965
1725892378551242500,8.672242431640624,0.8025422096252441,0.03623151779174805,-0.9741787910461426
1725892378570091000,8.691091064453126,0.1475076675415039,-0.5749983787536621,-0.7311348915100098
1725892378588939500,8.709939453125,0.2845268249511719,0.0921010971069336,-1.2005870342254639
1725892378607788000,8.7287880859375,-0.49772119522094727,-2.688389301300049,-1.4756641387939453
1725892378626636500,8.747636474609376,-2.4630308151245117,-4.412555694580078,-1.8621270656585693
1725892378645485000,8.766485107421875,-1.7837939262390137,-4.5569868087768555,1.1137804985046387
1725892378664333600,8.78533349609375,-1.4673128128051758,-3.83767032623291,-0.08853316307067871
1725892378683182000,8.80418212890625,-2.092987060546875,-4.819134712219238,-1.6300842761993408
1725892378702030600,8.823030517578125,-0.06736373901367188,-4.17545223236084,1.8946499824523926
1725892378720879400,8.84187939453125,1.4252967834472656,-1.2064604759216309,1.9053163528442383
1725892378739728000,8.860727783203124,1.865190029144287,3.540865421295166,1.7170681953430176
1725892378758576400,8.879576416015626,3.1160788536071777,-0.21576881408691406,-1.022266149520874
1725892378777424600,8.898424560546875,3.950117588043213,7.406657695770264,0.4624772071838379
1725892378796273400,8.9172734375,-0.38157224655151367,7.333856105804443,2.6022512912750244
1725892378815122000,8.936121826171876,-1.0664267539978027,1.3874545097351074,2.0647263526916504
1725892378833970400,8.954970458984375,-0.6399288177490234,-1.0030097961425781,2.082077980041504
1725892378852819000,8.97381884765625,-0.0830535888671875,-0.41847896575927734,1.184809923171997
1725892378871667500,8.99266748046875,0.05042409896850586,-0.04111623764038086,0.2194197177886963
1725892378890516000,9.011515869140625,0.6276593208312988,0.42800283432006836,-0.19700360298156738
1725892378909364500,9.030364501953125,1.0298833847045898,0.9524860382080078,0.7040753364562988
1725892378928213000,9.049212890625,0.29395484924316406,0.38251686096191406,0.7470581531524658
1725892378947061500,9.0680615234375,-0.3330202102661133,-0.718104362487793,1.0507586002349854
1725892378965910000,9.086909912109375,0.0635213851928711,-1.1358938217163086,1.6923017501831055
1725892378984758500,9.105758544921875,0.4724254608154297,-0.5427103042602539,1.4849090576171875
1725892379003607000,9.12460693359375,1.4418935775756836,0.1128072738647461,1.2676002979278564
1725892379022455600,9.14345556640625,2.2387022972106934,0.45814085006713867,-0.5156996250152588
1725892379041304000,9.162303955078125,1.3936848640441895,0.6389069557189941,-1.0001020431518555
1725892379060152600,9.181152587890624,0.6662673950195312,-0.6297745704650879,-0.5449182987213135
1725892379079001300,9.20000146484375,1.3366851806640625,-0.40575361251831055,-1.2454233169555664
1725892379097849900,9.218849853515625,0.5270442962646484,0.731346607208252,0.1604619026184082
1725892379116698400,9.237698486328124,1.2363734245300293,-0.7513008117675781,-1.001086950302124
1725892379135547000,9.256546875,-2.3829965591430664,-0.02034783363342285,-1.23793363571167
1725892379154395400,9.2753955078125,0.14327144622802734,-1.6797144412994385,2.0696661472320557
1725892379173244000,9.294243896484375,4.98748779296875,-3.5547056198120117,-2.2385268211364746
1725892379192092400,9.313092529296876,-1.6246862411499023,1.9257036447525024,-1.5594220161437988
1725892379210941000,9.33194091796875,2.997584819793701,-0.5380806922912598,0.5888464450836182
1725892379229789400,9.35078955078125,0.954780101776123,1.3915910720825195,-4.18463659286499
1725892379248638000,9.369637939453124,-2.566478729248047,0.7453811168670654,1.9656777381896973
1725892379267486500,9.388486572265625,3.56624698638916,-0.3715958595275879,0.3803977966308594
1725892379286335000,9.4073349609375,-1.678584098815918,-0.09039521217346191,-2.7493953704833984
1725892379305183500,9.42618359375,0.9121079444885254,0.11561131477355957,1.0848400592803955
1725892379324032000,9.445031982421876,2.1903247833251953,0.99666428565979,-2.791022539138794
1725892379342880500,9.463880615234375,0.4875679016113281,-0.49295568466186523,-2.386573314666748
1725892379361729000,9.48272900390625,2.274670124053955,0.4095900058746338,-0.943108081817627
1725892379380577800,9.501577880859376,3.1975364685058594,1.683495283126831,-1.2404677867889404
1725892379399426300,9.52042626953125,-0.1112203598022461,1.2332780361175537,-4.612128257751465
1725892379418274800,9.53927490234375,-0.20184707641601562,2.5466413497924805,-1.3371777534484863
1725892379437123300,9.558123291015624,2.5158634185791016,2.0462827682495117,0.9083676338195801
1725892379455971800,9.576971923828125,2.0660171508789062,-0.26468896865844727,-0.946134090423584
1725892379474820400,9.5958203125,0.06212472915649414,0.23420333862304688,-2.203914165496826
1725892379493668900,9.6146689453125,0.4249095916748047,1.7988996505737305,0.3298354148864746
1725892379512517400,9.633517333984376,1.5802044868469238,0.3021998405456543,0.45400238037109375
1725892379531366000,9.652365966796875,-2.661980152130127,0.16759967803955078,-2.0408990383148193
1725892379550214400,9.67121435546875,-0.1771245002746582,0.9586019515991211,0.30428647994995117
1725892379569063000,9.69006298828125,-0.7797865867614746,-0.4085063934326172,0.5921530723571777
1725892379587911400,9.708911376953125,-1.92649507522583,-1.4506020545959473,-1.790184497833252
1725892379606760200,9.72776025390625,-1.0349030494689941,-1.1766939163208008,0.9775714874267578
1725892379625608700,9.746608642578124,1.4214696884155273,-2.755791187286377,2.92911434173584
1725892379644457200,9.765457275390625,-2.714602470397949,-1.467775821685791,-1.234928846359253
1725892379663305700,9.7843056640625,-0.9579668045043945,0.6348748207092285,0.13189411163330078
1725892379682154200,9.803154296875,1.8362627029418945,0.23800992965698242,2.9009170532226562
1725892379701002800,9.822002685546876,-1.2563691139221191,-0.7624077796936035,1.30641508102417
1725892379719851300,9.840851318359375,-1.1746392250061035,-1.2473154067993164,0.36063051223754883
1725892379738699800,9.85969970703125,0.9224519729614258,-1.0989165306091309,1.5624678134918213
1725892379757548300,9.87854833984375,0.5926990509033203,-0.16942787170410156,1.8547325134277344
1725892379776396800,9.897396728515625,-0.7100930213928223,-0.46861696243286133,-0.6850969791412354
1725892379795245300,9.916245361328125,-0.1848740577697754,-1.031428337097168,0.24540472030639648
1725892379814093800,9.93509375,1.3266258239746094,-0.8820338249206543,1.0768766403198242
1725892379832942600,9.953942626953125,0.30425405502319336,-0.0067081451416015625,-1.3685295581817627
1725892379851791000,9.972791015625,-0.24660158157348633,0.015645980834960938,1.2684216499328613
1725892379870639600,9.9916396484375,-1.433305263519287,-0.9263601303100586,1.4743506908416748
1725892379889488100,10.010488037109376,-0.850161075592041,-1.541337013244629,1.8490333557128906
1725892379908336600,10.029336669921875,-1.121363639831543,-1.654770851135254,1.4599127769470215
1725892379927185200,10.04818505859375,-1.614450454711914,-1.102961540222168,0.08881688117980957
1725892379946033700,10.06703369140625,-0.4564967155456543,-1.1597585678100586,2.9786243438720703
1725892379964882200,10.085882080078125,-1.2003707885742188,-1.8734774589538574,0.6957788467407227
1725892379983730700,10.104730712890625,-0.10215330123901367,-2.0969247817993164,-0.4367859363555908
1725892380002579200,10.1235791015625,0.8933138847351074,-0.8341822624206543,0.7568674087524414
1725892380021427700,10.142427734375,1.4000535011291504,-1.9253673553466797,-0.33254289627075195
1725892380040276200,10.161276123046875,0.9243664741516113,-0.8758158683776855,-0.36380553245544434
1725892380059139000,10.18013916015625,1.405900001525879,-0.3848128318786621,1.8831281661987305
1725892380077973500,10.198973388671876,0.6782469749450684,-0.7509031295776367,-0.7725992202758789
1725892380096822300,10.217822265625,0.9558634757995605,0.24956178665161133,-0.3311276435852051
1725892380115670500,10.23667041015625,0.6986913681030273,0.8872475624084473,1.6118183135986328
1725892380134519000,10.25551904296875,-0.8835353851318359,0.47137928009033203,0.11928462982177734
1725892380153367600,10.274367431640625,-0.8155031204223633,-0.9503860473632812,3.698582649230957
1725892380172216000,10.293216064453125,-0.715057373046875,-0.8044042587280273,2.3038275241851807
1725892380191064600,10.312064697265624,-0.5650115013122559,0.7946891784667969,0.06465578079223633
1725892380209913000,10.3309130859375,1.0657157897949219,2.5490269660949707,0.9482166767120361
1725892380228761600,10.34976171875,2.590749502182007,1.9667210578918457,0.46326565742492676
1725892380247610000,10.368610107421874,2.209413528442383,1.2111778259277344,-0.882685661315918
1725892380266458600,10.387458740234376,-0.45273447036743164,0.3227114677429199,-0.01867055892944336
1725892380285307100,10.40630712890625,-0.44215869903564453,-0.5517520904541016,1.195551872253418
1725892380304156000,10.425156005859375,0.2905263900756836,-0.9926252365112305,2.418877601623535
1725892380323004400,10.44400439453125,-0.6117415428161621,-2.0845727920532227,-0.24584627151489258
1725892380341853000,10.46285302734375,-0.32599925994873047,-1.6289386749267578,0.05895256996154785
1725892380360701400,10.481701416015625,0.6299829483032227,-0.8633584976196289,2.381267547607422
1725892380379550000,10.500550048828124,0.020348072052001953,-1.4024925231933594,0.9752829074859619
1725892380398398500,10.5193984375,-0.17212867736816406,-0.5444507598876953,0.5424129962921143
1725892380417247000,10.5382470703125,-0.7736668586730957,-0.9708685874938965,1.4833450317382812
1725892380436095500,10.557095458984374,-0.03696298599243164,-1.7142763137817383,2.1161506175994873
1725892380454944300,10.5759443359375,-0.07782793045043945,-1.1912322044372559,2.5100510120391846
1725892380473792800,10.594792724609375,1.8662066459655762,-1.7600831985473633,1.762017011642456
1725892380492641300,10.613641357421875,3.0905561447143555,0.4891829490661621,0.14697861671447754
1725892380511489500,10.632489501953126,2.995990753173828,0.33319520950317383,-1.4530770778656006
1725892380530338300,10.65133837890625,2.164027214050293,1.034050703048706,-2.218109130859375
1725892380549186800,10.670186767578125,1.0238795280456543,0.24311304092407227,-1.2294477224349976
1725892380568035300,10.689035400390624,2.940619468688965,-2.474278450012207,-1.5560611486434937
1725892380586883800,10.7078837890625,2.080367088317871,-0.37224340438842773,-0.6995614767074585
1725892380605732400,10.726732421875,2.455033302307129,-2.063556671142578,-2.662689447402954
1725892380624580900,10.745580810546874,-1.8370676040649414,0.6886823177337646,-1.6870291233062744
1725892380643429400,10.764429443359376,-0.3000478744506836,-1.3103079795837402,1.1228458881378174
1725892380662278000,10.78327783203125,0.5623502731323242,1.1029324531555176,0.43706822395324707
1725892380681126700,10.802126708984375,-0.07095050811767578,0.378314733505249,2.3521876335144043
1725892380699975200,10.82097509765625,3.8723220825195312,-0.32105088233947754,-0.692774772644043
1725892380718823700,10.83982373046875,-1.540426254272461,2.5803422927856445,-0.746330738067627
1725892380737672200,10.858672119140625,0.7100000381469727,1.9761964082717896,0.532928466796875
1725892380756520700,10.877520751953124,0.9010515213012695,2.073415756225586,0.5452184677124023
1725892380775369200,10.896369140625,0.6741905212402344,-0.05363178253173828,0.6615173816680908
1725892380794217700,10.9152177734375,1.7929744720458984,-1.0420904159545898,-1.0366666316986084
1725892380813066200,10.934066162109374,1.7397184371948242,0.8130025863647461,-0.32848620414733887
1725892380831914800,10.952914794921876,2.3733129501342773,0.3602578639984131,-1.7463836669921875
1725892380850763500,10.971763427734375,1.3103618621826172,2.0693633556365967,-1.7725491523742676
1725892380869611800,10.99061181640625,2.5438766479492188,2.3941612243652344,-1.562317132949829
1725892380888460300,11.009460205078126,-0.6038236618041992,2.148550510406494,-3.6009950637817383
1725892380907308800,11.028308837890625,1.0598535537719727,2.377854585647583,-0.8048460483551025
1725892380926157600,11.047157470703125,3.286874294281006,0.996070384979248,1.6967313289642334
1725892380945006000,11.066006103515624,1.2608346939086914,-0.37444162368774414,1.0327982902526855
1725892380963854600,11.0848544921875,-1.6417317390441895,-0.23346757888793945,-0.386380672454834
1725892380982703000,11.103703125,1.3486557006835938,-0.9867124557495117,1.6507439613342285
1725892381001551600,11.122551513671874,1.3704700469970703,-1.6498494148254395,0.20160770416259766
1725892381020400000,11.141400146484376,-0.7790274620056152,-1.4257087707519531,-0.17773008346557617
1725892381039248600,11.16024853515625,1.4463310241699219,-0.7399411201477051,-0.6393623352050781
1725892381058097200,11.17909716796875,-1.5996317863464355,1.1087698936462402,-1.235142707824707
1725892381076946000,11.19794580078125,0.781801700592041,-0.07754659652709961,-0.05532503128051758
1725892381095794400,11.21679443359375,0.12568378448486328,-1.8879189491271973,0.6611542701721191
1725892381114643000,11.235642822265625,-0.45559167861938477,-3.290915012359619,1.0126667022705078
1725892381133491500,11.254491455078124,0.37982749938964844,-1.7861099243164062,1.8644301891326904
1725892381152340000,11.273340087890626,-0.5753650665283203,-0.3341403007507324,0.6136553287506104
1725892381171188500,11.2921884765625,-0.4399285316467285,-1.214005470275879,0.22057795524597168
1725892381190037000,11.311037109375,-0.5555453300476074,-2.1150460243225098,1.6570675373077393
1725892381208885500,11.329885498046876,-0.10911321640014648,-0.18851804733276367,2.17582106590271
1725892381227734000,11.348734130859375,-1.1496872901916504,-1.0928544998168945,0.2508687973022461
1725892381246582800,11.367582763671875,-2.156139373779297,-3.650160789489746,1.3087036609649658
1725892381265431300,11.386431396484374,-1.9163775444030762,-5.7161102294921875,1.8067500591278076
1725892381284279800,11.40527978515625,-0.5017309188842773,-0.8838586807250977,0.2285170555114746
1725892381303128300,11.42412841796875,0.2630138397216797,-0.056204795837402344,-0.3548753261566162
1725892381321976800,11.442976806640624,0.1599893569946289,0.20043373107910156,-1.4673943519592285
1725892381340825300,11.461825439453126,0.8264350891113281,-0.7276144027709961,0.2942321300506592
1725892381359673900,11.480673828125,1.0792808532714844,-1.0413599014282227,0.7800359725952148
1725892381378522400,11.4995224609375,0.09542560577392578,-0.4664268493652344,-2.230100154876709
1725892381397371000,11.518370849609376,0.688880443572998,0.5465116500854492,-1.1051714420318604
1725892381416219400,11.537219482421875,0.9595780372619629,0.4872903823852539,-1.1957905292510986
1725892381435068000,11.55606787109375,0.7963900566101074,-1.1938843727111816,1.6395325660705566
1725892381453916400,11.57491650390625,-1.0709800720214844,-1.709467887878418,-0.44773077964782715
1725892381472765200,11.59376513671875,-0.7149200439453125,-1.5950665473937988,-1.417742371559143
1725892381491613700,11.61261376953125,-0.9634737968444824,-1.66255521774292,-0.38163256645202637
1725892381510462200,11.631462158203124,-0.21344470977783203,-1.9118719100952148,1.0857043266296387
1725892381529310700,11.650310791015626,-0.31513023376464844,-1.094954013824463,-0.9520912170410156
1725892381548159200,11.6691591796875,-0.2967185974121094,-0.026757240295410156,-0.7139098644256592
1725892381567007700,11.6880078125,0.3573331832885742,-0.032253265380859375,1.5376574993133545
1725892381585856300,11.706856201171876,0.16631364822387695,0.007909297943115234,2.9133899211883545
1725892381604704800,11.725704833984375,-0.25452566146850586,-0.37697362899780273,1.7003378868103027
1725892381623553300,11.74455322265625,-0.8521027565002441,0.8745017051696777,0.12089037895202637
1725892381642402000,11.763402099609374,0.45473623275756836,2.184192657470703,1.2330374717712402
1725892381661250600,11.78225048828125,0.6858220100402832,1.9599666595458984,1.6111831665039062
1725892381680099000,11.80109912109375,0.49241161346435547,1.3497209548950195,1.5340938568115234
1725892381698947600,11.819947509765624,0.2418651580810547,0.05961418151855469,0.9554641246795654
1725892381717796000,11.838796142578126,0.5903444290161133,0.4262099266052246,1.4617867469787598
1725892381736644600,11.85764453125,0.9083333015441895,0.8375949859619141,0.7273633480072021
1725892381755493000,11.8764931640625,0.19423246383666992,1.409475326538086,-0.6845400333404541
1725892381774341600,11.895341552734376,-0.18740081787109375,-0.4465165138244629,0.8103413581848145
1725892381793190100,11.914190185546875,-0.11557388305664062,-2.284026622772217,1.878157377243042
1725892381812038700,11.93303857421875,0.8148236274719238,-1.8714308738708496,1.0091030597686768
1725892381830887200,11.95188720703125,-0.30686378479003906,-0.999814510345459,0.7109372615814209
1725892381849735700,11.970735595703125,-1.599832534790039,-2.213115692138672,1.2158162593841553
1725892381868584400,11.98958447265625,0.771641731262207,-2.6328587532043457,1.7260639667510986
1725892381887433000,12.008432861328124,3.275394916534424,-1.5245871543884277,1.0819895267486572
1725892381906281500,12.027281494140626,1.744828701019287,0.7273807525634766,-1.3042821884155273
1725892381925130000,12.0461298828125,0.9569082260131836,1.2186520099639893,-1.5288467407226562
1725892381943978500,12.064978515625,2.4392614364624023,0.22601938247680664,-1.376068353652954
1725892381962827000,12.083826904296876,2.1101865768432617,-0.1580801010131836,-1.2754747867584229
1725892381981675500,12.102675537109375,0.4947538375854492,1.4574482440948486,-1.7759922742843628
1725892382000524000,12.12152392578125,1.1663541793823242,0.41338109970092773,-0.13655829429626465
1725892382019372800,12.140372802734374,1.6788959503173828,-1.4079327583312988,0.14471018314361572
1725892382038221300,12.15922119140625,-0.07008934020996094,0.2832326889038086,-0.5238580703735352
1725892382057069800,12.17806982421875,1.2111244201660156,0.06413388252258301,0.7810001373291016
1725892382075918300,12.19691845703125,1.2411203384399414,0.25086426734924316,-0.3464546203613281
1725892382094766800,12.215766845703126,1.1296777725219727,0.013941287994384766,-1.206721544265747
1725892382113615400,12.234615478515625,-1.1200695037841797,1.4484834671020508,-1.7551891803741455
1725892382132463900,12.2534638671875,1.6683311462402344,-0.4201240539550781,1.767066240310669
1725892382151312400,12.2723125,2.2528953552246094,0.27796149253845215,-2.146186351776123
1725892382170161000,12.291160888671875,-0.007290840148925781,1.0860286951065063,-0.5099968910217285
1725892382189009400,12.310009521484375,3.232419967651367,1.1041958332061768,-0.03310036659240723
1725892382207858000,12.32885791015625,0.5793390274047852,1.9805669784545898,-1.0826119184494019
1725892382226706400,12.34770654296875,2.3271450996398926,1.3226478099822998,-1.1038320064544678
1725892382245555200,12.36655517578125,2.3435873985290527,1.8330714702606201,-1.9694194793701172
1725892382264403700,12.38540380859375,1.5346755981445312,3.0658798217773438,-1.8835537433624268
1725892382283252200,12.404252197265626,1.0225028991699219,3.0747408866882324,-1.4096317291259766
1725892382302100700,12.423100830078125,1.7582383155822754,0.7751584053039551,-1.1907830238342285
1725892382320949200,12.44194921875,2.610049247741699,0.6351966857910156,0.09151124954223633
1725892382339797800,12.4607978515625,-0.3381505012512207,-1.3588924407958984,-0.8255958557128906
1725892382358646300,12.479646240234375,-0.894554615020752,-1.478172779083252,-0.7241237163543701
1725892382377494800,12.498494873046875,-0.6206927299499512,-1.3426218032836914,0.5513358116149902
1725892382396343300,12.51734326171875,-1.2557868957519531,-1.1672048568725586,0.3888664245605469
1725892382415192000,12.536192138671876,-0.9612360000610352,-1.4146080017089844,1.034008502960205
1725892382434040600,12.55504052734375,0.7431092262268066,-1.664182186126709,0.40846920013427734
1725892382452888800,12.573888916015624,-1.0688152313232422,-1.4032535552978516,0.004868507385253906
1725892382471737300,12.5927373046875,-0.2111959457397461,-2.378368854522705,1.6342740058898926
1725892382490586000,12.611586181640625,0.8512096405029297,-2.450827121734619,0.9723458290100098
1725892382509434600,12.6304345703125,-0.8997268676757812,-1.1914453506469727,0.11634564399719238
1725892382528283100,12.649283203125,0.07682561874389648,-0.7736234664916992,-0.024845600128173828
1725892382547131600,12.668131591796875,0.2549924850463867,-0.770667552947998,1.2353723049163818
1725892382565980200,12.686980224609375,-0.8392319679260254,-0.089385986328125,0.1651749610900879
1725892382584828700,12.70582861328125,-0.32982683181762695,1.0387940406799316,1.1288952827453613
1725892382603677200,12.72467724609375,-0.3963785171508789,0.12868976593017578,-0.46243882179260254
1725892382622525700,12.743525634765625,-1.2498602867126465,-1.6160449981689453,0.3299109935760498
1725892382641374500,12.76237451171875,-2.5496749877929688,-3.0582704544067383,0.22273898124694824
1725892382660223000,12.781222900390626,-2.6875834465026855,-3.850889205932617,1.7949869632720947
1725892382679071500,12.800071533203125,-2.5659079551696777,-5.641969680786133,1.6511390209197998
1725892382697919700,12.818919677734375,-2.057575225830078,-2.6738061904907227,-0.8258810043334961
1725892382716768500,12.8377685546875,0.19774484634399414,-0.36346435546875,0.08021926879882812
1725892382735617000,12.856616943359375,0.8403995037078857,-1.2303333282470703,-2.1773123741149902
1725892382754465500,12.875465576171875,1.0815811157226562,-1.938385009765625,-0.6665112972259521
1725892382773314000,12.89431396484375,0.43953657150268555,-1.3224749565124512,-0.748358964920044
1725892382792162600,12.91316259765625,0.23411083221435547,0.3677067756652832,-1.2618858814239502
1725892382811011000,12.932010986328125,0.5038819313049316,-0.15968656539916992,-1.543440341949463
1725892382829859600,12.950859619140624,0.43488073348999023,0.1797962188720703,-1.3685266971588135
1725892382848708000,12.9697080078125,0.5577597618103027,-1.177670955657959,0.12229728698730469
1725892382867556900,12.988556884765625,-0.9323902130126953,-1.1370491981506348,0.7047877311706543
1725892382886405400,13.0074052734375,-1.3536639213562012,-0.772580623626709,1.3442771434783936
1725892382905257200,13.02625732421875,-0.8701210021972656,0.8688464164733887,1.0510363578796387
1725892382924102400,13.045102294921875,1.397444248199463,1.5350446701049805,2.081655740737915
1725892382942951000,13.063950927734375,1.8898935317993164,2.176055431365967,1.1003575325012207
1725892382961799400,13.08279931640625,0.6712160110473633,1.3550658226013184,0.3512382507324219
1725892382980648000,13.10164794921875,-0.5034599304199219,1.0060219764709473,0.89365553855896
1725892382999496400,13.120496337890625,-0.5198888778686523,0.7922639846801758,0.15507721900939941
1725892383018345000,13.139344970703124,-0.6853961944580078,0.46633243560791016,0.9837477207183838
1725892383037193500,13.158193359375,-0.9955682754516602,-0.5404772758483887,0.3453810214996338
1725892383056042000,13.1770419921875,-1.3079795837402344,-0.9714789390563965,0.6855208873748779
1725892383074890500,13.195890380859375,-1.2958130836486816,-1.4318933486938477,1.729835033416748
1725892383093739000,13.214739013671876,-0.16200828552246094,-1.5174880027770996,1.3327715396881104
1725892383112587800,13.233587890625,1.636993408203125,-0.8907194137573242,-0.1044609546661377
1725892383131436300,13.252436279296875,1.047494888305664,-0.09854698181152344,-0.5280523300170898
1725892383150284500,13.271284423828124,-0.7608652114868164,0.028568744659423828,-0.5360662937164307
1725892383169133300,13.29013330078125,-1.2878241539001465,-1.7443490028381348,0.964867115020752
1725892383187981800,13.30898193359375,1.5653624534606934,-3.6142945289611816,0.3812441825866699
1725892383206830300,13.327830322265624,2.0124497413635254,-1.59952974319458,-0.5569593906402588
1725892383225678800,13.346678955078126,2.4660491943359375,-0.9488997459411621,-0.5758810043334961
1725892383244527400,13.36552734375,2.743313789367676,0.5342216491699219,-1.8478858470916748
1725892383263376000,13.3843759765625,0.471588134765625,1.199911117553711,-2.4718194007873535
1725892383282224400,13.403224365234376,0.020185470581054688,-1.344637155532837,-1.4873175621032715
1725892383301073000,13.422072998046875,0.019632339477539062,-0.5097246170043945,-1.735601544380188
1725892383319921400,13.44092138671875,1.1950860023498535,1.4318289756774902,0.436352014541626
1725892383338770000,13.45977001953125,0.7890386581420898,0.268491268157959,-1.7963614463806152
1725892383357618400,13.478618408203126,-2.696822166442871,-0.43921732902526855,-2.402956962585449
1725892383376467000,13.497467041015625,2.4655985832214355,-1.382251262664795,2.426435708999634
1725892383395315700,13.516315673828124,3.4645094871520996,0.27652931213378906,-1.8099969625473022
1725892383414164200,13.535164306640626,-1.3077125549316406,-0.30231285095214844,-0.9701695442199707
1725892383433012700,13.5540126953125,3.0292177200317383,1.2209186553955078,0.13989925384521484
1725892383451861000,13.572861083984375,1.8213438987731934,2.3209879398345947,-1.4638868570327759
1725892383470709800,13.591709716796874,3.5219368934631348,2.188122510910034,-1.2166438102722168
1725892383489558300,13.610558349609375,-0.6978254318237305,1.1552965641021729,-4.177200794219971
1725892383508406800,13.62940673828125,2.1679491996765137,0.7149999141693115,-1.0609958171844482
1725892383527255300,13.64825537109375,2.4374804496765137,0.8972256183624268,-0.13473868370056152
1725892383546103800,13.667103759765626,1.4031834602355957,0.405536413192749,-2.2916812896728516
1725892383564952300,13.685952392578125,-1.0028414726257324,0.7682020664215088,-4.244861125946045
1725892383583800800,13.70480078125,-0.5757884979248047,1.0846316814422607,-2.4666366577148438
1725892383602649300,13.7236494140625,-1.5042877197265625,1.7168121337890625,-0.6500625610351562
1725892383621497900,13.742497802734375,1.4280486106872559,-0.48812437057495117,1.4147229194641113
1725892383640346400,13.761346435546875,0.36548519134521484,-0.2532958984375,-1.281484603881836
1725892383659195000,13.78019482421875,1.2723393440246582,0.8106107711791992,-0.12568044662475586
1725892383678043400,13.79904345703125,-0.49005746841430664,2.303265333175659,-3.020549774169922
1725892383696892200,13.81789208984375,-1.7728958129882812,3.2958054542541504,-5.8727922439575195
1725892383715740700,13.83674072265625,0.2122344970703125,1.4377284049987793,-2.5169248580932617
1725892383734589000,13.8555888671875,0.2881178855895996,-3.4739394187927246,2.0698914527893066
1725892383753437700,13.874437744140625,-1.0631418228149414,-6.497184753417969,1.5027899742126465
1725892383772286200,13.8932861328125,-1.6100687980651855,-2.492258071899414,0.907660961151123
1725892383791134700,13.912134765625,3.015255928039551,-0.19392108917236328,1.5924525260925293
1725892383809983200,13.930983154296875,-0.517646312713623,1.6156296730041504,0.33803319931030273
1725892383828831700,13.949831787109375,-2.253355026245117,1.7130622863769531,0.36490869522094727
1725892383847680300,13.96868017578125,0.11658668518066406,-2.4794421195983887,-0.4258291721343994
1725892383866528800,13.98752880859375,0.1225590705871582,-4.248061656951904,0.5620121955871582
1725892383885377300,14.006377197265625,0.09662675857543945,-1.6884145736694336,-1.0856103897094727
1725892383904225800,14.025225830078124,-0.9041550159454346,0.26639461517333984,-0.27277636528015137
1725892383923074300,14.04407421875,-0.5337107181549072,-2.5957937240600586,0.5831549167633057
1725892383941922800,14.0629228515625,-3.105116605758667,-3.767862319946289,0.2993052005767822
1725892383960771300,14.081771240234374,-1.2011799812316895,-3.3375463485717773,2.270878553390503
1725892383979619800,14.100619873046876,-1.4067614078521729,-0.8280839920043945,0.271198034286499
1725892383998468400,14.11946826171875,-0.8797194957733154,-0.1653738021850586,-0.8133399486541748
1725892384017316900,14.13831689453125,0.04414868354797363,0.5321741104125977,-1.7801949977874756
1725892384036165400,14.157165283203126,0.7311031818389893,-1.1838417053222656,-0.4473600387573242
1725892384055014100,14.17601416015625,-0.4693026542663574,-1.822443962097168,0.42054319381713867
1725892384073862700,14.194862548828125,-2.3666772842407227,-1.9360313415527344,-0.6414787769317627
1725892384092711000,14.2137109375,-1.6950039863586426,-1.1000146865844727,-0.8270144462585449
1725892384111559400,14.232559326171875,0.9764981269836426,-0.3694915771484375,-1.8076750040054321
1725892384130408200,14.251408203125,1.8744995594024658,0.8293914794921875,-2.3758974075317383
1725892384149256700,14.270256591796874,1.35487699508667,1.2398171424865723,-0.2946646213531494
1725892384168105200,14.289105224609376,0.15315771102905273,-0.25852203369140625,0.8460266590118408
1725892384186953700,14.30795361328125,-1.4688515663146973,-1.5886149406433105,-0.424083948135376
1725892384205802200,14.32680224609375,-1.4394140243530273,-1.8102340698242188,1.0189528465270996
1725892384224650800,14.345650634765626,-1.7164793014526367,-1.1300773620605469,0.12450456619262695
1725892384243499300,14.364499267578125,-1.2269129753112793,-0.6260018348693848,2.029254913330078
1725892384262347800,14.38334765625,-1.195340633392334,-0.5213742256164551,2.3978779315948486
1725892384281211600,14.402211669921876,-1.078752040863037,0.3396286964416504,2.4981563091278076
1725892384300044800,14.421044921875,-0.29397153854370117,1.41355562210083,0.30219078063964844
1725892384318893300,14.439893310546875,0.6266207695007324,2.0765938758850098,-0.4637317657470703
1725892384337741800,14.458741943359374,-0.08750104904174805,0.44453859329223633,-0.1845390796661377
1725892384356590300,14.47759033203125,-0.8285164833068848,-0.9874296188354492,-0.3256809711456299
1725892384375438800,14.49643896484375,-1.1391749382019043,-1.4643139839172363,1.8653016090393066
1725892384394287400,14.515287353515625,-0.04542875289916992,-1.5500354766845703,2.127681255340576
1725892384413136000,14.534135986328126,1.6303906440734863,-0.36661624908447266,-1.595463752746582
1725892384431984400,14.552984375,0.6624140739440918,0.2673764228820801,-1.8842732906341553
1725892384450833000,14.5718330078125,0.6068253517150879,-0.7556862831115723,-0.14547228813171387
1725892384469681400,14.590681396484374,2.0524444580078125,-0.11679983139038086,-0.19275951385498047
1725892384488530200,14.6095302734375,0.38320350646972656,0.04690885543823242,-1.9856929779052734
1725892384507378700,14.628378662109375,-1.752061367034912,0.294283390045166,-1.1942083835601807
1725892384526227000,14.64722705078125,0.3048362731933594,-2.729740619659424,1.0723974704742432
1725892384545075700,14.66607568359375,1.561398983001709,-3.985955238342285,-0.34528613090515137
1725892384563924200,14.68492431640625,-2.4803590774536133,-1.248046875,0.5178370475769043
1725892384582772700,14.703772705078125,0.933046817779541,-2.4933314323425293,0.7508180141448975
1725892384601621000,14.72262109375,3.1624937057495117,1.9486024379730225,-0.5939209461212158
1725892384620469800,14.7414697265625,3.3551416397094727,2.932607889175415,-0.5880930423736572
1725892384639318300,14.760318359375,3.4449996948242188,1.4745728969573975,-2.6607301235198975
1725892384658166800,14.779166748046874,-0.9109163284301758,2.378730297088623,-2.3317716121673584
1725892384677015300,14.798015380859376,0.5081386566162109,-0.12455034255981445,-0.6491703987121582
1725892384695863800,14.81686376953125,1.338994026184082,-1.888780117034912,-0.24069666862487793
1725892384714712300,14.83571240234375,-1.5483894348144531,-2.43624210357666,-1.1343826055526733
1725892384733560800,14.854560791015626,1.2046866416931152,-0.33977484703063965,0.17476940155029297
1725892384752409300,14.873409423828125,2.1726150512695312,-0.8827178478240967,-1.2132408618927002
1725892384771257900,14.8922578125,-0.30115413665771484,-0.19785547256469727,-1.8179529905319214
1725892384790106400,14.9111064453125,2.020172595977783,1.5946393013000488,0.07284855842590332
1725892384808955000,14.929954833984375,1.8647003173828125,2.036155939102173,-2.4392995834350586
1725892384827803400,14.948803466796875,-0.051850318908691406,1.4737862348556519,-1.7336138486862183
1725892384846652000,14.96765185546875,3.202068328857422,3.4679689407348633,0.4099082946777344
1725892384865500200,14.986500244140625,-0.9305315017700195,3.4813129901885986,-2.0996878147125244
1725892384884348700,15.0053486328125,-2.331117630004883,-0.6224527359008789,-0.3119657039642334
1725892384903197400,15.024197509765624,1.943972110748291,-3.6614410877227783,2.8244221210479736
1725892384922046000,15.0430458984375,4.395398139953613,-1.4675545692443848,1.3503386974334717
1725892384940894200,15.061894287109375,2.0251998901367188,0.14478731155395508,-1.1191797256469727
1725892384959743000,15.080742919921875,3.48526668548584,1.354546070098877,-4.375814914703369
1725892384978591500,15.099591552734376,0.9697060585021973,3.868933916091919,-5.46586799621582
1725892384997440000,15.11843994140625,3.1053359508514404,5.603087902069092,-3.532968282699585
1725892385016288300,15.137288330078125,-2.5380234718322754,5.619664669036865,-5.209635257720947
1725892385035137000,15.156136962890624,-1.5747990608215332,5.079440593719482,-2.0128941535949707
1725892385053985500,15.174985595703125,0.18926048278808594,0.1550884246826172,3.5805087089538574
1725892385072834000,15.193833984375,-2.0973968505859375,-5.624407768249512,3.081638813018799
1725892385091682600,15.2126826171875,-3.4246883392333984,-6.867990493774414,3.486489772796631
1725892385110531000,15.231531005859376,0.9745426177978516,-6.46143913269043,4.326924800872803
1725892385129379600,15.250379638671875,-2.128441333770752,-2.9152708053588867,2.7582597732543945
1725892385148228000,15.26922802734375,-1.4172921180725098,-2.116727352142334,2.415586471557617
1725892385167076600,15.28807666015625,1.801640272140503,-0.7725505828857422,1.2059099674224854
1725892385185925000,15.306925048828125,0.7643642425537109,-0.4791984558105469,-1.6202056407928467
1725892385204773600,15.325773681640625,0.30467987060546875,0.5215792655944824,-2.187603712081909
1725892385223622100,15.3446220703125,0.1704874038696289,-0.44812822341918945,0.44963836669921875
1725892385242470700,15.363470703125,-0.07636547088623047,-4.069563388824463,0.8888130187988281
1725892385261319200,15.382319091796875,-0.720794677734375,-3.627256393432617,1.0366268157958984
1725892385280167700,15.401167724609374,0.16556501388549805,0.04260540008544922,-0.6156425476074219
1725892385299016200,15.42001611328125,0.12134075164794922,0.7123069763183594,-1.621295690536499
1725892385317864700,15.43886474609375,0.05372476577758789,0.4980435371398926,-0.3972620964050293
1725892385336713200,15.457713134765624,-1.324742317199707,1.3004188537597656,-1.4510884284973145
1725892385355561700,15.476561767578126,0.3474116325378418,2.2078800201416016,1.3876433372497559
1725892385374410200,15.49541015625,-0.07732343673706055,0.10715103149414062,-0.5556318759918213
1725892385393258800,15.5142587890625,-1.0549025535583496,-1.0652618408203125,0.6797983646392822
1725892385412107300,15.533107177734376,-0.37325477600097656,-2.656087875366211,0.9272589683532715
1725892385430955800,15.551955810546875,-0.8762946128845215,-0.5864772796630859,1.6323087215423584
1725892385449804300,15.57080419921875,0.06895017623901367,-1.2661828994750977,1.3878614902496338
1725892385468652800,15.58965283203125,0.06018543243408203,-1.6814651489257812,-0.9044291973114014
1725892385487501300,15.608501220703126,0.6413607597351074,-0.9986910820007324,-0.46525049209594727
1725892385506349800,15.627349853515625,0.04933595657348633,0.0435938835144043,-0.8168768882751465
1725892385525198300,15.6461982421875,-0.6552810668945312,-1.1114373207092285,0.7092978954315186
1725892385544046800,15.665046875,-1.5122246742248535,-3.4004335403442383,1.9786674976348877
1725892385562895400,15.683895263671875,-2.100452423095703,-3.802356719970703,0.05882835388183594
1725892385581743900,15.702743896484375,-1.3157830238342285,-1.3655171394348145,0.8366587162017822
1725892385600592400,15.72159228515625,0.37604475021362305,-0.7590742111206055,0.40030694007873535
1725892385619441000,15.74044091796875,2.516411781311035,0.35660743713378906,-1.138901710510254
1725892385638289400,15.759289306640625,3.4029600620269775,1.811427116394043,-0.15753483772277832
1725892385657138000,15.778137939453124,2.173403739929199,1.5542116165161133,-0.3052558898925781
1725892385675986400,15.796986328125,1.8407654762268066,1.8251757621765137,-1.3670814037322998
1725892385694835000,15.8158349609375,1.799924373626709,1.5254755020141602,-0.9177770614624023
1725892385713683500,15.834683349609374,0.3538546562194824,1.2835578918457031,-0.454404354095459
1725892385732532000,15.853531982421876,-1.5488038063049316,0.08961343765258789,1.892601490020752
1725892385751380500,15.87238037109375,-2.5603551864624023,0.06850147247314453,5.094520568847656
1725892385770229000,15.89122900390625,-1.0866026878356934,-0.6463260650634766,3.143792152404785
1725892385789077500,15.910077392578126,0.5483236312866211,1.6948485374450684,1.8736441135406494
1725892385807926000,15.928926025390625,1.0408387184143066,1.7749652862548828,0.778954029083252
1725892385826774500,15.9477744140625,-0.17973756790161133,0.7733941078186035,-0.21621108055114746
1725892385845623000,15.966623046875,-1.518568992614746,-1.0566906929016113,0.8649575710296631
1725892385864471600,15.985471435546875,-0.2284083366394043,-3.792219638824463,0.9234719276428223
1725892385883320000,16.004320068359377,-0.21780681610107422,-1.3950610160827637,-1.2811886072158813
1725892385902168600,16.02316845703125,0.5820331573486328,-1.3429346084594727,-0.3298170566558838
1725892385921017000,16.04201708984375,3.7535457611083984,-2.9382143020629883,0.6554529666900635
1725892385939865600,16.060865478515623,3.2853221893310547,0.12073850631713867,-0.38775134086608887
1725892385958714000,16.079714111328126,1.2052278518676758,0.27878427505493164,-0.2297217845916748
1725892385977562600,16.098562744140626,0.608243465423584,-0.48480653762817383,-2.1559979915618896
1725892385996411100,16.1174111328125,0.1571674346923828,-0.5356392860412598,-0.8991410732269287
1725892386015259600,16.136259765625,3.291867256164551,-1.3673005104064941,0.8826801776885986
1725892386034108200,16.155108154296876,0.19419574737548828,1.4717180728912354,-1.7046929597854614
1725892386052956700,16.173956787109375,-1.5545387268066406,0.3823120594024658,-0.8733830451965332
1725892386071805000,16.192804931640627,0.39892101287841797,-1.4063646793365479,-0.06799840927124023
1725892386090653700,16.21165380859375,-0.02414226531982422,0.4179410934448242,0.4315605163574219
1725892386109502200,16.230502197265626,0.04167461395263672,0.1808176040649414,-0.49879002571105957
1725892386128350500,16.2493505859375,1.3910722732543945,1.2450635433197021,-1.4306695461273193
1725892386147199200,16.26819921875,0.012902259826660156,1.4551364183425903,0.0684199333190918
1725892386166047700,16.2870478515625,3.201143264770508,-0.09221982955932617,-0.8442814350128174
1725892386184896000,16.30589599609375,0.8051891326904297,1.3962092399597168,-1.281821608543396
1725892386203744500,16.32474462890625,2.22902774810791,-0.055571794509887695,-1.206563949584961
1725892386222593300,16.34359326171875,0.5366878509521484,1.9896186590194702,-2.2353875637054443
1725892386241441500,16.362441650390625,0.8589277267456055,0.4612138271331787,1.8161611557006836
1725892386260290000,16.3812900390625,3.6957473754882812,0.5106019973754883,-0.9995119571685791
1725892386279138600,16.400138671875,0.7002310752868652,1.6590158939361572,-1.111443042755127
1725892386297987000,16.418987060546876,0.25321149826049805,1.5179531574249268,-3.2061800956726074
1725892386316835600,16.437835693359375,-2.1998157501220703,3.8114607334136963,-2.2723824977874756
1725892386335684000,16.45668408203125,4.001474380493164,1.2147045135498047,2.4126038551330566
1725892386354532600,16.47553271484375,0.8760924339294434,-0.6093807220458984,-1.5739266872406006
1725892386373381000,16.494381103515625,-1.3209562301635742,0.04385709762573242,-0.42308664321899414
1725892386392229600,16.513229736328125,0.6334567070007324,0.37636518478393555,0.7658042907714844
1725892386411078100,16.532078125,-2.6521997451782227,0.7558107376098633,-0.33304309844970703
1725892386429926700,16.5509267578125,0.5196800231933594,-1.8999648094177246,0.7997236251831055
1725892386448775200,16.569775146484375,0.29144859313964844,-2.004058837890625,-0.4551730155944824
1725892386467623700,16.588623779296874,-1.7149386405944824,-1.1257853507995605,-0.13846778869628906
1725892386486472200,16.60747216796875,0.37968969345092773,-0.2514076232910156,-0.13241052627563477
1725892386505320700,16.62632080078125,-0.42815494537353516,-0.4819464683532715,-0.44437074661254883
1725892386524169200,16.645169189453124,0.6165733337402344,-1.1053199768066406,-0.5362699031829834
1725892386543017700,16.664017822265624,-1.277780532836914,-1.1730871200561523,0.14117026329040527
1725892386561866200,16.6828662109375,0.39177560806274414,-1.8294997215270996,1.418870210647583
1725892386580714800,16.70171484375,-0.016205310821533203,-2.012570381164551,0.6353092193603516
1725892386599563300,16.720563232421874,-1.1210551261901855,-0.988469123840332,-0.3585975170135498
1725892386618411800,16.739411865234374,-0.12171792984008789,-1.470890998840332,0.05812978744506836
1725892386637260000,16.758260009765625,-0.685640811920166,-1.6090068817138672,-0.11227989196777344
1725892386656108800,16.77710888671875,-0.8033947944641113,-0.9885435104370117,1.5369019508361816
1725892386674957300,16.795957275390624,-1.1614327430725098,-0.8262100219726562,-0.9574947357177734
1725892386693805600,16.8148056640625,-1.237051010131836,-0.5133819580078125,-0.5306820869445801
1725892386712654300,16.833654296875,-0.25443315505981445,-2.0847816467285156,2.059690237045288
1725892386731502600,16.852502685546874,-1.1765236854553223,-1.9140758514404297,-0.2542872428894043
1725892386750351000,16.87135107421875,-1.0746569633483887,-2.2572126388549805,1.0232596397399902
1725892386769199600,16.89019970703125,-0.41817760467529297,-2.3976030349731445,0.053315162658691406
1725892386788048100,16.909048095703124,-0.0800027847290039,-1.5951175689697266,1.3578479290008545
1725892386806896600,16.927896728515623,0.031025409698486328,-2.36807918548584,0.8471240997314453
1725892386825745200,16.9467451171875,-0.11944389343261719,-1.0615386962890625,-2.1241750717163086
1725892386844593700,16.96559375,1.3215703964233398,0.6179122924804688,-0.4592318534851074
1725892386863442200,16.984442138671874,1.0063610076904297,0.01634979248046875,-1.3002461194992065
1725892386882290700,17.003290771484377,0.37168312072753906,-0.8005285263061523,0.25336718559265137
1725892386901139200,17.02213916015625,-0.08345985412597656,-0.5784006118774414,-0.22189092636108398
1725892386919987700,17.04098779296875,-1.1264195442199707,1.0296287536621094,-1.2837629318237305
1725892386938836200,17.059836181640627,0.2952384948730469,0.8242740631103516,0.10178875923156738
1725892386957684700,17.078684814453126,0.4053211212158203,-0.1826624870300293,0.06459593772888184
1725892386976533200,17.097533203125,0.5744571685791016,-0.3298459053039551,-0.024423599243164062
1725892386995381800,17.1163818359375,-0.17226076126098633,0.041844844818115234,-0.21969366073608398
1725892387014230300,17.135230224609376,0.5523571968078613,1.132413387298584,0.8032126426696777
1725892387033078800,17.154078857421876,1.502039909362793,0.7409801483154297,1.830099105834961
1725892387051927000,17.172927001953123,-0.22105693817138672,-0.07871532440185547,0.7375133037567139
1725892387070775600,17.191775634765627,-1.3299345970153809,-0.09085941314697266,2.0622682571411133
1725892387089624000,17.2106240234375,-1.329500675201416,-0.13459062576293945,0.91506028175354
1725892387108472600,17.22947265625,-1.047243595123291,-0.3543424606323242,1.7157127857208252
1725892387127321000,17.248321044921877,-0.4918403625488281,-1.0101237297058105,1.0621986389160156
1725892387146169600,17.267169677734376,0.0031719207763671875,-1.227616786956787,-0.04634499549865723
1725892387165018000,17.28601806640625,0.040914058685302734,-0.49986839294433594,1.0905325412750244
1725892387183866600,17.30486669921875,0.48322010040283203,-1.397413730621338,1.3377254009246826
1725892387202715100,17.323715087890626,1.2829289436340332,-0.9144735336303711,-0.5027036666870117
1725892387221563600,17.342563720703126,-0.9486336708068848,-0.35570383071899414,0.17394709587097168
1725892387240412200,17.361412109375,-0.8349990844726562,-2.5467448234558105,2.235379457473755
1725892387259260700,17.3802607421875,2.772305965423584,-2.0176548957824707,1.038797378540039
1725892387278109200,17.399109130859376,3.7117667198181152,1.5864696502685547,-0.9763970375061035
1725892387296957700,17.417957763671875,3.4659175872802734,3.006080150604248,-1.3755172491073608
1725892387315806200,17.43680615234375,3.282158851623535,3.0515761375427246,-2.153540849685669
1725892387334654700,17.45565478515625,1.4763097763061523,3.206465005874634,-1.1901847124099731
1725892387353503000,17.4745029296875,0.10705995559692383,1.30218505859375,-0.8915543556213379
1725892387372351500,17.4933515625,-0.2611966133117676,-0.24018383026123047,-0.3336918354034424
1725892387391200000,17.512199951171876,0.5599460601806641,-1.3328347206115723,0.10388493537902832
1725892387410048500,17.531048583984376,0.5188512802124023,-0.03835248947143555,-0.8333008289337158
1725892387428897000,17.54989697265625,0.5328083038330078,-0.09823751449584961,-1.053309440612793
1725892387447745500,17.56874560546875,0.7938261032104492,-1.005497932434082,0.8430788516998291
1725892387466594000,17.587593994140626,0.296234130859375,-1.6833014488220215,-0.4810678958892822
1725892387485442600,17.606442626953125,-1.2703170776367188,0.49431371688842773,-1.0576519966125488
1725892387504291000,17.625291015625,-0.5431375503540039,-0.14012503623962402,1.1132495403289795
1725892387523139600,17.6441396484375,2.808804512023926,-1.1678357124328613,0.2875969409942627
1725892387541987800,17.66298779296875,-0.71502685546875,2.246330499649048,-0.3883397579193115
1725892387560836600,17.681836669921875,-1.3469562530517578,3.3886075019836426,0.953294038772583
1725892387579684900,17.700684814453126,0.7766284942626953,-0.9297590255737305,-0.7285573482513428
1725892387598533400,17.719533447265626,1.1135673522949219,-1.3489964008331299,0.63124680519104
1725892387617382000,17.7383818359375,2.376042366027832,-0.002242565155029297,0.31515049934387207
1725892387636230400,17.75723046875,2.8032374382019043,2.141815662384033,-2.2317326068878174
1725892387655079000,17.776078857421876,0.052051544189453125,1.4551950693130493,-1.0764288902282715
1725892387673927400,17.794927490234375,2.766554832458496,0.19982647895812988,0.508704423904419
1725892387692776000,17.81377587890625,3.8094072341918945,2.2452285289764404,-1.2606494426727295
1725892387711624400,17.83262451171875,2.0090112686157227,2.437939167022705,-1.6221321821212769
1725892387730473000,17.851472900390625,1.0880012512207031,1.2024188041687012,-1.668020486831665
1725892387749321500,17.870321533203125,0.7883200645446777,1.7726306915283203,-0.6805720329284668
1725892387768169700,17.889169677734376,-0.35613107681274414,2.0694937705993652,0.2801513671875
1725892387787018500,17.9080185546875,1.0288677215576172,2.0916976928710938,1.221623182296753
1725892387805866800,17.92686669921875,-0.20397186279296875,1.5227444171905518,-0.16539382934570312
1725892387824715300,17.94571533203125,-2.830394744873047,2.2070631980895996,0.48719263076782227
1725892387843563800,17.964563720703126,1.4245929718017578,-0.8776483535766602,1.7981853485107422
1725892387862412300,17.983412353515625,0.22913551330566406,0.412811279296875,0.26266956329345703
1725892387881260800,18.0022607421875,1.1868987083435059,-2.5900416374206543,1.0538592338562012
1725892387900109300,18.021109375,0.18517637252807617,-1.6529412269592285,-2.275545597076416
1725892387918957800,18.039957763671875,-0.6463761329650879,1.6872320175170898,-1.982701301574707
1725892387937806300,18.058806396484375,0.7672505378723145,1.0572328567504883,-1.152858018875122
1725892387956654800,18.07765478515625,-1.264594554901123,0.6442298889160156,-1.0588183403015137
1725892387975503400,18.09650341796875,-0.8659067153930664,-0.8474268913269043,0.8910162448883057
1725892387994351600,18.1153515625,-0.8191852569580078,-3.366225242614746,-0.1553640365600586
1725892388013200100,18.1342001953125,-0.7422380447387695,-3.3948864936828613,1.7780442237854004
1725892388032048600,18.153048583984376,1.114820957183838,-3.754206657409668,3.4504668712615967
1725892388050897200,18.171897216796875,-0.9150528907775879,-0.17902183532714844,1.008446216583252
1725892388069745700,18.19074560546875,-1.2836017608642578,0.42658138275146484,0.4748983383178711
1725892388088594200,18.20959423828125,-1.1620731353759766,-1.43988037109375,0.3881969451904297
1725892388107442700,18.228442626953125,0.19413995742797852,-0.7901058197021484,3.2784955501556396
1725892388126291200,18.247291259765625,-0.2820887565612793,-1.6915578842163086,0.7902867794036865
1725892388145139700,18.2661396484375,-1.020432949066162,-0.4791994094848633,-0.49808692932128906
1725892388163988000,18.284988037109375,-0.45812416076660156,-0.5629358291625977,0.09203290939331055
1725892388182836700,18.303836669921875,-0.34598684310913086,-0.6722650527954102,0.3966712951660156
1725892388201685000,18.32268505859375,0.13210582733154297,-1.7940988540649414,3.1252799034118652
1725892388220533500,18.341533447265626,-1.4149928092956543,-1.6155414581298828,0.5639541149139404
1725892388239382000,18.360382080078125,-0.01928853988647461,0.3083953857421875,0.736407995223999
1725892388258230500,18.37923046875,0.27822160720825195,0.5384941101074219,-1.0484358072280884
1725892388277079000,18.3980791015625,0.3691070079803467,0.6288118362426758,-0.7279138565063477
1725892388295927600,18.416927490234375,0.7602005004882812,-0.8714351654052734,1.366790533065796
1725892388314776000,18.435776123046875,-0.7507710456848145,-1.5965585708618164,-1.224639654159546
1725892388333624300,18.454624267578126,-0.17903709411621094,-1.378880500793457,0.6575775146484375
1725892388352473000,18.47347314453125,-0.33026552200317383,-1.6082935333251953,-1.7826600074768066
1725892388371321300,18.4923212890625,-0.15088415145874023,0.4190654754638672,0.009435415267944336
1725892388390169900,18.511169921875,0.5312104225158691,1.5235543251037598,1.091294527053833
1725892388409018400,18.530018310546875,-0.35124826431274414,-0.31337547302246094,-0.16406917572021484
1725892388427867000,18.548866943359375,0.92913818359375,-1.687171459197998,1.3828401565551758
1725892388446715400,18.56771533203125,-0.1953902244567871,-1.1612048149108887,-0.13564348220825195
1725892388465564000,18.58656396484375,-1.6482353210449219,0.6295490264892578,-0.9176242351531982
1725892388484412400,18.605412353515625,-0.5278472900390625,1.7417821884155273,-0.2589538097381592
1725892388503260700,18.6242607421875,0.35134410858154297,-1.0083413124084473,2.359907627105713
1725892388522109200,18.643109130859376,-1.616811752319336,-2.4978713989257812,1.2194228172302246
1725892388540957700,18.661957763671875,-2.8241987228393555,-0.7995395660400391,1.8246798515319824
1725892388559806200,18.68080615234375,1.8700108528137207,0.10450458526611328,2.5584754943847656
1725892388578654700,18.69965478515625,1.6709470748901367,0.6317710876464844,0.10903811454772949
1725892388597503200,18.718503173828125,0.5318450927734375,1.4504876136779785,-0.5386021137237549
1725892388616351500,18.7373515625,-0.14696455001831055,1.0474185943603516,0.14715957641601562
1725892388635200300,18.7562001953125,-0.21591758728027344,1.0456924438476562,0.8793439865112305
1725892388654048500,18.775048583984375,-1.822669506072998,-0.14937400817871094,3.623011827468872
1725892388672897000,18.79389697265625,-0.28583240509033203,-0.7856082916259766,1.2942345142364502
1725892388691745500,18.81274560546875,2.207714557647705,-0.386810302734375,-0.0389246940612793
1725892388710594000,18.831593994140626,2.172553062438965,-0.8224673271179199,-0.7610597610473633
1725892388729442600,18.850442626953125,2.1438064575195312,1.5710954666137695,-1.9305787086486816
1725892388748291000,18.869291015625,-1.4967327117919922,2.100435256958008,-0.6055309772491455
1725892388767139600,18.8881396484375,-3.1051878929138184,-1.7638564109802246,1.3333539962768555
1725892388785987800,18.90698779296875,1.634239673614502,-4.1414361000061035,1.3612260818481445
1725892388804836400,18.92583642578125,2.6615824699401855,-2.6136393547058105,0.08405137062072754
1725892388823684900,18.944684814453126,0.5851602554321289,0.5293874740600586,0.14942646026611328
1725892388842533400,18.963533447265625,-0.10804367065429688,-0.2727813720703125,-0.3659951686859131
1725892388861382000,18.9823818359375,1.4212608337402344,-1.1392207145690918,-0.5657639503479004
1725892388880230400,19.00123046875,0.6357269287109375,0.31137895584106445,-1.0366795063018799
1725892388899079000,19.020078857421876,0.3281412124633789,-0.054970741271972656,-0.49467015266418457
1725892388917927400,19.038927490234375,0.5220985412597656,1.5547237396240234,-1.3675116300582886
1725892388936775700,19.057775634765626,1.1932578086853027,0.18908429145812988,-0.6268162727355957
1725892388955624400,19.07662451171875,0.5628738403320312,0.2957139015197754,-0.41419291496276855
1725892388974472700,19.09547265625,2.1575050354003906,-0.7699053287506104,-0.14513444900512695
1725892388993321200,19.1143212890625,4.3009934425354,0.7902638912200928,-1.043210506439209
1725892389012169700,19.133169677734376,0.033041954040527344,4.511694431304932,-1.2902107238769531
1725892389031018200,19.152018310546875,2.117648124694824,0.531721830368042,0.06905436515808105
1725892389049866500,19.170866455078126,1.229881763458252,0.9783604145050049,-1.9491441249847412
1725892389068715300,19.18971533203125,1.3894319534301758,0.9970760345458984,1.1865649223327637
1725892389087563500,19.2085634765625,1.7631044387817383,2.4352688789367676,-1.930442214012146
1725892389106412000,19.227412109375,1.2770004272460938,0.9334847927093506,-0.8589644432067871
1725892389125260500,19.246260498046876,1.1149921417236328,2.291417121887207,-0.6920626163482666
1725892389144109000,19.265109130859376,0.902562141418457,3.216642379760742,0.6098439693450928
1725892389162957600,19.28395751953125,-0.20557785034179688,3.4213781356811523,-0.768451452255249
1725892389181806000,19.30280615234375,-1.3702363967895508,2.4891514778137207,-0.14130926132202148
1725892389200654300,19.321654296875,1.6600332260131836,1.3027238845825195,1.5421245098114014
1725892389219502800,19.3405029296875,0.7273950576782227,0.3100852966308594,0.45052266120910645
1725892389238351400,19.359351318359376,0.4721250534057617,-1.282301902770996,-0.5840957164764404
1725892389257199900,19.378199951171876,1.3468232154846191,0.8787503242492676,-0.0295560359954834
1725892389276048400,19.39704833984375,0.3835620880126953,-0.00047588348388671875,-1.463341236114502
1725892389294897000,19.41589697265625,-3.554399013519287,0.24374151229858398,-1.6180765628814697
1725892389313745200,19.4347451171875,0.3117194175720215,-0.7410049438476562,2.6948039531707764
1725892389332594000,19.453593994140626,1.4832262992858887,-2.0128555297851562,0.7542862892150879
1725892389351442200,19.472442138671877,-1.4668593406677246,-0.7718510627746582,-2.035250425338745
1725892389370290700,19.491290771484376,-1.8465547561645508,-0.14580011367797852,-1.4438899755477905
1725892389389139200,19.51013916015625,0.6257772445678711,-2.9431324005126953,0.3399629592895508
1725892389407987700,19.52898779296875,-0.0635995864868164,-4.3879265785217285,1.6194446086883545
1725892389426836200,19.547836181640626,-0.4543642997741699,-3.043519973754883,0.7498512268066406
1725892389445684700,19.566684814453126,-0.10170173645019531,-0.5739865303039551,1.7996773719787598
1725892389464533000,19.585532958984373,0.6038141250610352,-0.1616225242614746,-1.2006545066833496
1725892389483381500,19.604381591796876,0.9887223243713379,2.072453498840332,0.6071720123291016
1725892389502230000,19.62322998046875,1.1352019309997559,3.7370824813842773,0.7346525192260742
1725892389521078500,19.64207861328125,-0.875953197479248,2.706204414367676,-2.0049166679382324
1725892389539927000,19.660927001953127,-0.24112844467163086,-0.04110145568847656,1.672879934310913
1725892389558775600,19.679775634765626,-2.39475154876709,-5.031063079833984,2.706437826156616
1725892389577623800,19.698623779296874,-2.0756630897521973,-4.360033988952637,2.358590841293335
1725892389596472300,19.717472412109377,-3.1738109588623047,-1.9977655410766602,0.8428456783294678
1725892389615320800,19.73632080078125,-1.639960765838623,-2.464305877685547,2.0338618755340576
1725892389634169300,19.75516943359375,-0.5095939636230469,-0.9294414520263672,1.3186132907867432
1725892389653017900,19.774017822265623,-0.2621731758117676,0.1786050796508789,-1.2538204193115234
1725892389671866400,19.792866455078126,-0.33522891998291016,0.2174997329711914,-0.533003568649292
1725892389690714600,19.811714599609374,-0.14667749404907227,-1.2803983688354492,-0.13985657691955566
1725892389709563400,19.8305634765625,-0.8596858978271484,-0.33402061462402344,-0.3267223834991455
1725892389728411600,19.84941162109375,0.09851694107055664,-0.31820201873779297,0.0719442367553711
1725892389747260200,19.86826025390625,0.1787576675415039,-0.010243415832519531,-1.3973290920257568
1725892389766108700,19.887108642578124,1.590087890625,0.14594602584838867,-0.9187331199645996
1725892389784957200,19.905957275390627,0.22824668884277344,-0.6288003921508789,0.7591779232025146
1725892389803805700,19.9248056640625,-0.31319189071655273,-1.442612648010254,-0.1945657730102539
1725892389822654200,19.943654296875,-0.27396678924560547,0.48720216751098633,-0.6930394172668457
1725892389841502500,19.96250244140625,-0.5140471458435059,0.09884786605834961,1.4032080173492432
1725892389860351000,19.98135107421875,-1.8784146308898926,-1.6907954216003418,1.3303945064544678
1725892389879199500,20.000199462890624,-2.1133151054382324,-1.518587589263916,1.6883058547973633
1725892389898048000,20.019048095703123,0.449185848236084,0.16768264770507812,0.7986493110656738
1725892389916896500,20.037896484375,1.7334339618682861,2.340695381164551,-0.5881500244140625
1725892389935745000,20.0567451171875,0.7173285484313965,1.5117926597595215,-0.4285552501678467
1725892389954593300,20.07559326171875,-2.1276793479919434,-1.413675308227539,-0.1689763069152832
1725892389973441800,20.09444189453125,-1.9139227867126465,-2.5672521591186523,2.865572929382324
1725892389992290300,20.113290283203124,-0.5335607528686523,-3.3863816261291504,2.3351316452026367
1725892390011138800,20.132138916015624,0.7797942161560059,-1.6554913520812988,1.0825421810150146
1725892390029987300,20.1509873046875,1.5922722816467285,-0.04271364212036133,0.15621423721313477
1725892390048835600,20.169835693359374,-0.2554640769958496,1.5411977767944336,0.8589301109313965
1725892390067684000,20.18868408203125,-0.11259698867797852,0.04406309127807617,1.0350439548492432
1725892390086532600,20.20753271484375,-0.7656373977661133,-1.135549545288086,0.04561591148376465
1725892390105381000,20.226381103515624,0.5614638328552246,-3.0775794982910156,-0.03547859191894531
1725892390124229600,20.245229736328124,0.8203091621398926,-2.427302837371826,0.0032193660736083984
1725892390143078100,20.264078125,3.045368194580078,-1.7203254699707031,-1.4858258962631226
1725892390161926400,20.282926513671875,0.49051904678344727,1.8791089057922363,-2.83008074760437
1725892390180775200,20.301775146484374,2.0465598106384277,-0.06180000305175781,-0.8863844871520996
1725892390199623400,20.32062353515625,4.143669605255127,0.531667947769165,-1.4981346130371094
1725892390218472000,20.339471923828125,2.136481285095215,2.573953866958618,-2.7408230304718018
1725892390237320400,20.358320556640624,0.09478282928466797,3.586076259613037,-2.6538383960723877
1725892390256169000,20.3771689453125,0.5176734924316406,2.2705307006835938,-0.5247771739959717
1725892390275017200,20.396017333984375,0.04181480407714844,0.14243268966674805,-1.2815186977386475
1725892390293865700,20.41486572265625,-1.4361572265625,-0.8273494243621826,2.0393757820129395
1725892390312714200,20.43371435546875,1.1808404922485352,-0.7860813140869141,-0.971665620803833
1725892390331562800,20.452562744140625,-0.10811233520507812,1.4768134355545044,0.059546709060668945
1725892390350411300,20.471411376953125,1.318537712097168,0.6527750492095947,-1.3936651945114136
1725892390369259800,20.490259765625,1.0097002983093262,2.209132671356201,-1.60439133644104
1725892390388108300,20.5091083984375,0.5166635513305664,2.160478115081787,-1.3369228839874268
1725892390406956500,20.52795654296875,0.78125,1.2543258666992188,-1.2949559688568115
1725892390425805000,20.54680517578125,2.5840063095092773,1.1717050075531006,-1.30952787399292
1725892390444653600,20.565653564453125,2.3245391845703125,1.4160218238830566,-2.7279443740844727
1725892390463502000,20.584502197265625,-0.34062767028808594,2.1147069931030273,-1.9512600898742676
1725892390482350600,20.6033505859375,1.5782780647277832,-0.08552885055541992,0.24634337425231934
1725892390501199000,20.62219921875,3.378660202026367,-0.670191764831543,-0.3407478332519531
1725892390520047400,20.64104736328125,0.08547067642211914,0.4717750549316406,-2.466616630554199
1725892390538896000,20.659895751953126,-0.05396270751953125,1.7192230224609375,-0.847663164138794
1725892390557744400,20.678744384765626,1.0125932693481445,1.6521611213684082,-0.4027435779571533
1725892390576593000,20.697593017578125,1.492952823638916,2.948594570159912,-0.9981253147125244
1725892390595441400,20.71644140625,-0.11914682388305664,0.23702526092529297,0.6669998168945312
1725892390614289700,20.73528955078125,-0.11461877822875977,-1.8374991416931152,0.03271818161010742
1725892390633138200,20.75413818359375,-0.734260082244873,-1.659276008605957,0.4084036350250244
1725892390651986700,20.772986572265626,0.9967689514160156,-2.068021774291992,-0.10048842430114746
1725892390670835200,20.791835205078126,0.3826918601989746,-0.8539915084838867,0.7760891914367676
1725892390689683700,20.81068359375,-1.233579158782959,-0.8827691078186035,-1.4674179553985596
1725892390708532200,20.8295322265625,-2.295544147491455,0.3017129898071289,-0.6733963489532471
1725892390727380500,20.84838037109375,-0.7577190399169922,-1.7230076789855957,0.7268400192260742
1725892390746229000,20.86722900390625,-2.1539254188537598,-2.2261085510253906,-1.0985610485076904
1725892390765077500,20.886077392578127,-1.2935938835144043,-2.1506423950195312,1.7949528694152832
1725892390783926000,20.904926025390626,-1.65234375,-1.6517143249511719,2.724773645401001
1725892390802774500,20.9237744140625,-2.0178475379943848,-2.23513126373291,1.7023041248321533
1725892390821622800,20.942622802734373,-1.3142242431640625,-3.472945213317871,2.5420515537261963
1725892390840471300,20.96147119140625,-0.5105013847351074,-2.083733558654785,0.12825727462768555
1725892390859319800,20.98031982421875,-0.5893435478210449,-1.1920747756958008,-0.45622825622558594
1725892390878168300,20.999168212890623,-0.26311731338500977,-2.267022132873535,2.3033246994018555
1725892390897016800,21.018016845703126,-0.6111655235290527,-1.6646957397460938,-1.9344186782836914
1725892390915865300,21.036865234375,0.3431887626647949,0.5849380493164062,-1.1624579429626465
1725892390934713600,21.055713623046874,1.2478296756744385,2.3036794662475586,-1.8031758069992065
1725892390953562000,21.07456201171875,1.3191068172454834,1.901881217956543,-1.2157025337219238
1725892390972410600,21.09341064453125,0.5294032096862793,0.8835954666137695,0.013365030288696289
1725892390991259100,21.112259033203124,-0.033571720123291016,0.5689382553100586,-0.7111766338348389
1725892391010107600,21.131107666015627,0.07839393615722656,1.40362548828125,-0.38945627212524414
1725892391028956000,21.149955810546874,-0.9799418449401855,1.6440505981445312,-2.0385704040527344
1725892391047804400,21.168804443359374,-0.7791504859924316,1.400960922241211,2.4307515621185303
1725892391066653000,21.18765283203125,-1.1055545806884766,-0.9089169502258301,0.9487719535827637
1725892391085501400,21.20650146484375,-1.996748924255371,-1.1040244102478027,2.4780871868133545
1725892391104350000,21.225349853515624,-2.342559814453125,-1.1139135360717773,2.070295810699463
1725892391123198500,21.244198486328123,-2.857889175415039,-1.4086709022521973,2.908398151397705
1725892391142046700,21.263046630859375,-1.6546459197998047,-2.7345476150512695,1.7222344875335693
1725892391160895200,21.281895263671874,-1.6756691932678223,-4.768509864807129,0.11400151252746582
1725892391179743700,21.30074365234375,-2.3297767639160156,-2.392995834350586,0.47034263610839844
1725892391198592300,21.31959228515625,-0.3791537284851074,-2.305327892303467,2.3930015563964844
1725892391217440800,21.338440673828124,-0.4077920913696289,-3.595719337463379,0.7108607292175293
1725892391236289000,21.3572890625,1.01554536819458,-1.562972068786621,0.12306594848632812
1725892391255137500,21.376137451171875,1.3972539901733398,0.5396356582641602,0.714085578918457
1725892391273986000,21.394986083984374,2.684635639190674,1.0361571311950684,0.08629703521728516
1725892391292834600,21.41383447265625,1.796889305114746,2.0154824256896973,-0.33818936347961426
1725892391311683000,21.43268310546875,1.1469783782958984,1.101318359375,-0.2689058780670166
1725892391330531300,21.45153125,2.736382007598877,-1.038790225982666,0.01292562484741211
1725892391349379800,21.4703798828125,3.8483684062957764,1.0458650588989258,-2.524548053741455
1725892391368228400,21.489228271484375,0.12065315246582031,3.051004409790039,0.37285375595092773
1725892391387076900,21.508076904296875,0.33600521087646484,-1.6446771621704102,-0.19294357299804688
1725892391405925400,21.52692529296875,2.5169458389282227,-2.4665074348449707,-0.2701834440231323
1725892391424773600,21.545773681640625,1.3915462493896484,-0.24476909637451172,-0.5630062818527222
1725892391443622100,21.5646220703125,-0.4113302230834961,3.4185426235198975,-0.9205420017242432
1725892391462470700,21.583470703125,1.1396846771240234,2.795153856277466,-1.136958360671997
1725892391481319200,21.602319091796875,0.029631614685058594,1.2682180404663086,-0.8979125022888184
1725892391500167400,21.62116748046875,-0.09875965118408203,0.576176643371582,1.0719759464263916
1725892391519016000,21.640015869140626,2.2394304275512695,0.17621493339538574,-0.6880223751068115
1725892391537864400,21.658864501953126,0.7651557922363281,1.4437706470489502,-1.100475788116455
1725892391556713000,21.677712890625,1.8016128540039062,0.34598565101623535,-0.29936981201171875
1725892391575561500,21.6965615234375,1.666466236114502,2.822850227355957,-1.2860968112945557
1725892391594409700,21.71540966796875,-0.537841796875,0.7569706439971924,-0.6821281909942627
1725892391613258500,21.734258544921875,-1.0067710876464844,-1.7838599681854248,-0.7356948852539062
1725892391632106800,21.753106689453126,1.057103157043457,-1.831230878829956,1.8791890144348145
1725892391650955300,21.771955322265626,5.625675201416016,0.6953434944152832,-2.710019111633301
1725892391669803800,21.7908037109375,0.1000223159790039,5.394486904144287,-4.213821887969971
1725892391688652000,21.809652099609377,-0.13108158111572266,2.4392027854919434,0.17089438438415527
1725892391707500800,21.828500732421876,2.1826066970825195,0.17504596710205078,-3.472327709197998
1725892391726349000,21.84734912109375,1.8805608749389648,1.000047206878662,-0.08249926567077637
1725892391745197600,21.866197509765627,6.595274925231934,1.3274497985839844,-0.45375514030456543
1725892391764046000,21.885046142578126,0.17626714706420898,4.3131608963012695,-4.488648891448975
1725892391782894300,21.903894287109374,0.39499855041503906,4.014431953430176,-2.3474929332733154
1725892391801742800,21.922742919921873,2.6289782524108887,2.406431198120117,-0.4770798683166504
1725892391820591400,21.94159130859375,4.114526748657227,2.5230154991149902,-1.2024972438812256
1725892391839440000,21.96043994140625,-1.8621301651000977,1.9555039405822754,0.0329740047454834
1725892391858288400,21.979288330078123,-2.5125865936279297,-3.404433250427246,1.0665087699890137
1725892391877136600,21.99813671875,-2.9988880157470703,-5.141427040100098,1.595360517501831
1725892391895985200,22.016985107421874,-3.5173401832580566,-7.579501152038574,4.886679649353027
1725892391914833700,22.035833740234374,-3.172656536102295,-9.217416763305664,5.13120698928833
1725892391933682200,22.05468212890625,-1.931337833404541,-6.868692398071289,2.2703843116760254
1725892391952530700,22.07353076171875,-0.2624483108520508,-1.9182944297790527,-1.7346525192260742
1725892391971379000,22.09237890625,-1.0717577934265137,1.9475326538085938,-2.2607035636901855
1725892391990227500,22.1112275390625,-1.9769659042358398,1.6200675964355469,-0.4876394271850586
1725892392009076000,22.130075927734374,-1.3731446266174316,-2.5258493423461914,4.466602325439453
1725892392027924500,22.148924560546874,-1.4915904998779297,-0.7741813659667969,-1.4583256244659424
1725892392046772700,22.167772705078125,1.3230295181274414,3.330078125,0.9013237953186035
1725892392065621200,22.186621337890625,1.859025478363037,2.6205949783325195,-3.22438645362854
1725892392084469800,22.2054697265625,2.1366000175476074,1.0039701461791992,0.37762999534606934
1725892392143357200,22.264357177734375,-4.82527494430542,-4.952251434326172,3.400895118713379
1725892392162205700,22.283205810546875,-4.5848774909973145,-5.841960906982422,3.340898275375366
1725892392181054000,22.302053955078126,-1.6792378425598145,-2.955015182495117,3.208954334259033
1725892392199902500,22.32090234375,0.5127549171447754,0.5399084091186523,-0.7464690208435059
1725892392218751000,22.3397509765625,1.8562085628509521,0.556917667388916,-1.0304059982299805
1725892392237599500,22.358599609375,1.5879502296447754,-1.4040288925170898,-1.015488862991333
1725892392256447700,22.37744775390625,-0.2528505325317383,-2.174269199371338,-0.1897890567779541
1725892392275296300,22.396296142578127,0.5152082443237305,-1.7057175636291504,-0.7567799091339111
1725892392294144800,22.415144775390626,1.3769752979278564,1.696122169494629,-1.2241103649139404
1725892392312993300,22.4339931640625,2.035799741744995,2.7547378540039062,-1.5498709678649902
1725892392331841500,22.452841552734377,0.9970803260803223,2.6534461975097656,-1.7345596551895142
1725892392350690000,22.47168994140625,0.10399627685546875,0.9741148948669434,-0.8134610652923584
1725892392369538600,22.49053857421875,-3.320835590362549,-0.29091930389404297,0.5911314487457275
1725892392388387000,22.509386962890623,-2.496486186981201,-2.4644603729248047,5.847742080688477
1725892392407235600,22.528235595703126,-1.6909313201904297,-5.934966087341309,3.7716236114501953
1725892392426083800,22.547083740234374,0.943361759185791,-5.028282165527344,0.4813833236694336
1725892392444932400,22.565932373046873,1.4770317077636719,-2.7277345657348633,0.5771431922912598
1725892392463780900,22.58478076171875,0.7563600540161133,-1.1170082092285156,1.3834803104400635
1725892392482629400,22.60362939453125,-0.7389974594116211,0.595189094543457,0.12259531021118164
1725892392501477600,22.6224775390625,-0.03528738021850586,-0.18423128128051758,0.6855194568634033
1725892392520326100,22.641326171875,2.443437099456787,0.13375520706176758,-0.05788564682006836
1725892392539174700,22.660174560546874,3.1265835762023926,1.029144525527954,-0.7339553833007812
1725892392558023200,22.679023193359374,1.4434423446655273,0.4850759506225586,-1.263454794883728
1725892392576871700,22.69787158203125,2.525704860687256,0.20983314514160156,0.2744429111480713
1725892392595720000,22.716719970703124,4.006256580352783,-0.454714298248291,-0.7031939029693604
1725892392614568400,22.735568359375,1.1904702186584473,3.4213247299194336,-2.5234367847442627
1725892392633417000,22.7544169921875,0.13251113891601562,3.3666045665740967,-0.5984959602355957
1725892392652265500,22.773265380859375,2.246424674987793,0.06204986572265625,-1.526628017425537
1725892392671113700,22.79211376953125,1.6985878944396973,-1.1970813274383545,-0.13924729824066162
1725892392689962200,22.810962158203125,0.9547319412231445,0.49450087547302246,-1.5633213520050049
1725892392708810800,22.829810791015625,1.3934521675109863,1.4663561582565308,-1.217248558998108
1725892392727659300,22.8486591796875,-0.8292551040649414,1.6474424600601196,-1.261386513710022
1725892392746507500,22.867507568359375,-0.8693485260009766,0.1681652069091797,2.4663889408111572
1725892392765356000,22.88635595703125,3.2509584426879883,-1.8064427375793457,-0.49861574172973633
1725892392784204500,22.90520458984375,3.622762680053711,1.9644674062728882,-1.373826265335083
1725892392803053000,22.924052978515626,1.076767921447754,3.5013294219970703,-2.69417667388916
1725892392821901300,22.9429013671875,-1.6292591094970703,2.0017166137695312,-2.356306791305542
1725892392840749800,22.961749755859376,1.0674347877502441,-0.636542797088623,1.3838551044464111
1725892392859598300,22.980598388671876,4.732901096343994,-1.992354393005371,-1.339826226234436
1725892392878446800,22.99944677734375,1.4295425415039062,1.4796867370605469,-3.9394545555114746
1725892392897295000,23.018295166015626,-0.676508903503418,2.178809404373169,0.17850208282470703
1725892392916143600,23.0371435546875,2.1698293685913086,-0.40139055252075195,-1.2904815673828125
1725892392934992100,23.0559921875,-0.46820735931396484,2.416004180908203,-0.20749163627624512
1725892392953840600,23.074840576171876,1.2866249084472656,2.4582555294036865,1.379335641860962
1725892392972689000,23.09368896484375,1.3319945335388184,-1.2409000396728516,0.7508647441864014
1725892392991537400,23.112537353515624,1.8059329986572266,-2.9899063110351562,0.36391282081604004
1725892393010386000,23.131385986328127,0.9276595115661621,-3.2961978912353516,0.8331964015960693
1725892393029234400,23.150234375,0.9284873008728027,-2.526212215423584,0.2694985866546631
1725892393048082700,23.169082763671874,1.259298324584961,-1.1773509979248047,0.9079735279083252
1725892393066931200,23.18793115234375,-1.0176897048950195,1.5631017684936523,-1.7858256101608276
1725892393085779700,23.20677978515625,-3.704540252685547,2.0121726989746094,-1.960726261138916
1725892393104628200,23.225628173828124,-3.123997688293457,-5.770488262176514,3.3967483043670654
1725892393123476700,23.244476806640623,-2.2924232482910156,-8.15839672088623,3.398533821105957
1725892393142325000,23.263324951171874,-1.4544687271118164,-1.1799964904785156,1.9214906692504883
1725892393161173500,23.282173583984374,0.07007932662963867,-4.853425025939941,1.1326687335968018
1725892393180022000,23.30102197265625,-1.2078595161437988,-5.111332893371582,-1.0319145917892456
1725892393198870500,23.31987060546875,-0.44583654403686523,-0.8501520156860352,0.6703059673309326
1725892393217718800,23.33871875,-0.2342839241027832,0.7387614250183105,0.3824653625488281
1725892393236567300,23.3575673828125,-0.14316749572753906,1.1108131408691406,0.8306188583374023
1725892393255415800,23.376415771484375,0.6563303470611572,-0.5803489685058594,-0.8221579790115356
1725892393274264300,23.395264404296874,-0.01871633529663086,2.256768226623535,-2.571202039718628
1725892393293112600,23.414112548828125,1.3852205276489258,1.1352910995483398,-0.2640421390533447
1725892393311961000,23.432961181640625,0.48319244384765625,0.8772268295288086,-1.0098490715026855
1725892393330809600,23.4518095703125,-0.05271768569946289,0.9595022201538086,-1.9509321451187134
1725892393349657900,23.470657958984376,-0.38927173614501953,0.6581673622131348,2.563117504119873
1725892393368506400,23.48950634765625,-0.8266172409057617,-2.213578224182129,2.4020516872406006
1725892393387355000,23.50835498046875,-1.1814045906066895,-0.8459649085998535,0.11383986473083496
1725892393406203400,23.527203369140626,-0.10611915588378906,1.4770278930664062,-0.3345479965209961
1725892393425051600,23.5460517578125,-1.7754731178283691,-0.028600215911865234,0.3020613193511963
1725892393443900200,23.564900146484376,-3.496643543243408,-2.8561272621154785,2.228811740875244
1725892393462748700,23.583748779296876,-2.527451992034912,-6.079562187194824,2.4237170219421387
1725892393481597200,23.60259716796875,1.1193361282348633,-5.472386837005615,-0.22200608253479004
1725892393500445700,23.62144580078125,1.9109010696411133,-1.0329999923706055,-1.6075410842895508
1725892393519294000,23.6402939453125,-0.09177684783935547,1.336247444152832,-0.5525691509246826
1725892393538142500,23.659142578125,-0.3311896324157715,0.36472177505493164,0.5970275402069092
