time,seconds_elapsed,z,y,x
1725892558385630200,0.043630126953125,0,0,0
1725892558404478200,0.062478271484375,-0.006916999816894531,-0.464815616607666,0.005174268037080765
1725892558423326500,0.081326416015625,0.1796550750732422,0.46404290199279785,0.0700526237487793
1725892558442174500,0.100174560546875,0.13737106323242188,-1.5709824562072754,0.506995677947998
1725892558461022500,0.1190224609375,0.37699413299560547,-0.12949657440185547,0.4940299987792969
1725892558479870500,0.137870361328125,2.7363290786743164,0.2533087730407715,0.835597038269043
1725892558498718500,0.156718505859375,2.4173412322998047,-0.41729235649108887,-1.2554678916931152
1725892558517566500,0.17556640625,-3.1385488510131836,0.07648658752441406,-1.109061598777771
1725892558536414500,0.19441455078125,-0.8216896057128906,1.9118432998657227,-2.0832629203796387
1725892558555262700,0.2132626953125,-1.0639734268188477,0.7228608131408691,-1.674572229385376
1725892558574110700,0.23211083984375,0.8301877975463867,0.7748532295227051,-0.34474700689315796
1725892558592958700,0.250958740234375,-0.9798755645751953,-1.5057852268218994,-0.43407952785491943
1725892558611806700,0.269806640625,-1.452784538269043,-2.1606192588806152,1.4327729940414429
1725892558630654700,0.28865478515625,-1.4752559661865234,-0.4714071750640869,1.8088765144348145
1725892558649502700,0.307502685546875,-1.5665874481201172,1.410982608795166,2.568530321121216
1725892558668350700,0.326350830078125,-0.45119667053222656,1.004042625427246,1.94386625289917
1725892558687198700,0.34519873046875,2.195171356201172,1.8534736633300781,-1.8076421022415161
1725892558706047000,0.364046875,1.8041458129882812,1.8854713439941406,-0.06361258029937744
1725892558724895000,0.38289501953125,-2.418961524963379,3.3890161514282227,-1.0825166702270508
1725892558743743000,0.401742919921875,-0.7991905212402344,2.924197196960449,-2.4555158615112305
1725892558762591000,0.420591064453125,2.174495220184326,5.060788154602051,-4.490363121032715
1725892558781439000,0.43943896484375,4.2675042152404785,4.943112850189209,-7.344637870788574
1725892558800287000,0.458286865234375,2.633997917175293,-1.3929829597473145,-0.9686784744262695
1725892558819135000,0.477135009765625,2.4816160202026367,1.2845335006713867,-4.850733280181885
1725892558837983200,0.495983154296875,2.085148334503174,-0.0841054916381836,-3.2266852855682373
1725892558856831200,0.514831298828125,-0.4820685386657715,-1.329401969909668,-4.446551322937012
1725892558875679200,0.53367919921875,-1.9577198028564453,-3.523179531097412,-5.851355075836182
1725892558894527200,0.55252734375,-3.501042366027832,-6.933474540710449,-8.041210174560547
1725892558913375200,0.571375244140625,-4.966607570648193,-5.950739860534668,-6.822763442993164
1725892558932223200,0.59022314453125,-4.042674541473389,-4.9148664474487305,-4.442807674407959
1725892558951071200,0.6090712890625,0.31022822856903076,-3.2806472778320312,-4.092949390411377
1725892558969919500,0.62791943359375,0.375579833984375,-4.393282890319824,-2.1435205936431885
1725892558988767500,0.646767578125,1.9929282665252686,-2.0639734268188477,0.8195772171020508
1725892559007615500,0.665615478515625,4.15155029296875,-1.3791451454162598,1.4342641830444336
1725892559026463500,0.68446337890625,5.7450947761535645,-1.0832300186157227,1.372598648071289
1725892559045311500,0.7033115234375,21.774253845214844,8.472736358642578,14.066686630249023
1725892559064159500,0.722159423828125,9.835433959960938,7.998664855957031,19.568531036376953
1725892559083007500,0.741007568359375,1.7504448890686035,-1.9629364013671875,-6.941854000091553
1725892559101855500,0.75985546875,-2.477649688720703,-3.851632595062256,-2.641939163208008
1725892559120703700,0.778703857421875,1.7274417877197266,-4.342522621154785,-3.3309426307678223
1725892559139551700,0.7975517578125,1.7258274555206299,-2.9174506664276123,-3.49796724319458
1725892559158399700,0.816399658203125,0.40522241592407227,-1.9558701515197754,-3.1418561935424805
1725892559177247700,0.835247802734375,-10.836084365844727,-5.746813774108887,12.785626411437988
1725892559196095700,0.854095703125,-9.254419326782227,-1.428330421447754,11.457564353942871
1725892559214943700,0.87294384765625,3.59885835647583,2.1835265159606934,8.868419647216797
1725892559233791700,0.891791748046875,3.749727487564087,6.697404384613037,4.380138397216797
1725892559252639700,0.9106396484375,-2.9613661766052246,2.2862191200256348,-1.7294692993164062
1725892559271487700,0.92948779296875,-4.343625068664551,-0.3277316093444824,-3.5876736640930176
1725892559290335700,0.948335693359375,-2.7099833488464355,-3.277486562728882,-3.698986053466797
1725892559309183700,0.967183837890625,-1.3152986764907837,-1.0876917839050293,-6.01786994934082
1725892559328032000,0.986031982421875,2.6197657585144043,0.9858183860778809,-0.599156379699707
1725892559346880000,1.0048798828125,-0.0051708221435546875,0.5545172691345215,1.6948986053466797
1725892559365728000,1.02372802734375,-0.09499019384384155,0.6143484115600586,1.442983627319336
1725892559384576000,1.042575927734375,1.0287238359451294,0.957890510559082,0.3636493682861328
1725892559403424000,1.061424072265625,-0.4370567798614502,3.741971492767334,1.8895835876464844
1725892559422272000,1.08027197265625,-0.9258146286010742,2.258877754211426,0.5320281982421875
1725892559441120000,1.0991201171875,0.9831871390342712,0.2516460418701172,-0.9733924865722656
1725892559459968000,1.117968017578125,1.8005245923995972,-2.697193145751953,-1.40972900390625
1725892559478816300,1.136816162109375,3.2006497383117676,-4.69371223449707,0.963709831237793
1725892559497664300,1.155664306640625,0.8143118023872375,2.9514331817626953,-1.6485719680786133
1725892559516512300,1.17451220703125,0.5757319927215576,-1.9772658348083496,-0.8806848526000977
1725892559535360300,1.1933603515625,1.9024569988250732,0.40133094787597656,1.4187469482421875
1725892559554208300,1.212208251953125,1.0810807943344116,2.103951930999756,-2.1334238052368164
1725892559573056300,1.23105615234375,0.23385179042816162,2.509589672088623,-3.0198793411254883
1725892559591904300,1.249904296875,2.694423198699951,-2.693258047103882,3.45761775970459
1725892559610752500,1.26875244140625,-1.7332695722579956,-3.877474308013916,4.246218681335449
1725892559629600500,1.2876005859375,-3.4799704551696777,0.6504611968994141,-2.7964158058166504
1725892559648448500,1.306448486328125,1.524720311164856,4.139735698699951,-6.285581111907959
1725892559667296500,1.325296630859375,1.724650263786316,-1.1455411911010742,-1.9579124450683594
1725892559686144500,1.34414453125,-1.0400216579437256,-3.520181655883789,3.7180213928222656
1725892559704992500,1.362992431640625,-2.487255334854126,-4.5274457931518555,-1.6569585800170898
1725892559723840500,1.381840576171875,0.8806159496307373,5.768673896789551,-0.05226612091064453
1725892559742688500,1.4006884765625,0.12981629371643066,0.9999241828918457,-2.453094482421875
1725892559761536800,1.419536865234375,2.3786392211914062,-9.169206619262695,1.9082794189453125
1725892559780384800,1.438384765625,2.8128561973571777,0.8798837661743164,-3.808765411376953
1725892559799232800,1.457232666015625,2.936577796936035,-1.1680686473846436,-1.218644142150879
1725892559818080800,1.476080810546875,-1.5688517093658447,-0.1350688934326172,8.265973091125488
1725892559836928800,1.4949287109375,0.34229278564453125,4.0239996910095215,1.5432319641113281
1725892559855776800,1.51377685546875,1.4137240648269653,-6.441495895385742,0.7014808654785156
1725892559874624800,1.532624755859375,-0.4229414463043213,-5.6043782234191895,-2.800105094909668
1725892559893473000,1.55147314453125,-0.9365971088409424,1.6798315048217773,-7.809408664703369
1725892559912321000,1.570321044921875,4.523789405822754,-1.211893081665039,0.30507898330688477
1725892559931169000,1.5891689453125,2.985612392425537,3.471518039703369,9.005776405334473
1725892559950017000,1.60801708984375,4.138949871063232,8.43212890625,9.500300407409668
1725892559968865000,1.626864990234375,0.7898139953613281,-0.33818721771240234,-2.572272300720215
1725892559987713000,1.645713134765625,0.8943496942520142,-7.136345386505127,-6.09458589553833
1725892560006561000,1.66456103515625,0.0801246166229248,2.085689067840576,-2.763699531555176
1725892560025409300,1.6834091796875,-1.1334810256958008,9.915847778320312,1.580735206604004
1725892560044257300,1.70225732421875,1.8877824544906616,-1.3122200965881348,1.2984743118286133
1725892560063105300,1.721105224609375,-2.4816131591796875,-2.2498044967651367,-1.108407974243164
1725892560081953300,1.739953369140625,0.5451023578643799,-0.13683128356933594,0.25064849853515625
1725892560100801300,1.75880126953125,-2.856614589691162,-3.3877367973327637,-0.2727546691894531
1725892560119649300,1.777649169921875,-1.5480080842971802,4.157577991485596,-4.175571918487549
1725892560138497300,1.796497314453125,1.6111187934875488,2.6341395378112793,0.18681621551513672
1725892560157345300,1.81534521484375,0.8159048557281494,-3.6198642253875732,2.2683773040771484
1725892560176193500,1.834193603515625,0.3784445524215698,0.0050754547119140625,-3.592343330383301
1725892560195041500,1.85304150390625,3.601612091064453,-1.0927023887634277,-4.612427711486816
1725892560213889500,1.8718896484375,1.4756877422332764,-1.139251708984375,4.7474517822265625
1725892560232737500,1.890737548828125,0.8291999101638794,-1.7556891441345215,4.1349592208862305
1725892560251585500,1.90958544921875,-0.6344188451766968,-2.8971986770629883,0.33586597442626953
1725892560270433800,1.928433837890625,2.6010453701019287,1.3371315002441406,-4.038583755493164
1725892560289281800,1.94728173828125,-0.5088157057762146,-8.668749809265137,0.6356673240661621
1725892560308129800,1.9661298828125,-0.10359573364257812,-1.3045830726623535,0.035799503326416016
1725892560326977800,1.984977783203125,1.671975016593933,-3.4131948947906494,3.7231807708740234
1725892560345825800,2.00382568359375,-2.889699697494507,-1.1821837425231934,6.161092281341553
1725892560364674000,2.022674072265625,-0.752979576587677,0.7242426872253418,-2.753272533416748
1725892560383522000,2.04152197265625,-6.7710771560668945,0.82452392578125,-10.751986503601074
1725892560402370000,2.0603701171875,2.8573055267333984,-8.36073112487793,2.0060486793518066
1725892560421218000,2.079218017578125,-0.29445335268974304,0.8469414710998535,5.947552680969238
1725892560440066000,2.098066162109375,3.6814794540405273,14.704730987548828,-7.786962509155273
1725892560458914000,2.1169140625,-0.07183754444122314,4.796562194824219,3.45070743560791
1725892560477762300,2.13576220703125,-2.163405656814575,-4.861089706420898,1.5959968566894531
1725892560496610300,2.1546103515625,1.1974674463272095,5.095594882965088,-1.7673025131225586
1725892560515458300,2.173458251953125,-1.1728169918060303,0.8998146057128906,-4.127566814422607
1725892560534306300,2.192306396484375,-3.6596171855926514,4.252720355987549,2.4660234451293945
1725892560553154300,2.211154296875,-0.6369649767875671,7.344891548156738,3.9558868408203125
1725892560572002600,2.23000244140625,-0.9309287667274475,-0.9966549873352051,1.0492477416992188
1725892560590850600,2.2488505859375,-1.4869954586029053,0.8661255836486816,0.36995506286621094
1725892560609698600,2.267698486328125,1.4043259620666504,-3.3325929641723633,0.9353094100952148
1725892560628546600,2.286546630859375,0.20564579963684082,-0.717048168182373,2.658308982849121
1725892560647394600,2.30539453125,2.24153995513916,-4.394770622253418,-3.1143903732299805
1725892560666242800,2.324242919921875,1.504565715789795,-1.9528923034667969,0.31689929962158203
1725892560685090800,2.3430908203125,0.13528430461883545,-2.0618364810943604,3.131803512573242
1725892560703938800,2.361938720703125,-0.06558537483215332,0.7172303199768066,2.5078516006469727
1725892560722786800,2.380786865234375,0.8085175156593323,-0.5336265563964844,-2.864029884338379
1725892560741635000,2.399635009765625,0.392375111579895,-5.625251770019531,0.8491353988647461
1725892560760483000,2.418483154296875,-1.90985107421875,0.34799718856811523,-3.536327838897705
1725892560779331000,2.4373310546875,3.1673898696899414,0.02980327606201172,-3.2037858963012695
1725892560798179000,2.456178955078125,1.0541114807128906,-0.2650136947631836,1.6383895874023438
1725892560817027000,2.475027099609375,-0.9373248815536499,6.113516807556152,3.9175643920898438
1725892560835875300,2.493875244140625,-1.5030786991119385,1.9839115142822266,-2.648056983947754
1725892560854723300,2.512723388671875,0.4829426109790802,-1.211134433746338,-6.010429382324219
1725892560873571300,2.5315712890625,0.26969093084335327,1.8361191749572754,1.4474191665649414
1725892560892419600,2.550419677734375,-2.3320977687835693,3.334916591644287,4.905309677124023
1725892560911267600,2.569267578125,-1.6863369941711426,0.32706403732299805,-5.421446800231934
1725892560930115600,2.588115478515625,-1.4221184253692627,-1.2321581840515137,-1.0089569091796875
1725892560948963600,2.606963623046875,-2.9740428924560547,4.760242938995361,4.030200958251953
1725892560967811800,2.625811767578125,2.123603105545044,-3.6124980449676514,-1.408747673034668
1725892560986659800,2.644659912109375,-4.341765880584717,-8.329344749450684,-5.868107795715332
1725892561005507800,2.6635078125,5.22913122177124,3.975337028503418,-0.9829034805297852
1725892561024355800,2.68235595703125,3.009533405303955,-9.076229095458984,7.38107967376709
1725892561043203800,2.701203857421875,-1.4608466625213623,-2.6270627975463867,-1.4806394577026367
1725892561062052000,2.720052001953125,4.282886981964111,8.440385818481445,-7.663543224334717
1725892561080900000,2.738900146484375,-0.09050941467285156,-0.7806663513183594,5.941634178161621
1725892561099748000,2.757748046875,-1.6304559707641602,3.091564655303955,0.980799674987793
1725892561118596400,2.776596435546875,1.402350664138794,8.474453926086426,-1.165562629699707
1725892561137444400,2.7954443359375,3.5735819339752197,0.4164609909057617,2.5645265579223633
1725892561156292400,2.814292236328125,0.7762705087661743,6.788480281829834,-1.436812400817871
1725892561175140600,2.833140625,3.0827810764312744,-4.7811431884765625,-0.9919705390930176
1725892561193988600,2.851988525390625,-5.179398059844971,3.576603889465332,2.4042434692382812
1725892561212836600,2.870836669921875,-8.115985870361328,-2.606750011444092,3.2523460388183594
1725892561231684600,2.8896845703125,-12.276244163513184,-15.86434555053711,-2.0204601287841797
1725892561250532900,2.908532958984375,-10.048151016235352,-1.4478473663330078,-6.396453857421875
1725892561269380900,2.927380859375,8.030771255493164,-12.090749740600586,4.8224077224731445
1725892561288228900,2.946228759765625,5.595889568328857,-2.708865165710449,2.347598075866699
1725892561307076900,2.965076904296875,13.612678527832031,-8.421213150024414,10.507791519165039
1725892561325925000,2.983925048828125,7.6910223960876465,3.878502368927002,6.252687454223633
1725892561344773000,3.002773193359375,7.572354316711426,4.231873989105225,1.6247529983520508
1725892561363621000,3.02162109375,0.707746148109436,-0.742612361907959,2.3504467010498047
1725892561382469400,3.040469482421875,-2.71570086479187,3.2319769859313965,-2.836000442504883
1725892561401317400,3.0593173828125,-4.957879543304443,3.531874656677246,-4.698267936706543
1725892561420165600,3.07816552734375,-7.696674346923828,-3.447978973388672,3.541872024536133
1725892561439013600,3.097013671875,-6.939456939697266,0.3531219959259033,4.602273941040039
1725892561457861600,3.115861572265625,-0.9705870151519775,1.2657699584960938,0.5056686401367188
1725892561476709600,3.134709716796875,1.5662522315979004,0.9037044048309326,2.845396041870117
1725892561495558000,3.153557861328125,0.9657678604125977,-0.4022998809814453,3.2581491470336914
1725892561514406000,3.172406005859375,4.770684719085693,-0.653411865234375,1.5220518112182617
1725892561533254000,3.19125390625,0.2842893600463867,1.0008375644683838,-3.2230496406555176
1725892561552102100,3.21010205078125,-4.434576988220215,-1.5980956554412842,-2.762578010559082
1725892561570950100,3.2289501953125,-2.410212993621826,1.181443452835083,2.305943489074707
1725892561589798100,3.247798095703125,0.9243910312652588,1.8320865631103516,-1.9221172332763672
1725892561608646400,3.266646484375,2.6541900634765625,3.024345636367798,-6.9611358642578125
1725892561627494400,3.285494384765625,2.7507870197296143,4.130461692810059,-0.6585769653320312
1725892561646342400,3.30434228515625,2.2608468532562256,-6.585827350616455,1.6677255630493164
1725892561665190700,3.323190673828125,-7.739418983459473,4.069315433502197,-6.350967884063721
1725892561684038700,3.34203857421875,-7.32443904876709,0.31786131858825684,7.730707168579102
1725892561702886700,3.36088671875,2.3683393001556396,-4.477934837341309,-1.197260856628418
1725892561721735000,3.37973486328125,-0.7503085136413574,1.4056315422058105,0.9393758773803711
1725892561740583000,3.3985830078125,-8.399107933044434,-0.9200968742370605,4.698282241821289
1725892561759431000,3.417430908203125,7.906060218811035,-7.411288738250732,-0.9553394317626953
1725892561778279200,3.436279052734375,3.589845657348633,3.162487030029297,1.8243389129638672
1725892561797127200,3.455127197265625,-7.2855963706970215,-2.428651809692383,-0.19603586196899414
1725892561815975400,3.473975341796875,1.4649686813354492,-0.38608574867248535,1.365128517150879
1725892561834823400,3.492823486328125,3.8241405487060547,-5.065030574798584,-3.254547119140625
1725892561853671400,3.51167138671875,-2.775019645690918,-1.1027276515960693,-0.1240243911743164
1725892561872519700,3.530519775390625,-2.997011661529541,1.437032699584961,0.36911916732788086
1725892561891367700,3.54936767578125,4.313838005065918,-3.0943069458007812,0.41777706146240234
1725892561910215700,3.568215576171875,-0.9372360706329346,3.5511550903320312,0.9334402084350586
1725892561929064000,3.58706396484375,-4.876166343688965,-0.9905092716217041,0.7282767295837402
1725892561947912000,3.605911865234375,-0.06100273132324219,0.1735219955444336,-0.8944721221923828
1725892561966760000,3.624760009765625,3.870007038116455,-3.243035316467285,0.6810941696166992
1725892561985608200,3.643608154296875,-0.5015678405761719,-5.451416969299316,-3.0603127479553223
1725892562004456200,3.662456298828125,-1.4349279403686523,3.421236753463745,0.10824346542358398
1725892562023304400,3.681304443359375,2.3781485557556152,-2.5314035415649414,0.7239165306091309
1725892562042152400,3.70015234375,-2.794687271118164,1.7212319374084473,-0.5395598411560059
1725892562061000400,3.71900048828125,1.6942377090454102,-1.4896109104156494,3.309476375579834
1725892562079848700,3.7378486328125,10.077573776245117,-1.0364603996276855,7.696418762207031
1725892562098696700,3.75669677734375,9.279313087463379,-1.6251540184020996,5.44371223449707
1725892562117544700,3.775544677734375,0.8055324554443359,-2.0730130672454834,2.6765637397766113
1725892562136393000,3.79439306640625,-4.7135467529296875,-2.4045658111572266,6.12484073638916
1725892562155241000,3.813240966796875,2.6352930068969727,-1.7631950378417969,6.743361473083496
1725892562174089200,3.832089111328125,3.9936587810516357,-1.7985868453979492,1.4599933624267578
1725892562192937200,3.850937255859375,-2.1929707527160645,-3.120556354522705,2.07710599899292
1725892562211785200,3.86978515625,-4.496290683746338,-4.7793073654174805,0.748692512512207
1725892562230633500,3.888633544921875,-5.505016326904297,-3.934347152709961,-1.2724695205688477
1725892562249481500,3.9074814453125,-7.642202377319336,-5.137386322021484,-3.230888843536377
1725892562268329700,3.926329833984375,-7.991398811340332,-6.511018753051758,-4.1636786460876465
1725892562287177700,3.945177734375,-9.065644264221191,-4.379281044006348,-4.683894157409668
1725892562306025700,3.964025634765625,-3.8132009506225586,-5.654458999633789,-0.3916803002357483
1725892562324874000,3.9828740234375,-1.5811915397644043,-4.501665115356445,1.101723551750183
1725892562343722000,4.001721923828125,-1.7186627388000488,-2.0225954055786133,-0.3862364888191223
1725892562362570200,4.0205703125,-0.8572573661804199,-0.1292409896850586,-1.312587022781372
1725892562381418200,4.039418212890625,2.3253865242004395,-1.4211196899414062,0.04727932810783386
1725892562400266200,4.058266357421875,2.1952157020568848,-0.41306257247924805,1.2938721179962158
1725892562419114500,4.077114501953125,-0.2942361831665039,1.9532384872436523,1.3349883556365967
1725892562437962500,4.09596240234375,0.423433780670166,2.1520142555236816,2.690394639968872
1725892562456810800,4.114810791015625,-0.11678457260131836,1.3343048095703125,2.4487829208374023
1725892562475658800,4.13365869140625,-0.17523908615112305,1.8920025825500488,2.141897201538086
1725892562494507000,4.152507080078125,2.0704431533813477,3.0585813522338867,3.4551477432250977
1725892562513355000,4.17135498046875,2.745907783508301,2.8228554725646973,4.10966682434082
1725892562532203000,4.190203125,4.603042125701904,4.904136657714844,3.1722590923309326
1725892562551051300,4.20905126953125,-1.2998390197753906,1.9331235885620117,-0.5556654930114746
1725892562569899300,4.227899169921875,1.4582595825195312,2.472928047180176,0.880037784576416
1725892562588747500,4.24674755859375,3.6353092193603516,4.869865894317627,0.25411081314086914
1725892562607595500,4.265595458984375,0.571990966796875,2.230961561203003,-0.26792430877685547
1725892562626443800,4.28444384765625,0.6586108207702637,0.5615910291671753,0.5552763938903809
1725892562645291800,4.303291748046875,0.4692521095275879,0.693176805973053,0.6852235794067383
1725892562664140000,4.32214013671875,0.8343682289123535,0.4002608358860016,0.4372386932373047
1725892562682988000,4.340988037109375,1.759148120880127,-0.9831075072288513,0.2606983184814453
1725892562701836300,4.359836181640625,1.820317268371582,-1.9743471145629883,-0.23648357391357422
1725892562720684300,4.378684326171875,4.163033962249756,0.05125240981578827,-0.7557764053344727
1725892562739532300,4.3975322265625,2.5772032737731934,1.1254968643188477,-1.264875888824463
1725892562758380500,4.416380615234375,1.1639800071716309,1.5733964443206787,-1.5369892120361328
1725892562777228500,4.435228515625,0.306241512298584,0.9998637437820435,-0.6246175765991211
1725892562796076800,4.454076904296875,-0.01612091064453125,0.44922715425491333,-0.33747005462646484
1725892562814924800,4.4729248046875,-0.4784259796142578,-0.1226586103439331,-1.1174125671386719
1725892562833773000,4.49177294921875,-0.6458249092102051,-0.01759517192840576,-0.34734344482421875
1725892562852621000,4.51062109375,-0.4425678253173828,-0.029478907585144043,0.27762889862060547
1725892562871469300,4.52946923828125,-0.8393716812133789,-0.800300121307373,0.1659708023071289
1725892562890317300,4.5483173828125,-1.7703633308410645,-0.692915678024292,-1.3702020645141602
1725892562909165600,4.56716552734375,-2.06014347076416,-1.0535707473754883,-0.2667732238769531
1725892562928013600,4.586013671875,-1.8503491878509521,-0.7673598527908325,0.4449796676635742
1725892562946861800,4.60486181640625,-2.02708101272583,-1.0573883056640625,0.038127899169921875
1725892562965709800,4.623709716796875,-1.3954811096191406,-1.0826215744018555,0.5947942733764648
1725892562984558000,4.64255810546875,-0.42173147201538086,-1.0191278457641602,1.6747932434082031
1725892563003406000,4.661406005859375,-0.3077993392944336,-0.9784402847290039,0.8731536865234375
1725892563022254300,4.68025439453125,-0.23612022399902344,-1.196199655532837,0.1089019775390625
1725892563041102300,4.699102294921875,0.3755769729614258,-0.8092062473297119,0.12938785552978516
1725892563059950600,4.71795068359375,0.10798335075378418,-0.5074560642242432,0.6025304794311523
1725892563078798600,4.736798583984375,-0.10026907920837402,-0.35540223121643066,1.1959161758422852
1725892563097646800,4.755646728515625,0.577268123626709,-0.19539904594421387,0.8624639511108398
1725892563116494800,4.774494873046875,1.821164608001709,-0.048932552337646484,1.4105815887451172
1725892563135343000,4.793343017578125,1.6653664112091064,-1.8087177276611328,-0.3904857635498047
1725892563154191000,4.812191162109375,2.371218204498291,-1.0348646640777588,-1.5009660720825195
1725892563173039400,4.831039306640625,2.0431301593780518,-2.179492712020874,-1.9845361709594727
1725892563191887400,4.849887451171875,4.209011554718018,0.004770994186401367,-1.816197395324707
1725892563210735600,4.868735595703125,3.411036491394043,0.010766744613647461,-2.7800064086914062
1725892563229583600,4.88758349609375,2.001600742340088,-0.7061970233917236,-3.3611536026000977
1725892563248431900,4.906431884765625,0.3424258232116699,-3.258039951324463,-2.9119815826416016
1725892563267280000,4.92527978515625,2.186899185180664,-1.049694538116455,-0.8889684677124023
1725892563286128000,4.944128173828125,1.594306468963623,-2.0005295276641846,-1.477125644683838
1725892563304976100,4.96297607421875,-0.15005230903625488,-2.6043190956115723,-1.0132160186767578
1725892563323824400,4.981824462890625,0.6009030342102051,-2.6826260089874268,-1.182854175567627
1725892563342672400,5.00067236328125,0.8343541622161865,0.7612166404724121,-3.3059091567993164
1725892563361520600,5.019520751953125,1.0567538738250732,2.763127326965332,-8.94025993347168
1725892563380368600,5.03836865234375,1.3802812099456787,-2.91986083984375,-6.327275276184082
1725892563399217000,5.057216796875,-0.2827146053314209,-4.960084915161133,-2.7791543006896973
1725892563418065000,5.07606494140625,-0.24385559558868408,-3.5412192344665527,-2.859419822692871
1725892563436913200,5.0949130859375,-0.661684513092041,-2.2103912830352783,-1.025242805480957
1725892563455761200,5.11376123046875,-2.8087520599365234,-0.9226692318916321,4.033820152282715
1725892563474609400,5.132609375,-4.11775541305542,1.2343158721923828,7.524127006530762
1725892563493457400,5.15145751953125,-4.029033660888672,1.26116943359375,8.217384338378906
1725892563512305700,5.1703056640625,-1.155150294303894,-0.4979632496833801,7.168906211853027
1725892563531153700,5.189153564453125,2.8694727420806885,-1.682831048965454,6.766412734985352
1725892563550002000,5.208001953125,2.1464922428131104,-1.5634984970092773,6.961249351501465
1725892563568850000,5.226849853515625,-2.065474271774292,1.9531983137130737,2.660515785217285
1725892563587698200,5.2456982421875,-4.997035026550293,2.7568695545196533,-0.8505287170410156
1725892563606546400,5.26454638671875,-2.2435426712036133,0.45874619483947754,-0.4654378890991211
1725892563625394400,5.28339453125,-0.5936827659606934,-0.582951545715332,-0.568974494934082
1725892563644242700,5.30224267578125,1.4590476751327515,-1.7278008460998535,2.869004249572754
1725892563663090700,5.321090576171875,5.188879013061523,-0.4536292552947998,0.16942882537841797
1725892563681939000,5.33993896484375,4.118096351623535,-3.032895803451538,1.880380630493164
1725892563700787000,5.358786865234375,2.3168845176696777,0.4150810241699219,-1.5320873260498047
1725892563719635200,5.37763525390625,-0.6642286777496338,0.13542580604553223,-0.22275352478027344
1725892563769097200,5.42709716796875,-1.700873613357544,-5.686520099639893,0.9159784317016602
1725892563787945500,5.445945556640625,-3.078747034072876,-1.5732147693634033,-1.466829776763916
1725892563806793700,5.464793701171875,-2.5145528316497803,1.8227739334106445,-5.215642929077148
1725892563825641700,5.483641845703125,1.262779951095581,1.6344943046569824,-4.077081680297852
1725892563844490000,5.502489990234375,3.3640336990356445,-0.0009932518005371094,-2.690946102142334
1725892563863338000,5.521337890625,1.176026701927185,-3.637324571609497,-1.4334139823913574
1725892563882186200,5.540186279296875,-0.10938608646392822,-2.940227508544922,-0.6741561889648438
1725892563901034200,5.5590341796875,-1.4961748123168945,0.09607267379760742,-0.7734928131103516
1725892563919882500,5.577882568359375,0.09514808654785156,1.6770663261413574,0.43048095703125
1725892563938730800,5.596730712890625,0.7180255055427551,-0.3240680694580078,1.3148775100708008
1725892563957578800,5.615578857421875,-0.28536880016326904,-1.1295771598815918,2.8272342681884766
1725892563976427000,5.634427001953125,1.437233328819275,0.16191911697387695,0.9091892242431641
1725892563995275000,5.65327490234375,1.0873122215270996,-0.010895729064941406,0.7207345962524414
1725892564014123300,5.672123291015625,-0.4020279347896576,0.5541391372680664,0.11240673065185547
1725892564032971500,5.690971435546875,0.30091583728790283,0.6024250984191895,0.005326271057128906
1725892564051819500,5.709819580078125,-1.0285483598709106,1.7770271301269531,-0.0736379623413086
1725892564070667500,5.72866748046875,0.4338502883911133,0.5671014785766602,0.15957260131835938
1725892564089515800,5.747515869140625,2.071504592895508,-0.010933876037597656,0.6890573501586914
1725892564108364000,5.766364013671875,0.3996462821960449,-0.15922021865844727,0.04298877716064453
1725892564127212000,5.7852119140625,0.20313137769699097,-1.1986656188964844,0.5028972625732422
1725892564146060300,5.804060302734375,1.8907556533813477,-0.8700747489929199,0.05511760711669922
1725892564164908500,5.822908447265625,4.045770645141602,-0.7538647651672363,0.1963176727294922
1725892564183756500,5.841756591796875,2.860614538192749,0.2100234031677246,0.07326984405517578
1725892564202604800,5.860604736328125,-0.32284289598464966,-0.845548152923584,-1.2709426879882812
1725892564221452800,5.879452880859375,-1.6423107385635376,-1.2959256172180176,-1.1415419578552246
1725892564240301000,5.898301025390625,-3.3171944618225098,0.5865592956542969,-1.6151223182678223
1725892564259149000,5.917149169921875,-5.227508544921875,1.725630521774292,-3.0625557899475098
1725892564277997300,5.935997314453125,-1.927753210067749,1.9749598503112793,-1.201589584350586
1725892564296845600,5.954845458984375,0.5377434492111206,2.1411399841308594,0.23528480529785156
1725892564315693600,5.973693603515625,0.19937467575073242,2.067570447921753,0.7607583999633789
1725892564334541800,5.992541748046875,0.15210914611816406,0.9353690147399902,1.153223991394043
1725892564353389800,6.011389892578125,-0.2902870178222656,-0.11149406433105469,0.5277414321899414
1725892564372238000,6.030238037109375,-0.5315666198730469,0.11813735961914062,-0.2826557159423828
1725892564391086300,6.04908642578125,-0.985917329788208,0.4809224605560303,0.15102100372314453
1725892564409934300,6.067934326171875,0.19919204711914062,0.4620935916900635,0.2656726837158203
1725892564428782600,6.086782470703125,0.03897500038146973,0.25192737579345703,0.866642951965332
1725892564447630800,6.105630859375,0.2616903781890869,0.35262060165405273,1.0184803009033203
1725892564466478800,6.124478759765625,1.1837475299835205,0.179412841796875,0.515294075012207
1725892564485327000,6.1433271484375,-0.0239260196685791,-0.5087447166442871,0.735417366027832
1725892564504175000,6.162175048828125,-0.35378479957580566,-1.7545952796936035,0.2870597839355469
1725892564523023400,6.1810234375,-0.07507181167602539,-1.6869587898254395,-0.9376616477966309
1725892564541871600,6.19987158203125,0.7751002311706543,-0.3733539581298828,-1.9643535614013672
1725892564560719600,6.2187197265625,-0.16063141822814941,-0.3023505210876465,-3.072655200958252
1725892564579567900,6.23756787109375,0.8800772428512573,-0.5116729736328125,-2.2134265899658203
1725892564598416000,6.256415771484375,1.8117351531982422,-0.26300668716430664,-0.9561595916748047
1725892564617264000,6.27526416015625,1.1158452033996582,-0.007025241851806641,-0.23152446746826172
1725892564636112400,6.2941123046875,2.497114896774292,0.7115671634674072,0.13732051849365234
1725892564654960400,6.31296044921875,0.684293270111084,-1.876434087753296,1.7260551452636719
1725892564673808600,6.33180859375,-2.5144262313842773,-1.4953486919403076,1.6224260330200195
1725892564692657000,6.350656982421875,-0.32712554931640625,0.010001897811889648,-0.2571125030517578
1725892564711505000,6.3695048828125,-2.062729835510254,-0.6086020469665527,-2.25148344039917
1725892564730353200,6.388353271484375,-0.3095991611480713,-2.5175094604492188,-2.8521313667297363
1725892564749201400,6.407201416015625,-0.7108590602874756,-3.0962905883789062,0.37777233123779297
1725892564768049400,6.42604931640625,1.5627802610397339,-0.3919394016265869,1.0875892639160156
1725892564786897700,6.444897705078125,0.6582224369049072,-2.25075626373291,1.2535409927368164
1725892564805745700,6.46374560546875,-1.9051650762557983,-3.032763957977295,1.521012306213379
1725892564824594000,6.482593994140625,0.07788443565368652,0.27794384956359863,-2.4693126678466797
1725892564843442200,6.501442138671875,-0.018529534339904785,1.539389729499817,-3.418964385986328
1725892564862290200,6.520290283203125,-0.1848047971725464,0.938823938369751,-1.9918212890625
1725892564881137000,6.539136962890625,0.6041041612625122,2.9095001220703125,-1.4242653846740723
1725892564899985000,6.55798486328125,-0.9583178758621216,1.9063737392425537,-0.5648574829101562
1725892564918833200,6.576833251953125,-0.1102287769317627,0.8570477962493896,-1.1221981048583984
1725892564937681200,6.59568115234375,-1.2194184064865112,-0.7383687496185303,-0.48250865936279297
1725892564956529400,6.614529296875,-0.2580406665802002,-0.7645359039306641,0.09094905853271484
1725892564975377700,6.633377685546875,0.06573128700256348,-1.5049500465393066,0.2853546142578125
1725892564994226000,6.652225830078125,-0.9678808450698853,-2.076890707015991,1.873854637145996
1725892565013074000,6.671073974609375,-0.5068478584289551,-0.014327526092529297,2.007692337036133
1725892565031922200,6.689922119140625,-0.8363255262374878,0.7952170372009277,0.5276575088500977
1725892565050770200,6.708770263671875,0.1829603910446167,0.6358568668365479,-0.8505382537841797
1725892565069618400,6.727618408203125,1.4419742822647095,0.5770432949066162,-2.2199249267578125
1725892565088466700,6.746466796875,-1.428605318069458,0.5748109817504883,-2.5690183639526367
1725892565107315000,6.76531494140625,-1.114796757698059,0.7695884704589844,-1.8866987228393555
1725892565126163000,6.784162841796875,-0.019387245178222656,0.8391368389129639,-1.3975772857666016
1725892565145011200,6.80301123046875,-0.0605396032333374,0.9115457534790039,-1.239457607269287
1725892565163859500,6.821859375,-0.3321689963340759,1.94277024269104,-2.36226224899292
1725892565182707500,6.84070751953125,-0.24289387464523315,3.618238687515259,-2.1612348556518555
1725892565201555700,6.8595556640625,-0.011034965515136719,4.30825138092041,-1.649336338043213
1725892565220403700,6.87840380859375,-0.07296973466873169,1.859896183013916,0.8158493041992188
1725892565239252000,6.897251953125,0.7814218997955322,2.583142042160034,-1.7352581024169922
1725892565258100200,6.916100341796875,0.8591338992118835,-6.597384929656982,4.910920143127441
1725892565276948500,6.934948486328125,-3.7730088233947754,-3.683713912963867,1.593113899230957
1725892565295796500,6.95379638671875,-2.017456293106079,-5.757660388946533,2.257059097290039
1725892565314644700,6.972644775390625,0.401613712310791,-5.8936052322387695,1.6770424842834473
1725892565333493000,6.991492919921875,0.18007326126098633,-4.240198612213135,1.1517748832702637
1725892565352341000,7.010341064453125,4.0139312744140625,-2.5763168334960938,-2.6349072456359863
1725892565371189200,7.029189208984375,3.8794617652893066,-2.802490711212158,-2.2275915145874023
1725892565390037500,7.04803759765625,0.6581982374191284,-0.8370609283447266,-1.9076271057128906
1725892565408885500,7.066885498046875,-2.3339037895202637,-1.470644474029541,-1.5151786804199219
1725892565427733800,7.085733642578125,-1.2370400428771973,1.379838466644287,0.8983235359191895
1725892565446582000,7.10458203125,1.203688144683838,2.5648961067199707,0.20746183395385742
1725892565465430000,7.123429931640625,0.47151315212249756,2.3729968070983887,-2.025942802429199
1725892565484278300,7.1422783203125,3.135228157043457,1.4743847846984863,0.8510112762451172
1725892565503126500,7.16112646484375,4.471759796142578,3.286010980606079,-11.231979370117188
1725892565521974800,7.179974853515625,-2.05952525138855,-1.8550605773925781,6.7710065841674805
1725892565540822800,7.19882275390625,-0.6105508804321289,-0.13100290298461914,2.098914623260498
1725892565559671000,7.217671142578125,0.9135010242462158,1.983243465423584,0.10711479187011719
1725892565578519300,7.236519287109375,0.6943926811218262,-2.2122015953063965,2.2439522743225098
1725892565597367600,7.255367431640625,-0.07315587997436523,-3.2798147201538086,2.9167418479919434
1725892565616215600,7.274215576171875,0.6099090576171875,-1.7764849662780762,0.48636770248413086
1725892565635063800,7.293063720703125,1.1653356552124023,-2.6193199157714844,-2.6237919330596924
1725892565653912000,7.311912109375,0.20329022407531738,-2.3656601905822754,-3.769498825073242
1725892565672760000,7.330760009765625,0.04032564163208008,-1.229179859161377,-2.659607410430908
1725892565691608300,7.3496083984375,-0.03446388244628906,-1.1217503547668457,-1.5484647750854492
1725892565710456600,7.36845654296875,0.6767032146453857,-0.9751491546630859,-0.7532749176025391
1725892565729304600,7.3873046875,0.026520729064941406,0.47623348236083984,-1.1034674644470215
1725892565748152800,7.40615283203125,-0.3206305503845215,-0.6918020248413086,-2.355461597442627
1725892565767001000,7.4250009765625,0.3905029296875,-0.700164794921875,-2.809324026107788
1725892565785849300,7.443849365234375,1.6821775436401367,-2.335733413696289,-3.6373705863952637
1725892565804697300,7.462697265625,-0.37320613861083984,-2.5117430686950684,-4.140402317047119
1725892565823545600,7.481545654296875,0.07427740097045898,-2.1134443283081055,-3.3088791370391846
1725892565842393900,7.500393798828125,0.8506135940551758,-2.1222290992736816,-1.244840145111084
1725892565861242000,7.5192421875,0.2402048110961914,-0.8919405937194824,0.8704915046691895
1725892565880090000,7.538090087890625,0.8912649154663086,3.058656930923462,3.839621067047119
1725892565898938400,7.5569384765625,0.9589157104492188,5.175909519195557,3.419139862060547
1725892565917786600,7.57578662109375,-1.5831670761108398,7.853088855743408,4.86466121673584
1725892565936635000,7.594634765625,-2.4286041259765625,6.088972568511963,6.639215469360352
1725892565955483000,7.61348291015625,-1.3334808349609375,4.392171859741211,3.981153964996338
1725892565974331100,7.6323310546875,-0.902620792388916,2.682262420654297,1.3183603286743164
1725892565993179400,7.651179443359375,-0.8452162742614746,0.7927637100219727,0.915226936340332
1725892566012027600,7.670027587890625,-1.1187334060668945,-0.03128528594970703,-0.7179255485534668
1725892566030875600,7.688875732421875,-0.20057058334350586,-2.9661712646484375,-0.9725565910339355
1725892566049724000,7.707723876953125,0.5247364044189453,-3.9561853408813477,-0.6466617584228516
1725892566068572200,7.726572265625,0.3968391418457031,-2.296121120452881,-1.5933008193969727
1725892566087420400,7.74542041015625,-0.43334484100341797,-2.646852493286133,-2.521070957183838
1725892566106268400,7.764268310546875,0.47084569931030273,-2.6319499015808105,0.18506431579589844
1725892566125116700,7.78311669921875,0.30197715759277344,-1.8942303657531738,-0.8130922317504883
1725892566143965000,7.80196484375,1.2077512741088867,-1.624234676361084,-0.748044490814209
1725892566162813000,7.82081298828125,0.13976526260375977,-1.3476591110229492,-0.9833521842956543
1725892566181661200,7.8396611328125,-0.3163266181945801,-0.2536616325378418,-0.24628686904907227
1725892566200509400,7.858509521484375,1.1172852516174316,-0.46693849563598633,-0.3516359329223633
1725892566219357700,7.877357666015625,1.1938929557800293,-0.06966400146484375,-0.5163493156433105
1725892566238206000,7.8962060546875,-0.02369976043701172,1.2227253913879395,1.0542984008789062
1725892566257054000,7.915053955078125,1.750467300415039,2.979440212249756,-1.6993026733398438
1725892566275902200,7.933902099609375,-0.654839038848877,0.6029798984527588,-3.412750482559204
1725892566294750500,7.95275048828125,0.13468360900878906,1.1561877727508545,-0.9741597175598145
1725892566313598700,7.9715986328125,0.9450697898864746,-0.2604818344116211,-2.970557689666748
1725892566332447000,7.990447021484375,-0.32739877700805664,-0.08159542083740234,-2.505368709564209
1725892566351295000,8.009294921875,1.315382957458496,0.9113211631774902,-0.804804801940918
1725892566370143200,8.028143310546875,1.0863966941833496,0.2426621913909912,-0.0695958137512207
1725892566388991500,8.046991455078125,-0.09237289428710938,-1.1795258522033691,-1.8809280395507812
1725892566407839700,8.06583984375,-0.5296883583068848,-1.928189754486084,-3.556645154953003
1725892566426688000,8.08468798828125,-1.010024070739746,-0.03890848159790039,-0.9326839447021484
1725892566445536000,8.103535888671875,-1.2125697135925293,1.17494535446167,-0.769287109375
1725892566464384300,8.12238427734375,-1.5182037353515625,-0.7311739921569824,-1.1779389381408691
1725892566483232500,8.141232421875,4.406953811645508,1.3602135181427002,-2.232239246368408
1725892566502080800,8.160080810546875,-2.3954825401306152,3.0993728637695312,-1.3132128715515137
1725892566520929000,8.178928955078124,0.10599946975708008,1.8530542850494385,1.507390022277832
1725892566539777000,8.197777099609375,0.7613053321838379,1.525679588317871,5.9569501876831055
1725892566558625300,8.216625244140625,0.8671817779541016,1.778040885925293,3.3061575889587402
1725892566577473500,8.2354736328125,-0.12258195877075195,1.755784034729004,0.06446361541748047
1725892566596321800,8.25432177734375,-0.13798952102661133,1.6419835090637207,1.7056193351745605
1725892566615170000,8.273170166015625,0.24747610092163086,0.24907302856445312,-0.2269601821899414
1725892566634018000,8.29201806640625,-1.0967178344726562,-7.93245792388916,1.2552480697631836
1725892566652866300,8.3108662109375,0.17821741104125977,11.65817642211914,-0.3050236701965332
1725892566671714600,8.329714599609375,0.32219481468200684,-2.0307469367980957,1.0455055236816406
1725892566690562800,8.348562744140626,-0.2082061767578125,-3.006626605987549,-1.3913476467132568
1725892566709411000,8.3674111328125,0.6661555767059326,-2.5625147819519043,-2.658747434616089
1725892566728259300,8.38625927734375,-0.6040248870849609,-3.1629199981689453,-1.7468490600585938
1725892566747107300,8.405107421875,-1.0264661312103271,-1.5033659934997559,-1.7696847915649414
1725892566765955600,8.42395556640625,-0.7853615283966064,-3.8382620811462402,-0.2389388084411621
1725892566784803800,8.442803955078125,-1.9002020359039307,-5.383898735046387,-1.143214225769043
1725892566803652000,8.461652099609376,-0.993565559387207,-4.3722429275512695,0.9478449821472168
1725892566822500400,8.480500244140625,-1.657968282699585,-3.8848986625671387,1.5358681678771973
1725892566841348600,8.4993486328125,-0.9247419834136963,-7.736972332000732,0.03318214416503906
1725892566860196900,8.51819677734375,1.143148422241211,-1.9274821281433105,-1.6010081768035889
1725892566879044900,8.537044921875,1.2616522312164307,0.027669906616210938,-3.9368410110473633
1725892566897893000,8.55589306640625,-0.47913503646850586,0.2365269660949707,-2.367508888244629
1725892566916741400,8.574741455078126,1.2096220254898071,1.5150103569030762,-1.6799211502075195
1725892566935589600,8.593589599609375,0.6224896907806396,2.7473464012145996,-2.6518335342407227
1725892566954438000,8.61243798828125,0.8626363277435303,0.808906078338623,-0.9195032119750977
1725892566973286100,8.6312861328125,2.098919153213501,-0.36290740966796875,-1.8651933670043945
1725892566992134100,8.650134033203125,1.612515926361084,-3.610543727874756,-0.1505146026611328
1725892567010982400,8.668982421875,-0.964519739151001,-1.079810619354248,-1.007878303527832
1725892567029830700,8.68783056640625,-1.307643175125122,0.23073101043701172,-1.0369505882263184
1725892567048679000,8.706678955078125,1.318406343460083,0.7159180641174316,0.3615226745605469
1725892567067527200,8.725527099609375,-1.2710635662078857,3.277340888977051,-0.7852692604064941
1725892567086375400,8.74437548828125,-2.278181552886963,1.1455912590026855,3.443523406982422
1725892567105223700,8.7632236328125,-2.36960768699646,2.3446226119995117,1.7050518989562988
1725892567124072000,8.782072021484375,-3.5954151153564453,0.6010894775390625,0.023242473602294922
1725892567142920200,8.800920166015626,-1.4414305686950684,-3.2458443641662598,1.4475879669189453
1725892567161768200,8.819768310546875,-1.1931548118591309,-2.5405659675598145,-0.2748885154724121
1725892567180616400,8.838616455078125,-0.5282611846923828,-0.8898143768310547,-0.004187583923339844
1725892567199464700,8.857464599609376,-0.42936038970947266,0.5204510688781738,0.4785737991333008
1725892567218313000,8.87631298828125,1.6675376892089844,0.8088512420654297,-0.4729909896850586
1725892567237161200,8.8951611328125,0.04144906997680664,2.5511860847473145,0.7379679679870605
1725892567256009500,8.914009521484376,-3.989352226257324,4.367243766784668,1.082470417022705
1725892567274857700,8.932857666015625,1.3768131732940674,-1.205275058746338,1.3928256034851074
1725892567293706000,8.9517060546875,0.9801578521728516,-2.08237886428833,1.0586585998535156
1725892567312554000,8.970553955078126,0.051550865173339844,0.7371740341186523,0.2686896324157715
1725892567331402200,8.98940234375,-0.19147777557373047,2.9026107788085938,0.1502218246459961
1725892567350250500,9.00825048828125,-0.049182891845703125,2.0286343097686768,0.21987152099609375
1725892567369098800,9.0270986328125,0.1510615348815918,1.9364709854125977,0.4548501968383789
1725892567387947000,9.045947021484375,0.9879012107849121,1.8587071895599365,0.5367617607116699
1725892567406795300,9.064795166015625,0.11487531661987305,0.4370112419128418,1.2195024490356445
1725892567425643500,9.0836435546875,1.066239833831787,-2.26328182220459,0.17879819869995117
1725892567444491800,9.10249169921875,-0.29588985443115234,-2.57432222366333,-0.24808406829833984
1725892567463340000,9.121340087890625,-1.1650385856628418,-2.8363828659057617,1.0024752616882324
1725892567482188300,9.140188232421876,4.696760654449463,-0.9114890098571777,0.04638051986694336
1725892567501036500,9.15903662109375,-2.313912868499756,-2.2214012145996094,-2.1628074645996094
1725892567519884500,9.177884521484375,0.7557101249694824,-1.3825035095214844,0.4470024108886719
1725892567538733000,9.196733154296876,0.09780168533325195,-2.1684317588806152,-0.7095541954040527
1725892567557581000,9.2155810546875,0.8913669586181641,-1.1488633155822754,-0.36918067932128906
1725892567576429300,9.23442919921875,0.778167724609375,-0.5627427101135254,-1.0168347358703613
1725892567595277600,9.253277587890626,0.406160831451416,0.4263181686401367,-0.9842243194580078
1725892567614125800,9.272125732421875,1.1163716316223145,0.4766826629638672,-0.9499168395996094
1725892567632974000,9.29097412109375,2.004197835922241,0.37984442710876465,-1.7950215339660645
1725892567651822300,9.309822265625,1.4323921203613281,0.45930004119873047,-0.46889495849609375
1725892567670670600,9.328670654296875,1.62522554397583,0.7083396911621094,-2.0651211738586426
1725892567689518800,9.347518798828125,-0.6504116058349609,0.6048815250396729,-0.4416837692260742
1725892567708367000,9.3663671875,0.17989492416381836,1.0562381744384766,-0.7104358673095703
1725892567727215400,9.38521533203125,2.3780767917633057,2.249894142150879,-4.489414691925049
1725892567746063600,9.404063720703125,-1.7643427848815918,1.5060198307037354,-1.6544723510742188
1725892567764911900,9.422911865234376,0.0602869987487793,1.6435878276824951,-0.07623863220214844
1725892567783760100,9.441760009765625,-0.05814933776855469,2.283196449279785,-1.576303482055664
1725892567802608400,9.4606083984375,0.9382874965667725,1.3048200607299805,-0.26444339752197266
1725892567821456400,9.479456298828126,-0.3938612937927246,0.3527379035949707,-1.8536396026611328
1725892567840305000,9.498304931640625,-1.393472671508789,0.6323833465576172,0.8043513298034668
1725892567859153000,9.51715283203125,-0.8473906517028809,1.3652162551879883,-1.157301425933838
1725892567878001200,9.536001220703126,-0.9199409484863281,2.4214701652526855,-1.3788132667541504
1725892567896849400,9.554849365234375,-0.5507450103759766,2.58383846282959,-0.9285135269165039
1725892567915697700,9.57369775390625,0.03187751770019531,1.7554850578308105,1.4479484558105469
1725892567934546000,9.5925458984375,2.0162198543548584,-0.5819587707519531,1.7716422080993652
1725892567953394200,9.611394287109375,-3.027588367462158,-0.087646484375,-0.08181095123291016
1725892567972242400,9.630242431640625,0.5373225212097168,-1.565537929534912,-1.8885226249694824
1725892567991090700,9.649090576171876,-0.06640625,-3.3267946243286133,-3.42553448677063
1725892568009939000,9.66793896484375,0.182830810546875,-2.784135341644287,-2.704786539077759
1725892568028787200,9.686787109375,-0.343656063079834,-2.4519848823547363,-2.53786301612854
1725892568047635500,9.705635498046876,-1.637010097503662,-2.126208782196045,-0.5505237579345703
1725892568066483700,9.724483642578125,1.132500171661377,-0.6475796699523926,0.45172786712646484
1725892568085332000,9.74333203125,-1.057142734527588,-1.0598111152648926,-0.9987039566040039
1725892568104180200,9.76218017578125,-0.8497581481933594,-1.9648475646972656,1.4595465660095215
1725892568123028500,9.781028564453125,-1.177459716796875,-3.1142091751098633,0.1531505584716797
1725892568141876700,9.799876708984375,-0.9563095569610596,-3.8582167625427246,2.9667696952819824
1725892568160725000,9.81872509765625,-0.46323299407958984,-4.1470184326171875,0.4141407012939453
1725892568179573200,9.8375732421875,-2.9943225383758545,-4.196408271789551,1.8948373794555664
1725892568198421500,9.85642138671875,-0.26034021377563477,-1.972015380859375,2.522186756134033
1725892568217269800,9.875269775390626,0.11720633506774902,-1.8525981903076172,0.39035940170288086
1725892568236118000,9.894117919921875,-1.3481590747833252,-0.2494792938232422,-0.038580894470214844
1725892568254966300,9.91296630859375,0.6260027885437012,1.9174485206604004,0.1518564224243164
1725892568273814500,9.931814453125,0.7787952423095703,5.3735857009887695,1.5613436698913574
1725892568292662800,9.950662841796875,0.3062582015991211,3.473501205444336,1.3470735549926758
1725892568311511000,9.969510986328125,1.525615930557251,2.953272581100464,-0.5592250823974609
1725892568330359000,9.988359130859376,1.8257324695587158,5.807206153869629,-0.6167478561401367
1725892568349207600,10.00720751953125,0.02390456199645996,7.949806213378906,-2.437513589859009
1725892568368055600,10.0260556640625,-0.3772773742675781,6.7049560546875,-1.13795804977417
1725892568386904000,10.044904052734376,0.46786022186279297,6.418951988220215,0.44389867782592773
1725892568405752000,10.063751953125,0.21783757209777832,5.319026947021484,-1.864042043685913
1725892568424600300,10.082600341796875,2.039149761199951,1.784367561340332,0.46248817443847656
1725892568443448600,10.101448486328126,1.7009048461914062,-0.3620023727416992,-1.1127872467041016
1725892568462296800,10.120296875,-0.8669757843017578,-11.023486137390137,5.276800155639648
1725892568481145000,10.13914501953125,-0.13820886611938477,-9.995077133178711,6.142366886138916
1725892568499993300,10.157993408203126,-3.3518271446228027,-9.491683959960938,2.5563888549804688
1725892568518841600,10.176841552734375,-1.0384955406188965,-4.800239086151123,0.3836832046508789
1725892568537689900,10.19568994140625,-2.0919179916381836,0.10521316528320312,-1.9071533679962158
1725892568556538000,10.2145380859375,0.5245819091796875,0.8811120986938477,-1.204930067062378
1725892568575386400,10.233386474609375,-0.7913742065429688,2.1892805099487305,-0.10965776443481445
1725892568594234600,10.252234619140625,0.3903675079345703,2.0712990760803223,0.48899316787719727
1725892568613083000,10.271082763671876,0.2804388999938965,0.8744573593139648,0.11855506896972656
1725892568631931100,10.28993115234375,-0.5688214302062988,-2.9212646484375,0.9608383178710938
1725892568650779400,10.308779296875,0.7340846061706543,-5.1094651222229,0.7850360870361328
1725892568669628000,10.3276279296875,0.8415789604187012,-4.701045513153076,-0.34456777572631836
1725892568688476000,10.346475830078125,0.021632671356201172,-3.353475570678711,0.29871225357055664
1725892568707324400,10.365324462890625,-1.399421215057373,-2.281376838684082,1.373487949371338
1725892568726172400,10.38417236328125,-0.5566463470458984,-1.0573458671569824,2.061324119567871
1725892568745021000,10.40302099609375,0.02115631103515625,-0.5462217330932617,1.3054046630859375
1725892568763869200,10.421869140625,1.346198558807373,0.04210615158081055,-0.09992122650146484
1725892568782717400,10.440717529296874,1.4763388633728027,0.5646257400512695,-0.5927634239196777
1725892568801565700,10.459565673828125,0.973933219909668,0.24571800231933594,-1.5467407703399658
1725892568820414000,10.4784140625,-0.41170167922973633,-0.3415861129760742,-0.06649541854858398
1725892568839262200,10.49726220703125,0.4977231025695801,-0.2843947410583496,0.4881281852722168
1725892568858110500,10.5161103515625,3.6885392665863037,-0.9680418968200684,-0.3453536033630371
1725892568876958700,10.534958740234375,1.4364757537841797,1.7335364818572998,-1.013829231262207
1725892568895807000,10.553806884765624,1.203453540802002,0.1401519775390625,0.923250675201416
1725892568914655200,10.5726552734375,2.361663341522217,0.3910963535308838,-0.47847414016723633
1725892568933503500,10.59150341796875,2.016402244567871,0.15640997886657715,-0.5280580520629883
1725892568952351700,10.610351806640624,2.019670009613037,-0.3011622428894043,-0.9950904846191406
1725892568971200000,10.629199951171875,-0.7304997444152832,0.990450382232666,-0.9862315654754639
1725892568990048300,10.64804833984375,0.6290979385375977,-0.9468324184417725,-0.4203662872314453
1725892569008896500,10.666896484375,0.8233909606933594,-0.5628130435943604,-2.084735870361328
1725892569027744800,10.685744873046875,-0.0784311294555664,1.1718113422393799,0.8183860778808594
1725892569046593000,10.704593017578125,2.053154468536377,0.8805985450744629,-1.6217474937438965
1725892569065441300,10.723441162109374,1.886765480041504,-0.13952326774597168,-3.772747039794922
1725892569084289500,10.74228955078125,-0.6008248329162598,0.6948683261871338,0.1667623519897461
1725892569103137800,10.7611376953125,4.13655948638916,0.45182204246520996,-2.470165967941284
1725892569121986000,10.779986083984374,-0.9199390411376953,2.1714041233062744,-3.475013494491577
1725892569140834300,10.798834228515625,2.0727906227111816,0.2557387351989746,0.3156156539916992
1725892569159682600,10.8176826171875,0.16899490356445312,-0.2955286502838135,-4.05678129196167
1725892569178530800,10.83653076171875,-1.108778953552246,-0.6393864154815674,0.5142784118652344
1725892569197379000,10.855379150390625,1.9503822326660156,0.20392465591430664,0.2636995315551758
1725892569216227300,10.874227294921875,0.0768728256225586,1.2447078227996826,-1.2134428024291992
1725892569235075600,10.89307568359375,0.9261784553527832,-0.6835837364196777,-3.2499542236328125
1725892569253923800,10.911923828125,0.443178653717041,0.15847396850585938,-1.8154921531677246
1725892569272772000,10.930772216796875,0.3110041618347168,1.1317112445831299,-0.5204071998596191
1725892569291620400,10.949620361328124,-2.1730995178222656,1.9060194492340088,-0.6434903144836426
1725892569310468600,10.968468505859375,0.4202728271484375,0.6878762245178223,-0.2500462532043457
1725892569329316900,10.98731689453125,-3.0410590171813965,-0.023065567016601562,-0.8170294761657715
1725892569348165000,11.0061650390625,1.002612590789795,-0.586085319519043,5.029513835906982
1725892569367013400,11.025013427734375,0.4458127021789551,-2.2848563194274902,-0.6467595100402832
1725892569385861600,11.043861572265625,-3.5153255462646484,-0.3680586814880371,-1.9840457439422607
1725892569404710000,11.0627099609375,3.617400884628296,-0.2303638458251953,-0.1318826675415039
1725892569423558100,11.08155810546875,-1.9404807090759277,0.3494300842285156,-0.731694221496582
1725892569442406700,11.10040673828125,-0.5530238151550293,0.4355134963989258,1.65494966506958
1725892569461254700,11.119254638671874,1.5677454471588135,-0.20563602447509766,0.5566682815551758
1725892569480103200,11.138103271484376,-2.505138874053955,0.03061819076538086,-0.911653995513916
1725892569498951400,11.156951416015625,-0.8136162757873535,-1.2227306365966797,0.6316056251525879
1725892569517799700,11.175799560546874,0.3331127166748047,-1.4882946014404297,2.9367666244506836
1725892569536648000,11.19464794921875,-1.2096633911132812,-2.309795379638672,-0.35870790481567383
1725892569555496200,11.21349609375,-2.0645694732666016,-1.133206844329834,1.5295562744140625
1725892569574344400,11.232344482421874,0.8577456474304199,-1.1315155029296875,3.146090030670166
1725892569593192700,11.251192626953125,-0.6655418872833252,-1.5742063522338867,2.0906505584716797
1725892569612041000,11.270041015625,-1.1622817516326904,-3.6024203300476074,-1.0451176166534424
1725892569630889200,11.28888916015625,0.07362771034240723,-2.5061521530151367,-0.1530284881591797
1725892569649737500,11.307737548828126,0.13291621208190918,-2.3320064544677734,-0.9023456573486328
1725892569668585700,11.326585693359375,-1.3197863101959229,-0.18434476852416992,-2.6087605953216553
1725892569687434000,11.34543408203125,0.23215222358703613,0.6132264137268066,1.6985101699829102
1725892569706282200,11.3642822265625,1.8761699199676514,-1.0321311950683594,-0.7869570255279541
1725892569725130500,11.383130615234375,0.7459475994110107,-1.4623823165893555,0.17411088943481445
1725892569743978800,11.401978759765624,0.4269397258758545,-0.6899223327636719,-1.4849824905395508
1725892569762827000,11.420826904296876,-0.8147540092468262,-0.812922477722168,-3.052628755569458
1725892569781675300,11.43967529296875,-0.5290684700012207,-0.8041257858276367,0.08632516860961914
1725892569800523500,11.4585234375,0.7399811744689941,-0.07292461395263672,0.24796581268310547
1725892569819371800,11.477371826171876,0.8261501789093018,0.5448093414306641,2.371298313140869
1725892569838220000,11.496219970703125,-0.010485649108886719,1.3740262985229492,1.8429241180419922
1725892569857068300,11.515068359375,-0.9607596397399902,1.6207447052001953,3.08974027633667
1725892569875916500,11.53391650390625,-1.701728343963623,1.4889273643493652,3.46610164642334
1725892569894764800,11.552764892578125,-1.0520224571228027,1.19557523727417,1.8018503189086914
1725892569913613300,11.57161328125,-0.9087648391723633,1.7859344482421875,0.5255889892578125
1725892569932461600,11.590461669921876,0.5907025337219238,2.3205771446228027,1.2787108421325684
1725892569951309800,11.609309814453125,-0.2690420150756836,2.684833526611328,2.945819854736328
1725892569970158000,11.628157958984374,-0.5688128471374512,1.2495222091674805,1.110081672668457
1725892569989006300,11.64700634765625,0.24480628967285156,-0.0014786720275878906,0.056603431701660156
1725892570007854600,11.6658544921875,1.5915565490722656,-0.7630419731140137,-2.343687057495117
1725892570026702800,11.684702880859374,1.1411337852478027,0.9263148307800293,0.3781619071960449
1725892570045551000,11.703551025390626,-0.1299915313720703,-0.2701144218444824,-0.8780012130737305
1725892570064399400,11.7223994140625,-0.25370073318481445,-1.2507658004760742,-1.1496555805206299
1725892570083247600,11.74124755859375,0.44372081756591797,-2.133728504180908,0.08137226104736328
1725892570102096000,11.760095947265626,-0.12274742126464844,-0.2096853256225586,1.8247613906860352
1725892570120944000,11.778944091796875,-1.233503818511963,0.6300535202026367,0.808769702911377
1725892570139792400,11.79779248046875,-3.2337646484375,-1.0279860496520996,0.6336774826049805
1725892570158640600,11.816640625,-2.072005271911621,-3.4017977714538574,2.596735954284668
1725892570177489000,11.835489013671875,0.18422985076904297,-2.6411561965942383,3.8941421508789062
1725892570196337200,11.854337158203125,2.0169806480407715,-0.2998929023742676,-0.0036292076110839844
1725892570215185400,11.873185302734376,0.3609304428100586,0.3372502326965332,-1.1706602573394775
1725892570234033700,11.89203369140625,2.6143341064453125,-1.2289910316467285,-0.7872631549835205
1725892570252882000,11.9108818359375,3.042379856109619,1.3459346294403076,-2.298072338104248
1725892570271730200,11.929730224609376,2.317688465118408,1.614189863204956,-3.5363411903381348
1725892570290578700,11.94857861328125,0.2465381622314453,1.3712072372436523,-2.532569169998169
1725892570309427000,11.967427001953125,2.9176816940307617,-0.019387483596801758,-1.022827386856079
1725892570328275200,11.986275146484376,4.847489833831787,2.0220680236816406,-3.18270206451416
1725892570347123500,12.00512353515625,-3.5106301307678223,0.36020827293395996,-0.1730513572692871
1725892570365971700,12.0239716796875,1.3366403579711914,-0.08896112442016602,2.932030200958252
1725892570384820000,12.042820068359376,1.510450839996338,-0.007355213165283203,-0.5694279670715332
1725892570403668200,12.061668212890625,-0.9793481826782227,-0.9340415000915527,-1.7275264263153076
1725892570422516500,12.0805166015625,-0.33698081970214844,0.9759321212768555,-1.0873498916625977
1725892570441364700,12.09936474609375,0.5794601440429688,1.0828421115875244,-0.2691521644592285
1725892570460213000,12.118212890625,2.6478919982910156,0.7006280422210693,-1.697580337524414
1725892570479061200,12.137061279296875,-0.1124730110168457,-0.11827206611633301,-3.320350408554077
1725892570497909500,12.155909423828126,1.3326530456542969,0.8610260486602783,-0.6255302429199219
1725892570516757800,12.1747578125,1.3402390480041504,1.7012996673583984,-2.162911891937256
1725892570535606000,12.19360595703125,1.0165085792541504,1.0280592441558838,-3.6141793727874756
1725892570554454300,12.212454345703126,-0.5394539833068848,1.662046194076538,-4.413235187530518
1725892570573302500,12.231302490234375,0.05384540557861328,1.0233874320983887,-1.9719276428222656
1725892570592150800,12.25015087890625,-0.4047670364379883,-0.1721043586730957,-0.11111259460449219
1725892570610999000,12.2689990234375,0.6420269012451172,-2.1064515113830566,0.9429416656494141
1725892570629847300,12.287847412109375,-1.6935033798217773,-1.8222880363464355,-1.1012907028198242
1725892570648695600,12.306695556640625,-0.6137247085571289,-0.2592802047729492,0.6910862922668457
1725892570667544000,12.3255439453125,0.9648263454437256,-0.8042097091674805,2.6110095977783203
1725892570686392300,12.344392333984375,-0.26259899139404297,-2.6607799530029297,0.9984555244445801
1725892570705240300,12.363240234375,-1.2504115104675293,-0.6608133316040039,0.7584662437438965
1725892570724088800,12.3820888671875,0.6174337863922119,0.5031018257141113,0.5232639312744141
1725892570742937000,12.40093701171875,0.46328115463256836,-0.018399715423583984,0.13094568252563477
1725892570761785300,12.419785400390625,-1.0980629920959473,-1.070970058441162,-0.40584659576416016
1725892570780633600,12.438633544921874,-1.4355254173278809,0.05707120895385742,0.43436527252197266
1725892570799481900,12.45748193359375,-0.0025582313537597656,-1.454482078552246,2.1081695556640625
1725892570818330000,12.476330078125,-1.516045093536377,-5.208996772766113,2.6075329780578613
1725892570837178400,12.495178466796874,-1.9217915534973145,-5.182055950164795,2.836393356323242
1725892570856026600,12.514026611328125,-0.8128609657287598,-0.7260041236877441,1.4420108795166016
1725892570874875000,12.532875,-0.3008239269256592,-2.760706901550293,1.9558677673339844
1725892570893723100,12.55172314453125,-1.0993242263793945,-5.689398288726807,0.9673566818237305
1725892570912571400,12.5705712890625,-0.45879507064819336,-2.8685011863708496,0.3191032409667969
1725892570931419600,12.589419677734375,-0.5976381301879883,0.32260656356811523,-2.471256732940674
1725892570950268000,12.608267822265624,-0.17308950424194336,2.1550259590148926,0.27672243118286133
1725892570969116200,12.6271162109375,0.5382919311523438,0.521998405456543,-0.8023810386657715
1725892570987964400,12.64596435546875,0.8666801452636719,-0.37027597427368164,0.10073423385620117
1725892571006812700,12.664812744140624,0.41414785385131836,-1.2718043327331543,-0.5040583610534668
1725892571025661000,12.683660888671875,0.5800352096557617,-0.09823751449584961,-2.423095464706421
1725892571044509200,12.70250927734375,0.9229543209075928,0.2333846092224121,0.07888984680175781
1725892571063357400,12.721357421875,1.931394100189209,0.26917314529418945,-0.9684944152832031
1725892571082205700,12.740205810546875,0.8642349243164062,-0.18144989013671875,-0.40665769577026367
1725892571101054200,12.75905419921875,0.3549036979675293,0.557736873626709,0.6348633766174316
1725892571119902200,12.777902099609374,-0.6381587982177734,1.2833104133605957,3.634282112121582
1725892571138750700,12.796750732421875,-1.112877368927002,0.6732163429260254,3.6738381385803223
1725892571157599000,12.815598876953125,-1.7709531784057617,0.47022485733032227,1.3456192016601562
1725892571176447200,12.834447265625,-1.190053939819336,1.0254554748535156,0.7176799774169922
1725892571195295500,12.85329541015625,-0.07462215423583984,1.8025059700012207,1.235236644744873
1725892571214143700,12.872143798828125,0.7113094329833984,0.6554141044616699,-0.4818439483642578
1725892571232992000,12.890991943359374,1.4464116096496582,0.48700475692749023,-0.8076181411743164
1725892571251840300,12.90984033203125,1.2147326469421387,0.12387228012084961,-1.099409580230713
1725892571270688500,12.9286884765625,1.234257698059082,0.856717586517334,-1.2040605545043945
1725892571289536800,12.947536865234374,0.8684835433959961,0.41408538818359375,-0.31462717056274414
1725892571308385000,12.966385009765625,0.8122878074645996,-0.3177170753479004,-0.8797149658203125
1725892571327233300,12.9852333984375,-0.4084172248840332,-0.7793588638305664,0.9029645919799805
1725892571346081500,13.00408154296875,0.6523332595825195,-1.2693381309509277,0.6103396415710449
1725892571364929800,13.0229296875,0.23548030853271484,-0.05539655685424805,1.31378173828125
1725892571383778000,13.041778076171875,0.3519296646118164,-1.029764175415039,-0.3558058738708496
1725892571402626300,13.060626220703124,-0.4990415573120117,-1.5738921165466309,1.6323585510253906
1725892571421474600,13.079474609375,1.7738971710205078,-2.503791332244873,0.22804641723632812
1725892571440322800,13.09832275390625,0.9576139450073242,-0.6012582778930664,-1.3208565711975098
1725892571459171000,13.117171142578124,0.27530765533447266,-0.39502811431884766,-0.9752902984619141
1725892571478019300,13.136019287109375,0.32393407821655273,-0.21824216842651367,-0.5281915664672852
1725892571496867600,13.15486767578125,2.743236541748047,-1.489734172821045,-0.3900456428527832
1725892571515715800,13.1737158203125,1.7121076583862305,-0.7298922538757324,-1.2555510997772217
1725892571534564000,13.192564208984376,0.45410633087158203,0.8472483158111572,-1.8038594722747803
1725892571553412400,13.211412353515625,1.4963464736938477,3.9378979206085205,-1.2639236450195312
1725892571572260600,13.230260498046874,2.6226706504821777,0.9451372623443604,-1.9894437789916992
1725892571591108900,13.24910888671875,-0.3897705078125,1.1385319232940674,-0.9579141139984131
1725892571609957000,13.26795703125,0.6888480186462402,-0.4918484687805176,-0.1724252700805664
1725892571628805400,13.286805419921874,-0.5270318984985352,0.45664453506469727,-1.4069890975952148
1725892571647653600,13.305653564453126,0.2247757911682129,-1.7450356483459473,1.256885051727295
1725892571666502000,13.324501953125,-0.2641448974609375,2.1903154850006104,-2.228322982788086
1725892571685350400,13.343350341796874,0.5718660354614258,2.035569190979004,0.0814814567565918
1725892571704198400,13.362198486328126,2.370922088623047,1.5102096796035767,-2.354276418685913
1725892571723047000,13.381046875,0.032378196716308594,0.9425802230834961,-2.4035580158233643
1725892571741895000,13.39989501953125,0.8155193328857422,1.1605780124664307,-0.860323429107666
1725892571760743400,13.418743408203126,-0.34880495071411133,1.4597125053405762,-1.611577033996582
1725892571779591700,13.437591796875,0.010289669036865234,0.389819860458374,-0.46108531951904297
1725892571798440000,13.45643994140625,0.3574204444885254,0.8113195896148682,-0.029510974884033203
1725892571817288200,13.4752880859375,0.3703484535217285,0.8574845790863037,-0.9880280494689941
1725892571836136400,13.494136474609375,-0.3904905319213867,0.9249215126037598,-2.0469861030578613
1725892571854984700,13.512984619140624,1.7597894668579102,0.667975902557373,0.002681255340576172
1725892571873833000,13.5318330078125,-0.23333168029785156,0.6778736114501953,-0.8610610961914062
1725892571892681200,13.55068115234375,0.1682276725769043,-1.5598406791687012,-1.766974687576294
1725892571911529500,13.569529541015624,-0.7530755996704102,-0.547208309173584,-0.8345413208007812
1725892571930377700,13.588377685546876,0.7621798515319824,-0.3248767852783203,1.0511198043823242
1725892571949226000,13.60722607421875,-1.5007843971252441,-0.23933792114257812,0.027667999267578125
1725892571968074200,13.62607421875,-0.8045058250427246,0.18595123291015625,1.778264045715332
1725892571986922500,13.644922607421876,1.0525786876678467,-0.6045360565185547,0.49361658096313477
1725892572005770800,13.663770751953125,-0.34756898880004883,-0.697725772857666,-1.3121509552001953
1725892572024619000,13.682618896484374,-0.3542799949645996,-0.8536601066589355,-2.432727575302124
1725892572043467300,13.70146728515625,0.10124683380126953,-0.08458709716796875,1.607172966003418
1725892572062315500,13.7203154296875,-0.5766568183898926,-2.6795873641967773,3.406264305114746
1725892572081163800,13.739163818359375,-0.7371687889099121,-5.099580764770508,5.795380115509033
1725892572100012000,13.758011962890626,-0.7076613903045654,-6.818055629730225,2.827198028564453
1725892572118860300,13.7768603515625,-0.888974666595459,-0.9664397239685059,-0.868215799331665
1725892572137708500,13.79570849609375,0.018667936325073242,0.5680370330810547,-0.9463613033294678
1725892572156556800,13.814556884765626,1.597233533859253,-0.535557746887207,-1.5927493572235107
1725892572175405000,13.833405029296875,0.4763157367706299,-0.8822307586669922,-2.8173012733459473
1725892572194253300,13.85225341796875,-0.09341597557067871,-0.05874204635620117,-0.027825355529785156
1725892572213101600,13.8711015625,-1.756103754043579,-2.120185375213623,0.9248867034912109
1725892572231949800,13.88994970703125,-1.8332915306091309,-3.4139246940612793,-0.09588098526000977
1725892572250798000,13.908798095703125,0.4878199100494385,-0.6906852722167969,-0.7777349948883057
1725892572269646300,13.927646240234376,2.5584304332733154,1.7105751037597656,-1.0382928848266602
1725892572288494600,13.94649462890625,1.4820823669433594,2.01035213470459,-1.4149820804595947
1725892572307342800,13.9653427734375,0.31773853302001953,0.23916053771972656,0.5832815170288086
1725892572326191000,13.984191162109376,-0.38463878631591797,-1.2154812812805176,1.5836458206176758
1725892572345039400,14.003039306640625,-2.420292854309082,-1.6775903701782227,0.5460023880004883
1725892572363887600,14.0218876953125,-2.939980983734131,-1.922264575958252,3.8490281105041504
1725892572382736000,14.04073583984375,-1.9973654747009277,-2.483907699584961,3.6529531478881836
1725892572401584000,14.059584228515625,-0.48468017578125,-2.136504650115967,3.129251003265381
1725892572420432400,14.078432373046875,1.004941463470459,0.13166141510009766,-0.5685529708862305
1725892572439280600,14.09728076171875,1.2430739402770996,2.2719874382019043,-0.8585877418518066
1725892572458129000,14.11612890625,1.2065773010253906,1.6128463745117188,1.6429309844970703
1725892572476977200,14.13497705078125,-1.090372085571289,-1.52949857711792,1.4246001243591309
1725892572495825400,14.153825439453126,-2.1794676780700684,-2.085184097290039,1.3789005279541016
1725892572514673700,14.172673583984375,0.15658140182495117,-0.7135491371154785,1.7179231643676758
1725892572533522000,14.19152197265625,2.6147942543029785,0.8242893218994141,1.1272516250610352
1725892572552370200,14.2103701171875,3.0483956336975098,1.9991586208343506,-1.1208772659301758
1725892572571218400,14.229218505859375,1.2447028160095215,1.7224230766296387,-0.682978630065918
1725892572590066700,14.248066650390625,0.11191177368164062,-0.9476814270019531,0.16207313537597656
1725892572608915000,14.2669150390625,1.1226673126220703,-2.339388847351074,1.427825927734375
1725892572627763200,14.28576318359375,1.101768970489502,-1.3127532005310059,0.1353445053100586
1725892572646611500,14.304611572265625,0.8413095474243164,0.33959436416625977,-0.3556218147277832
1725892572665459700,14.323459716796876,2.8291540145874023,0.3447709083557129,-1.8085780143737793
1725892572684308000,14.342307861328125,3.142146587371826,2.037863254547119,-2.02361798286438
1725892572703156200,14.36115625,0.8143668174743652,3.4389052391052246,-1.4099631309509277
1725892572722004500,14.38000439453125,0.5889949798583984,-1.3819332122802734,-1.657860517501831
1725892572740852700,14.398852783203125,-1.3215112686157227,-3.169762134552002,-1.7560820579528809
1725892572759700700,14.41770068359375,-2.212216377258301,-0.7281284332275391,4.113074779510498
1725892572778549200,14.43654931640625,-0.891350269317627,-0.5988779067993164,1.4290380477905273
1725892572797397200,14.455397216796875,-0.5825338363647461,-1.958843469619751,1.125244140625
1725892572816245800,14.474245849609375,1.5554766654968262,-2.0839684009552,2.545978546142578
1725892572835093800,14.49309375,1.7757716178894043,1.5322251319885254,0.37265443801879883
1725892572853942000,14.51194189453125,3.0814108848571777,1.7233285903930664,-2.330052375793457
1725892572872790300,14.530790283203125,0.5685744285583496,2.848335027694702,-2.953118085861206
1725892572891638500,14.549638427734376,1.0407686233520508,-0.4544558525085449,-0.32613372802734375
1725892572910486800,14.56848681640625,2.1683101654052734,-0.6773715019226074,-0.11903524398803711
1725892572929335000,14.5873349609375,3.381746768951416,-1.1166698932647705,-2.12960147857666
1725892572948183300,14.606183349609376,4.310433387756348,-0.4707651138305664,-4.483423709869385
1725892572967031600,14.625031494140625,-0.1142735481262207,2.7640137672424316,-5.232876777648926
1725892572985879800,14.6438798828125,4.372209548950195,1.056481122970581,1.0225400924682617
1725892573004728000,14.66272802734375,3.8533482551574707,0.9624412059783936,-5.557101249694824
1725892573023576300,14.681576416015625,-1.6848959922790527,5.089282035827637,-4.105163097381592
1725892573042424600,14.700424560546875,-0.23357057571411133,3.8352572917938232,-1.3116633892059326
1725892573061272800,14.71927294921875,-0.09452533721923828,3.4858529567718506,1.2392067909240723
1725892573080121000,14.73812109375,-0.34249019622802734,-0.01220560073852539,1.4576215744018555
1725892573098969300,14.75696923828125,-1.9968504905700684,-0.9163112640380859,1.868011474609375
1725892573117817600,14.775817626953126,-0.2896003723144531,-0.1370558738708496,4.554694175720215
1725892573136665900,14.794665771484375,0.21009254455566406,-0.06708669662475586,0.37996339797973633
1725892573155514000,14.81351416015625,-0.5606288909912109,0.7140402793884277,-1.3244056701660156
1725892573174362400,14.8323623046875,0.4165635108947754,0.5562686920166016,-0.5625224113464355
1725892573193210600,14.851210693359375,-0.3499746322631836,0.44210243225097656,-2.3019444942474365
1725892573212059000,14.870058837890625,0.6503357887268066,-0.25431394577026367,-1.4667942523956299
1725892573230907100,14.8889072265625,-0.37769222259521484,-1.2294731140136719,0.0966339111328125
1725892573249755400,14.90775537109375,-0.07965373992919922,-1.3392047882080078,1.1931920051574707
1725892573268603600,14.926603759765625,0.13600635528564453,-1.4593596458435059,0.8786091804504395
1725892573287452000,14.945451904296876,-0.3133420944213867,-2.51241397857666,0.31330251693725586
1725892573306300000,14.9642998046875,-0.612800121307373,-2.7271924018859863,1.14581298828125
1725892573325148400,14.9831484375,-0.03986763954162598,-1.6075401306152344,2.569596290588379
1725892573343996400,15.001996337890626,-1.1849191188812256,-3.0847058296203613,1.4417457580566406
1725892573362844700,15.0208447265625,-1.0511555671691895,-2.6287922859191895,3.5151829719543457
1725892573381693000,15.03969287109375,1.0129542350769043,-1.8826794624328613,1.1311626434326172
1725892573400541200,15.058541259765626,-1.0784811973571777,-0.9178175926208496,-1.4575395584106445
1725892573419389400,15.077389404296875,0.20226144790649414,-1.1646275520324707,1.4842805862426758
1725892573438237700,15.09623779296875,0.1722545623779297,-0.6887297630310059,-1.7098360061645508
1725892573457086000,15.1150859375,-1.2163074016571045,-1.0419988632202148,1.9399828910827637
1725892573475934200,15.133934326171875,0.060639381408691406,-0.7807464599609375,-1.1301202774047852
1725892573494782500,15.152782470703125,-0.32478761672973633,0.28797054290771484,-0.5120644569396973
1725892573513630700,15.171630615234376,0.23196029663085938,0.29068756103515625,-1.4168086051940918
1725892573532479000,15.19047900390625,0.02490830421447754,-0.13663101196289062,-0.015764713287353516
1725892573551327200,15.2093271484375,-0.8412775993347168,-1.6902012825012207,-2.9587204456329346
1725892573570175500,15.228175537109376,-0.8697757720947266,-0.8955435752868652,-1.0171384811401367
1725892573589023700,15.247023681640625,-0.6462469100952148,-2.3296384811401367,0.1701202392578125
1725892573607872000,15.2658720703125,-0.7442960739135742,-3.4358816146850586,0.5594639778137207
1725892573626720300,15.28472021484375,-0.9074993133544922,-1.8065595626831055,-0.679600715637207
1725892573645568500,15.303568603515625,0.058881282806396484,0.3518948554992676,1.7475099563598633
1725892573664416800,15.322416748046875,0.333768367767334,-1.4367876052856445,0.4953951835632324
1725892573683264800,15.3412646484375,-1.0250186920166016,-0.5786995887756348,0.17401599884033203
1725892573702113300,15.36011328125,-1.5372910499572754,0.0025358200073242188,0.3897237777709961
1725892573720961300,15.378961181640625,-0.9585766792297363,0.44997453689575195,0.9317793846130371
1725892573739809500,15.3978095703125,-0.7939009666442871,-0.1304187774658203,1.6556529998779297
1725892573758657800,15.41665771484375,-0.04828453063964844,0.7044672966003418,1.3433918952941895
1725892573777506000,15.435506103515625,0.104949951171875,0.4699440002441406,0.27035045623779297
1725892573796354300,15.454354248046876,1.4239180088043213,1.0337514877319336,0.39947986602783203
1725892573815202600,15.47320263671875,0.4939999580383301,0.9786219596862793,2.334733486175537
1725892573834050800,15.49205078125,0.5988402366638184,-0.2054595947265625,0.17921924591064453
1725892573852899000,15.510899169921874,0.575993537902832,0.27254581451416016,-0.4053463935852051
1725892573871747300,15.529747314453125,1.428856372833252,0.35645437240600586,-1.1134181022644043
1725892573890595600,15.548595703125,-0.26918935775756836,0.5688281059265137,-1.1288766860961914
1725892573909443800,15.56744384765625,-0.892488956451416,-1.5023536682128906,-0.0064373016357421875
1725892573928292000,15.5862919921875,-1.1031436920166016,-2.8455052375793457,0.1265411376953125
1725892573947140400,15.605140380859375,-0.2505226135253906,-2.673147678375244,-0.4948596954345703
1725892573965988400,15.62398828125,-1.010502815246582,-1.7633051872253418,1.038642406463623
1725892573984836600,15.642836669921875,0.3811326026916504,-2.2593679428100586,0.6779055595397949
1725892574003684900,15.661684814453125,0.36958980560302734,-0.5787863731384277,0.897275447845459
1725892574022533000,15.680533203125,1.0740785598754883,-0.1819596290588379,0.034996986389160156
1725892574041381400,15.69938134765625,0.27339839935302734,1.660717248916626,-0.5214433670043945
1725892574060229600,15.718229736328125,2.8565096855163574,-0.04619860649108887,-0.7857265472412109
1725892574079078000,15.737077880859376,4.372551918029785,0.3816204071044922,-4.763156414031982
1725892574097926100,15.755926025390625,0.006125926971435547,4.810896396636963,-2.2455246448516846
1725892574116774400,15.7747744140625,4.1774001121521,-0.31798529624938965,-2.6222920417785645
1725892574135622700,15.79362255859375,1.27421236038208,1.4327983856201172,-5.46947717666626
1725892574154471000,15.812470947265625,0.15593910217285156,-1.4744622707366943,1.7491669654846191
1725892574173319200,15.831319091796875,1.9029860496520996,1.6689937114715576,-2.8595988750457764
1725892574192167400,15.85016748046875,-0.15935850143432617,2.338010787963867,0.5818195343017578
1725892574211015400,15.869015380859375,0.574455738067627,-0.6881363391876221,-1.8191237449645996
1725892574229863700,15.88786376953125,-0.4985966682434082,1.810003638267517,2.3111767768859863
1725892574248712000,15.9067119140625,0.17917823791503906,1.501639723777771,-0.589454174041748
1725892574267560200,15.925560302734375,-2.8457694053649902,0.8950989246368408,-1.1384162902832031
1725892574286408400,15.944408447265625,-1.588388442993164,-3.7850193977355957,3.4743380546569824
1725892574305256700,15.963256591796876,1.755599021911621,-1.3125059604644775,1.6265902519226074
1725892574324105000,15.98210498046875,-0.05023336410522461,-1.2964468002319336,-1.714270830154419
1725892574342953200,16.000953125,-0.9575166702270508,0.8002228736877441,-1.8932292461395264
1725892574361801500,16.019801513671876,2.9185664653778076,0.928551435470581,1.1998052597045898
1725892574380649700,16.038649658203123,3.6661365032196045,0.25953102111816406,-3.0356812477111816
1725892574399498000,16.057498046875,0.6664094924926758,1.6412653923034668,-5.475885391235352
1725892574418346200,16.07634619140625,3.0942816734313965,2.379747152328491,-2.7781710624694824
1725892574437194200,16.0951943359375,2.51851487159729,2.209139585494995,-5.3157196044921875
1725892574456042500,16.11404248046875,0.02908182144165039,3.8794569969177246,-4.118658065795898
1725892574474890800,16.132890869140624,-0.08605575561523438,3.4278993606567383,-0.9846320152282715
1725892574493739000,16.151739013671875,-1.0872488021850586,0.5006027221679688,-0.6620383262634277
1725892574512587300,16.170587158203126,0.5371932983398438,-1.110001564025879,1.5578851699829102
1725892574531435500,16.189435546875,-1.1491179466247559,-1.0695457458496094,2.206881046295166
1725892574550283800,16.20828369140625,-0.3372044563293457,-0.3243885040283203,1.9485797882080078
1725892574569132000,16.227132080078125,0.6401267051696777,0.2069087028503418,1.1190009117126465
1725892574587980300,16.245980224609376,-0.9379301071166992,-0.48291921615600586,1.5700621604919434
1725892574606828300,16.264828369140623,-0.19277191162109375,-0.9680476188659668,1.5266637802124023
1725892574625676500,16.283676513671875,-1.6534457206726074,-0.700253963470459,1.637129306793213
1725892574644524800,16.30252490234375,-1.7027349472045898,-3.1320157051086426,2.1659140586853027
1725892574663373000,16.321373046875,-1.9463443756103516,-3.658015727996826,3.169874668121338
1725892574682221300,16.34022119140625,-0.4306936264038086,-3.354243755340576,1.5780773162841797
1725892574701069600,16.359069580078124,-0.6961424350738525,-2.2648048400878906,-0.382171630859375
1725892574719917800,16.377917724609375,-0.6526968479156494,-2.2667713165283203,-1.1022591590881348
1725892574738766000,16.39676611328125,0.21008777618408203,-0.25043630599975586,-0.6025128364562988
1725892574757614300,16.4156142578125,0.5753378868103027,0.7545099258422852,1.466169834136963
1725892574776462600,16.434462646484373,-0.15079903602600098,0.6827454566955566,-1.8883988857269287
1725892574795310600,16.453310546875,0.7903594970703125,1.5311627388000488,-2.5150997638702393
1725892574814158800,16.472158935546876,1.6634624004364014,2.0519795417785645,-1.615657091140747
1725892574833007000,16.491007080078123,1.1491608619689941,0.6788039207458496,1.508565902709961
1725892574851855400,16.50985546875,-1.558215856552124,-3.8461661338806152,-1.3169281482696533
1725892574870703600,16.52870361328125,-2.700510263442993,-2.4175519943237305,-0.07643556594848633
1725892574889552000,16.5475517578125,-0.6616301536560059,-1.1064438819885254,2.0294623374938965
1725892574908400000,16.566400146484376,-0.32700634002685547,-0.6947150230407715,1.441002368927002
1725892574927248400,16.585248291015624,-0.9104647636413574,-2.086516857147217,1.8601841926574707
1725892574946096600,16.6040966796875,-0.5755863189697266,-0.7393121719360352,1.2679767608642578
1725892574964945000,16.62294482421875,-1.2402644157409668,-0.04491233825683594,2.9128799438476562
1725892574983793000,16.64179296875,-0.3996396064758301,0.29070568084716797,0.7305493354797363
1725892575002641200,16.66064111328125,-0.03296613693237305,0.6018595695495605,0.157958984375
1725892575021489400,16.679489501953125,0.25690793991088867,0.031740665435791016,-0.6746830940246582
1725892575040337700,16.698337646484376,-1.1418476104736328,-0.45387697219848633,1.4570074081420898
1725892575059186000,16.71718603515625,0.2125072479248047,-1.1175765991210938,0.1337890625
1725892575078034200,16.7360341796875,0.7757344245910645,1.0583839416503906,-1.7188456058502197
1725892575096882400,16.75488232421875,1.6621737480163574,1.7627959251403809,-0.778841495513916
1725892575115730400,16.77373046875,-0.3146243095397949,1.9543390274047852,0.49179935455322266
1725892575134578700,16.79257861328125,-1.0932893753051758,-0.5480227470397949,0.636023998260498
1725892575153427000,16.811427001953124,-0.25257444381713867,0.9759173393249512,2.016116142272949
1725892575172275200,16.830275146484375,-0.0032205581665039062,0.15051507949829102,2.1221251487731934
1725892575191123500,16.84912353515625,-1.0182175636291504,-0.8464365005493164,0.5629167556762695
1725892575209971700,16.8679716796875,0.1509227752685547,-1.7939033508300781,0.8915519714355469
1725892575228820000,16.886820068359373,1.0535082817077637,-1.413144588470459,0.6228375434875488
1725892575247668200,16.905668212890625,1.166151523590088,-1.1728391647338867,-0.47222089767456055
1725892575266516200,16.92451611328125,-1.124222755432129,-1.1240248680114746,0.8427767753601074
1725892575285364500,16.943364501953123,0.8960609436035156,-3.0344247817993164,0.3491535186767578
1725892575304212700,16.962212646484375,2.9663708209991455,-0.3410153388977051,-0.961444616317749
1725892575323061000,16.98106103515625,0.7203431129455566,2.4536404609680176,-1.3568639755249023
1725892575341909200,16.9999091796875,-0.4190335273742676,1.795668601989746,-0.9539899826049805
1725892575360757500,17.018757568359376,1.0513725280761719,-0.8010330200195312,-1.5840182304382324
1725892575379605800,17.037605712890624,2.006422519683838,-0.9382996559143066,-1.353813648223877
1725892575398453800,17.056453857421875,0.5761017799377441,0.5834736824035645,-1.641887903213501
1725892575417302000,17.075302001953126,0.6910576820373535,0.03618049621582031,-2.1701714992523193
1725892575436150300,17.094150390625,1.2377333641052246,0.7090649604797363,-1.0823643207550049
1725892575454998500,17.11299853515625,2.6860361099243164,-1.0709547996520996,-0.45954132080078125
1725892575473846800,17.1318466796875,0.8560004234313965,2.218811511993408,-2.208131790161133
1725892575492695000,17.150695068359376,-2.0766968727111816,2.112586736679077,0.08643293380737305
1725892575511543300,17.169543212890623,0.1142892837524414,0.5842375755310059,-0.2965855598449707
1725892575530391300,17.188391357421875,0.6981925964355469,-0.5270421504974365,1.3118810653686523
1725892575549239600,17.207239501953126,0.18249225616455078,2.6939122676849365,-1.7400104999542236
1725892575568087800,17.226087890625,-1.350501537322998,1.7914923429489136,0.5075035095214844
1725892575586936000,17.24493603515625,0.8436956405639648,0.9070677757263184,-1.2806172370910645
1725892575605784300,17.263784423828124,0.3174319267272949,0.6500639915466309,0.18036842346191406
1725892575624632600,17.282632568359375,0.7112569808959961,0.9362075328826904,-2.180842876434326
1725892575643480800,17.301480712890626,0.4022655487060547,1.4925992488861084,-2.0996644496917725
1725892575662328800,17.320328857421874,1.2275328636169434,0.6450002193450928,-1.3539800643920898
1725892575681177000,17.339177001953125,1.0470447540283203,1.5741806030273438,-1.59175443649292
1725892575700025300,17.358025390625,2.7157771587371826,1.1684999465942383,-1.859149694442749
1725892575718873600,17.37687353515625,0.031144142150878906,1.396347999572754,-3.8687238693237305
1725892575737721900,17.395721923828123,1.2362852096557617,2.233035087585449,-1.4052248001098633
1725892575756569900,17.41456982421875,0.08740711212158203,2.100694179534912,-1.134389877319336
1725892575775418000,17.433418212890626,-0.3508434295654297,0.45384931564331055,-0.5561108589172363
1725892575794266400,17.452266357421873,-0.7931957244873047,-2.747169017791748,-0.04500770568847656
1725892575813114600,17.471114501953124,-1.0800647735595703,-2.5354971885681152,3.2906646728515625
1725892575831963000,17.489962890625,0.0758824348449707,-1.5293211936950684,4.197330951690674
1725892575850811100,17.50881103515625,-1.155911922454834,-0.8318428993225098,-0.4046292304992676
1725892575869659100,17.5276591796875,-1.0000019073486328,0.494844913482666,-0.16563749313354492
1725892575888507400,17.54650732421875,1.3823697566986084,0.26952362060546875,1.44462251663208
1725892575907355600,17.565355712890625,-0.819847583770752,-0.8707432746887207,-2.10561466217041
1725892575926204000,17.584203857421876,-1.3124518394470215,-0.6019763946533203,-1.6529316902160645
1725892575945052200,17.60305224609375,0.282900333404541,-2.110400676727295,-0.18886947631835938
1725892575963900400,17.621900390625,-0.6373302936553955,-1.5354509353637695,1.484004020690918
1725892575982748400,17.64074853515625,-0.9243123531341553,-2.218776226043701,0.8674426078796387
1725892576001596700,17.6595966796875,-0.020669937133789062,-0.9595727920532227,-0.29294729232788086
1725892576020445000,17.67844482421875,-0.23163247108459473,-0.41046667098999023,-0.6676204204559326
1725892576039293200,17.697293212890624,0.7127366065979004,0.4681735038757324,0.074676513671875
1725892576058141400,17.716141357421876,-0.42958545684814453,0.36173152923583984,1.6495871543884277
1725892576076989700,17.73498974609375,-1.457148790359497,0.20897388458251953,0.7425532341003418
1725892576095837700,17.753837646484374,-2.457268238067627,-1.3079142570495605,2.0314207077026367
1725892576114686000,17.77268603515625,-1.8876457214355469,-2.890397071838379,3.133880138397217
1725892576133534200,17.7915341796875,-2.118089199066162,-1.1065211296081543,2.602999687194824
1725892576152382500,17.810382568359376,-0.6472213268280029,0.5812587738037109,0.16770505905151367
1725892576171230700,17.829230712890624,-0.22139692306518555,-2.368234634399414,1.0810551643371582
1725892576190078700,17.84807861328125,0.15201163291931152,-3.2779994010925293,-0.3762526512145996
1725892576208927000,17.866927001953126,-1.2338871955871582,0.5986337661743164,1.2268500328063965
1725892576227775200,17.885775146484374,-0.6168680191040039,2.015420436859131,1.1499948501586914
1725892576246623500,17.90462353515625,1.1307530403137207,0.4108457565307617,1.5108413696289062
1725892576265471700,17.9234716796875,2.0291643142700195,-1.2587776184082031,-1.454932689666748
1725892576284320000,17.942320068359376,0.13840007781982422,-0.707911491394043,-1.3023228645324707
1725892576303168000,17.96116796875,-0.2800722122192383,0.5723309516906738,-0.4017949104309082
1725892576322016300,17.980016357421874,-0.6685118675231934,0.8185982704162598,0.950016975402832
1725892576340864500,17.998864501953125,0.12769317626953125,-1.4682116508483887,0.5704426765441895
1725892576359712800,18.017712646484377,-1.3575639724731445,-0.6261882781982422,1.0516490936279297
1725892576378561000,18.03656103515625,0.05803251266479492,0.23228216171264648,-0.3878798484802246
1725892576397409000,18.055408935546875,1.9804198741912842,3.4625258445739746,0.8851313591003418
1725892576416257300,18.07425732421875,1.7190535068511963,1.41353178024292,0.2729463577270508
1725892576435105500,18.09310546875,0.11617708206176758,1.1385293006896973,-1.2159411907196045
1725892576453953800,18.111953857421874,0.9895024299621582,1.3609199523925781,-1.449488878250122
1725892576472801800,18.1308017578125,-0.3885164260864258,2.0555367469787598,1.004951000213623
1725892576491650000,18.149650146484376,-3.1112828254699707,-2.61726713180542,3.6576409339904785
1725892576510498300,18.168498291015624,-0.3243980407714844,-6.2778449058532715,2.0607542991638184
1725892576529346600,18.1873466796875,2.1288986206054688,-3.727935791015625,0.18875932693481445
1725892576548194800,18.20619482421875,0.2585735321044922,1.136828899383545,-0.3928556442260742
1725892576567042800,18.225042724609374,-2.1120071411132812,1.799201488494873,0.0680851936340332
1725892576585891000,18.24389111328125,-3.3600239753723145,-0.5368523597717285,1.960235595703125
1725892576604739300,18.2627392578125,2.364748954772949,-3.0498194694519043,1.9652290344238281
1725892576623587600,18.281587646484375,2.6595168113708496,-0.595695972442627,-2.472937822341919
1725892576642435600,18.300435546875,-0.6483669281005859,3.125619649887085,0.02044534683227539
1725892576661283800,18.319283935546874,2.3927478790283203,-0.8678708076477051,-2.5928502082824707
1725892576680132000,18.338132080078125,2.635301113128662,0.3167300224304199,-2.9374825954437256
1725892576698980400,18.35698046875,2.382391929626465,1.0517477989196777,-3.0009994506835938
1725892576717828600,18.37582861328125,2.073373317718506,2.2478652000427246,-2.2058053016662598
1725892576736676600,18.394676513671875,2.051135540008545,0.6578731536865234,-3.745976686477661
1725892576755524900,18.41352490234375,0.6551575660705566,1.1723790168762207,-1.012958288192749
1725892576774373000,18.432373046875,0.44732046127319336,0.08216738700866699,-1.468224287033081
1725892576793221400,18.451221435546874,-1.6311874389648438,2.3044567108154297,0.4614434242248535
1725892576812069600,18.470069580078125,-0.8053102493286133,0.8497867584228516,1.5821423530578613
1725892576830917600,18.488917724609376,1.2353439331054688,-0.07984352111816406,-1.4057395458221436
1725892576849766000,18.507765869140623,-1.352877140045166,3.213467597961426,0.4954700469970703
1725892576868614100,18.5266142578125,0.13497495651245117,-0.8566427230834961,1.5382065773010254
1725892576887462100,18.545462158203126,2.406039237976074,-0.64188551902771,-2.779658317565918
1725892576906310400,18.564310302734373,0.5396132469177246,2.354104995727539,-1.6970057487487793
1725892576925158700,18.58315869140625,1.6786260604858398,2.8532543182373047,-1.382594108581543
1725892576944007000,18.6020068359375,1.1884398460388184,3.4700422286987305,-4.259110450744629
1725892576962855000,18.62085498046875,-1.1549625396728516,2.4055287837982178,-1.287487506866455
1725892576981703200,18.639703125,1.3604812622070312,-0.2677607536315918,1.501476764678955
1725892577000551400,18.658551513671874,2.4313390254974365,-2.08516263961792,-0.04717206954956055
1725892577019399700,18.677399658203125,0.2885103225708008,-1.4483485221862793,-1.2912516593933105
1725892577038248000,18.696248046875,-0.5973401069641113,0.21801424026489258,1.3524422645568848
1725892577057096000,18.715095947265624,-0.6690464019775391,-0.3939046859741211,1.262028694152832
1725892577075944200,18.733944091796875,-0.4565563201904297,-1.5853157043457031,1.7848339080810547
1725892577094792400,18.75279248046875,1.9737048149108887,-3.201096534729004,2.036098003387451
1725892577113640700,18.771640625,0.7599458694458008,-1.2590017318725586,0.16677427291870117
1725892577132488700,18.79048876953125,-0.3248600959777832,1.057178020477295,-2.6858389377593994
1725892577151337000,18.8093369140625,-1.7205891609191895,1.655148983001709,-1.7758982181549072
1725892577170185200,18.828185302734376,-1.5042781829833984,-1.0572972297668457,1.8276128768920898
1725892577189033500,18.847033447265623,-1.5672974586486816,-4.027919769287109,3.6960630416870117
1725892577207881500,18.865881591796875,-1.3763799667358398,-3.635043144226074,1.6088757514953613
1725892577226729700,18.884729736328126,-0.6584310531616211,-1.7116565704345703,-0.5351364612579346
1725892577245578000,18.903577880859373,-0.25011301040649414,-0.19160747528076172,0.3273591995239258
1725892577264426200,18.92242626953125,-0.7544746398925781,-0.9685068130493164,1.5410199165344238
1725892577283274200,18.941274169921876,-1.9246840476989746,-2.4573068618774414,1.7540674209594727
1725892577302122500,18.96012255859375,-0.9538154602050781,-2.8207626342773438,2.6776599884033203
1725892577320970800,18.978970703125,-0.5288283824920654,-1.0272107124328613,0.3725004196166992
1725892577339819000,18.997819091796874,-0.6704108715057373,0.12438440322875977,0.31788063049316406
1725892577358667000,19.0166669921875,0.33014869689941406,0.14267349243164062,1.4108023643493652
1725892577377515300,19.035515380859376,0.6164648532867432,-1.1531457901000977,0.9736452102661133
1725892577396363500,19.054363525390624,-0.14908361434936523,0.2877516746520996,-3.2981839179992676
1725892577415211500,19.07321142578125,0.4056823253631592,1.620314598083496,-0.5771498680114746
1725892577434059800,19.092059814453126,1.5694890022277832,0.5274782180786133,-1.760603904724121
1725892577452908000,19.110907958984374,-0.518162727355957,-0.7267551422119141,-0.0579676628112793
1725892577471756300,19.12975634765625,-0.1591181755065918,-1.1539011001586914,-1.1904487609863281
1725892577490604300,19.148604248046876,-0.9020671844482422,-0.25153017044067383,0.7294092178344727
1725892577509452500,19.16745263671875,0.38144922256469727,-0.8688654899597168,0.26108407974243164
1725892577528300800,19.18630078125,0.31891632080078125,-0.25353336334228516,0.4734230041503906
1725892577547149000,19.205149169921874,0.5951714515686035,-0.6611394882202148,-0.6831364631652832
1725892577565997000,19.2239970703125,0.12506484985351562,0.45049428939819336,0.37601518630981445
1725892577584845300,19.24284521484375,-0.35665273666381836,1.4253973960876465,0.4728546142578125
1725892577603693600,19.261693603515624,0.5355610847473145,1.2283291816711426,0.03396940231323242
1725892577622541600,19.28054150390625,-0.13076400756835938,1.0387086868286133,0.1447911262512207
1725892577641389800,19.299389892578127,-0.29560422897338867,0.06390953063964844,0.12144756317138672
1725892577660238000,19.318238037109374,-1.705392837524414,0.3112983703613281,1.7456426620483398
1725892577679086300,19.33708642578125,-0.29880619049072266,-1.0168027877807617,2.256875514984131
1725892577697934300,19.355934326171877,-1.4931602478027344,-1.768517017364502,1.7002630233764648
1725892577716782600,19.374782470703124,-0.5530061721801758,-2.540286064147949,1.14381742477417
1725892577735630800,19.393630859375,-0.05764198303222656,-2.5844578742980957,0.7280030250549316
1725892577754478800,19.412478759765627,-0.28432703018188477,-3.0544981956481934,1.2213592529296875
1725892577773327000,19.4313271484375,1.0596551895141602,-2.357196807861328,1.1231207847595215
1725892577792175400,19.45017529296875,2.3120908737182617,-0.8596959114074707,-2.5101816654205322
1725892577811023400,19.4690234375,1.1245265007019043,3.085160255432129,-1.3081707954406738
1725892577829871600,19.48787158203125,1.961705207824707,2.26562762260437,-0.8757607936859131
1725892577848720000,19.506719970703124,2.335035800933838,0.9938740730285645,-1.762155532836914
1725892577867567900,19.52556787109375,3.496652841567993,-1.0608363151550293,-1.4928665161132812
1725892577886416100,19.544416015625,4.035447597503662,-0.32248544692993164,-3.4526538848876953
1725892577905264400,19.563264404296874,2.2720088958740234,2.51975417137146,-4.026729106903076
1725892577924112600,19.582112548828125,0.1002340316772461,4.979570388793945,-3.17829966545105
1725892577942960600,19.600960693359376,0.9304051399230957,2.13858699798584,-1.0657243728637695
1725892577961809000,19.619808837890623,0.5545072555541992,0.2335975170135498,-1.337491750717163
1725892577980657200,19.6386572265625,-0.6599607467651367,1.2883687019348145,0.18414545059204102
1725892577999505200,19.657505126953126,-2.690443515777588,3.058746099472046,-0.8713009357452393
1725892578018353400,19.676353515625,-4.263884544372559,1.3000636100769043,2.2913155555725098
1725892578037201700,19.69520166015625,-1.3512687683105469,-1.476797342300415,2.497152328491211
1725892578056049700,19.714049560546876,-0.36446571350097656,-2.266570568084717,-0.029941082000732422
1725892578074898000,19.73289794921875,-0.3544921875,0.7933456897735596,1.5220236778259277
1725892578093746200,19.75174609375,0.9740447998046875,-1.4305663108825684,-1.4656181335449219
1725892578112594200,19.77059423828125,1.857893943786621,1.5312979221343994,-3.916891098022461
1725892578131442400,19.7894423828125,1.3628559112548828,3.3902647495269775,-0.7018632888793945
1725892578150290700,19.808290771484376,1.7559223175048828,1.2144510746002197,-3.4166407585144043
1725892578169139000,19.827138916015624,1.882328987121582,2.993900775909424,-1.0422368049621582
1725892578187987000,19.845987060546875,1.7990012168884277,0.3098320960998535,-1.7333259582519531
1725892578206835200,19.864835205078126,3.167363405227661,-0.0794682502746582,-1.826223611831665
1725892578225683500,19.883683349609374,1.732940673828125,-0.48883056640625,-3.6896326541900635
1725892578244531500,19.902531494140625,0.5379171371459961,0.8419418334960938,-0.3952469825744629
1725892578263379700,19.921379638671876,0.22999000549316406,0.7731499671936035,0.3928952217102051
1725892578282228000,19.94022802734375,-0.4926018714904785,-0.5078082084655762,0.11358785629272461
1725892578301076000,19.959075927734375,0.8370771408081055,-0.7470989227294922,2.562495231628418
1725892578319924200,19.97792431640625,1.5287671089172363,-1.9576091766357422,0.8922786712646484
1725892578338772500,19.9967724609375,-2.882439136505127,0.639533519744873,-1.0057637691497803
1725892578357620500,20.015620361328125,-2.5465455055236816,-0.5335931777954102,3.230107307434082
1725892578376468700,20.03446875,-2.4418792724609375,-5.917511463165283,4.393770694732666
1725892578395317000,20.05331689453125,-2.177584648132324,-4.855304718017578,3.8880019187927246
1725892578414165000,20.0721650390625,-0.7468404769897461,-1.2880792617797852,-0.5619523525238037
1725892578433013200,20.09101318359375,-0.42935752868652344,0.9124999046325684,-1.5625371932983398
1725892578451861500,20.109861572265626,0.11756491661071777,-0.020262718200683594,-1.1281483173370361
1725892578470709500,20.12870947265625,-0.8381052017211914,-2.0362815856933594,0.236436128616333
1725892578489557800,20.147557861328124,-1.2226524353027344,-1.7259082794189453,1.76625394821167
1725892578508406000,20.166406005859375,-0.18918323516845703,-1.5032110214233398,2.033719539642334
1725892578527254000,20.18525390625,-0.5512435436248779,-0.5067119598388672,-0.0696101188659668
1725892578546102300,20.204102294921874,-0.09807252883911133,0.7469744682312012,0.6845896244049072
1725892578564950300,20.2229501953125,1.2063264846801758,1.4543542861938477,-1.1183195114135742
1725892578583798500,20.241798583984377,0.21673798561096191,0.19471359252929688,0.2928948402404785
1725892578602646800,20.260646728515624,-0.32819128036499023,1.2518386840820312,-1.3207988739013672
1725892578621495000,20.2794951171875,-0.9895205497741699,1.2518258094787598,0.7709994316101074
1725892578640343000,20.298343017578127,0.31644535064697266,0.5321288108825684,1.612771987915039
1725892578659191300,20.31719140625,-0.10246038436889648,-0.05231904983520508,0.4941391944885254
1725892578678039300,20.336039306640625,0.7646822929382324,1.3978986740112305,0.39626502990722656
1725892578696887600,20.354887451171876,1.6745984554290771,2.3444361686706543,-1.221919059753418
1725892578715735800,20.37373583984375,-0.03698015213012695,3.1727399826049805,0.4000535011291504
1725892578734583800,20.392583740234375,-1.7630767822265625,0.31709814071655273,0.6144390106201172
1725892578753432000,20.41143212890625,-4.5618577003479,-4.018779277801514,5.144644737243652
1725892578772280300,20.4302802734375,-3.8006844520568848,-7.532083511352539,3.5790910720825195
1725892578791128300,20.44912841796875,-1.573655128479004,-5.297308921813965,3.6946663856506348
1725892578809976600,20.4679765625,1.219320297241211,-3.689840793609619,1.8521127700805664
1725892578828824800,20.486824951171876,0.25405168533325195,-1.6544370651245117,0.6208710670471191
1725892578847672800,20.5056728515625,-0.1607351303100586,-0.6466174125671387,0.8523483276367188
1725892578866521000,20.52452099609375,0.8395490646362305,-2.195333480834961,1.7563209533691406
1725892578885369000,20.543369140625,2.272151470184326,-0.8077778816223145,-0.04601097106933594
1725892578904217300,20.56221728515625,2.2463879585266113,2.27994704246521,0.3209519386291504
1725892578923065600,20.581065673828125,2.840810775756836,1.5799269676208496,0.23105144500732422
1725892578941913600,20.59991357421875,2.891075611114502,1.58479905128479,-2.1696269512176514
1725892578960761900,20.618761962890623,1.4546961784362793,3.08475661277771,-1.0404105186462402
1725892578979609900,20.63760986328125,1.4822773933410645,0.7409381866455078,-2.0043115615844727
1725892578998458000,20.6564580078125,-0.22230005264282227,1.2834036350250244,-0.9692811965942383
1725892579017306400,20.675306396484373,-0.43989086151123047,-0.6346783638000488,0.2466113567352295
1725892579036154400,20.694154296875,-0.5446748733520508,-1.6886401176452637,2.25461483001709
1725892579055002600,20.713002685546876,-0.24603652954101562,-0.9708092212677002,1.8205389976501465
1725892579073851000,20.731850830078123,1.3379621505737305,0.2437286376953125,-0.4871656894683838
1725892579092699000,20.750698974609374,1.4321341514587402,0.6524014472961426,-0.6910147666931152
1725892579111547100,20.769547119140626,-0.12162971496582031,1.7126215696334839,-0.5017187595367432
1725892579130395400,20.7883955078125,0.3702225685119629,3.030759572982788,0.7143118381500244
1725892579149243400,20.807243408203124,3.590343952178955,0.3251004219055176,-1.3574745655059814
1725892579168091600,20.826091552734376,2.3959994316101074,0.922985315322876,-2.787721633911133
1725892579186939600,20.844939697265627,0.07444620132446289,1.6174442768096924,-0.7502620220184326
1725892579205788000,20.863787841796874,2.030378818511963,0.6984102725982666,-0.8797502517700195
1725892579224636200,20.88263623046875,4.056887626647949,-0.16028666496276855,-2.9782533645629883
1725892579243484200,20.901484130859377,1.8572921752929688,0.9407382011413574,-4.4717488288879395
1725892579262332400,20.92033251953125,-1.1300888061523438,1.5270576477050781,-1.3701846599578857
1725892579281180400,20.939180419921875,1.138789176940918,0.3377971649169922,-0.6632390022277832
1725892579300028700,20.958028564453127,1.7434296607971191,-0.44309091567993164,-3.5519471168518066
1725892579318876700,20.976876708984374,2.0933265686035156,1.7988855838775635,0.23099565505981445
1725892579337725000,20.995724853515625,1.0841941833496094,1.3408482074737549,-2.1492953300476074
1725892579356573200,21.0145732421875,-1.9088573455810547,2.4015722274780273,-1.978003740310669
1725892579375421200,21.033421142578124,-1.208859920501709,1.4406161308288574,2.4403882026672363
1725892579394269400,21.05226953125,1.7700395584106445,-1.8212542533874512,3.301544666290283
1725892579413117700,21.07111767578125,1.4791877269744873,-2.721240520477295,1.508467674255371
1725892579431965700,21.089965576171874,-0.35915708541870117,-1.992814064025879,-1.3939783573150635
1725892579450814000,21.10881396484375,-1.5756964683532715,0.36196327209472656,-0.21909236907958984
1725892579469662000,21.127661865234376,-0.648871898651123,-0.943232536315918,1.235328197479248
1725892579488510200,21.14651025390625,-1.7653660774230957,-2.3150811195373535,2.033604621887207
1725892579507358500,21.1653583984375,-2.756619453430176,-3.426166534423828,1.4392790794372559
1725892579526206500,21.18420654296875,-0.6471834182739258,-5.6005353927612305,1.6678390502929688
1725892579545054700,21.2030546875,-1.475165843963623,-4.173303604125977,0.939277172088623
1725892579563902700,21.22190283203125,-0.762657880783081,-1.9715156555175781,1.9386248588562012
1725892579582751000,21.2407509765625,-0.3353586196899414,0.2820162773132324,0.7986254692077637
1725892579601599000,21.259598876953124,-0.2854626178741455,2.1632394790649414,-0.489990234375
1725892579620447200,21.278447265625,0.6704885959625244,1.4094514846801758,-0.9053184986114502
1725892579639295500,21.29729541015625,0.4742903709411621,-1.371382236480713,0.03238201141357422
1725892579658143500,21.3161435546875,-1.0289442539215088,-3.86295747756958,0.8319377899169922
1725892579676991700,21.33499169921875,-1.7542386054992676,-3.685832977294922,0.5646028518676758
1725892579695839700,21.35383984375,-1.1037187576293945,-2.045220375061035,-0.17063140869140625
1725892579714688000,21.37268798828125,-0.6729035377502441,1.0052943229675293,2.230417251586914
1725892579733536000,21.391535888671875,0.5509321689605713,1.5730218887329102,0.6394457817077637
1725892579752384300,21.41038427734375,-0.5676093101501465,2.840996742248535,-0.4980940818786621
1725892579771232500,21.429232421875,-0.5340366363525391,1.0649099349975586,0.6444201469421387
1725892579790080500,21.44808056640625,-1.3850150108337402,-3.378941535949707,0.4718751907348633
1725892579808928800,21.4669287109375,-2.778130531311035,-3.5854735374450684,1.6206254959106445
1725892579827776800,21.48577685546875,0.1471109390258789,-1.8904738426208496,0.5718870162963867
1725892579846625000,21.504625,1.8095743656158447,0.790961742401123,-1.3786778450012207
1725892579865473300,21.523473388671874,2.412548542022705,2.1856207847595215,-4.475156307220459
1725892579884321300,21.5423212890625,0.9997076988220215,3.948568820953369,-2.3086459636688232
1725892579903169500,21.56116943359375,-0.8635544776916504,-0.09444904327392578,0.3158097267150879
1725892579922017500,21.580017578125,-2.917046070098877,-1.240159034729004,2.2718334197998047
1725892579940865800,21.59886572265625,-3.750826358795166,-0.7092757225036621,5.895279884338379
1725892579959713800,21.6177138671875,-0.3319268226623535,-3.1432180404663086,4.884501934051514
1725892579978562000,21.63656201171875,0.42273902893066406,-5.029469013214111,-0.3802676200866699
1725892579997410000,21.65541015625,2.979386806488037,-3.900028705596924,-0.29006147384643555
1725892580016258300,21.67425830078125,2.6271939277648926,-2.7955503463745117,-1.181619644165039
1725892580035106600,21.6931064453125,-1.0701756477355957,1.2400250434875488,0.37204837799072266
1725892580053954600,21.71195458984375,-2.8255109786987305,1.609083890914917,1.6470670700073242
1725892580072802600,21.730802490234375,-0.2572140693664551,-1.7349791526794434,1.027688980102539
1725892580091650800,21.74965087890625,1.6870436668395996,-1.1823663711547852,0.10307121276855469
1725892580110499000,21.7684990234375,5.471451282501221,-0.5544648170471191,-0.7627639770507812
1725892580129347000,21.78734716796875,3.401796817779541,2.521976947784424,-5.231007099151611
1725892580148195300,21.8061953125,-1.1519174575805664,5.383786678314209,-2.3616700172424316
1725892580167043300,21.825043212890623,0.16402959823608398,1.524801254272461,-1.767960548400879
1725892580185891600,21.8438916015625,3.0001487731933594,-1.5396089553833008,-1.2101974487304688
1725892580204739600,21.862739501953126,4.526092052459717,-1.9555912017822266,-3.7323269844055176
1725892580223587800,21.881587890625,1.689208984375,3.8374924659729004,-1.3988358974456787
1725892580242435800,21.900435791015624,-0.1790170669555664,3.1607680320739746,-2.2995762825012207
1725892580261284000,21.9192841796875,-0.5564327239990234,2.5060675144195557,-1.0118122100830078
1725892580280132000,21.938132080078127,-1.2589359283447266,-1.149125099182129,1.624082088470459
1725892580298980400,21.95698046875,2.312208652496338,-2.82686448097229,2.0856499671936035
1725892580317828600,21.97582861328125,1.7790164947509766,1.525909185409546,-0.911055326461792
1725892580336676600,21.994676513671877,-0.2395939826965332,3.2226269245147705,-0.19554758071899414
1725892580355524900,22.01352490234375,0.9348888397216797,1.9972821474075317,-0.6836588382720947
1725892580374372900,22.032372802734375,1.5820202827453613,1.4663898944854736,-1.5031640529632568
1725892580393221000,22.05122119140625,1.2893948554992676,2.684286594390869,-0.6062304973602295
1725892580412069000,22.070069091796874,1.8479585647583008,2.9018874168395996,-0.9494283199310303
1725892580430917400,22.08891748046875,2.1233553886413574,1.126427412033081,-3.344243049621582
1725892580449765400,22.107765380859377,2.223480701446533,1.880352258682251,-1.5700368881225586
1725892580468613600,22.126613525390624,2.113191604614258,1.189246654510498,-2.1906380653381348
1725892580487461600,22.145461669921875,1.2264156341552734,1.251112461090088,-1.4348201751708984
1725892580506310000,22.164309814453127,0.5857534408569336,0.0869293212890625,-0.8866775035858154
1725892580525158000,22.183157958984374,-0.03745841979980469,-0.9497175216674805,0.27116918563842773
1725892580544006100,22.202006103515625,-0.33909034729003906,-2.257328987121582,3.8009204864501953
1725892580562854100,22.220854248046876,-1.751185417175293,-5.112191677093506,3.6155009269714355
1725892580581702400,22.239702392578124,-2.367351531982422,-6.1212263107299805,2.3005003929138184
1725892580600550400,22.25855029296875,-0.08526754379272461,-6.2957072257995605,1.7218761444091797
1725892580619398700,22.277398681640626,-0.29371070861816406,-2.1590137481689453,0.447995662689209
1725892580638246700,22.29624658203125,-0.4201674461364746,1.286186695098877,-1.767559289932251
1725892580657095000,22.315094970703125,1.2702574729919434,1.5746979713439941,-2.0714759826660156
1725892580675943200,22.333943115234376,-0.2910299301147461,1.1902832984924316,-2.917095184326172
1725892580694791200,22.352791259765624,-0.29374170303344727,3.1065707206726074,1.2083001136779785
1725892580713639400,22.371639404296875,0.12420487403869629,0.2589888572692871,1.5471725463867188
1725892580732487400,22.3904873046875,-0.4017202854156494,-1.6218667030334473,3.3266453742980957
1725892580751335400,22.40933544921875,-1.858083724975586,-1.5029621124267578,0.2467060089111328
1725892580770183700,22.42818359375,-1.455352544784546,-0.7599620819091797,2.8781254291534424
1725892580789031700,22.44703173828125,0.12741851806640625,-3.8503198623657227,5.574282646179199
1725892580807880000,22.4658798828125,-2.6081936359405518,-3.6771349906921387,1.4460597038269043
1725892580826728000,22.48472802734375,-1.487037181854248,0.10569906234741211,1.529322624206543
1725892580845576200,22.503576171875,-0.23770856857299805,0.14549827575683594,2.551455020904541
1725892580864424200,22.522424072265625,-0.5280380249023438,-1.3080825805664062,1.7228074073791504
1725892580883272400,22.5412724609375,0.430401086807251,-0.2987070083618164,-1.5879979133605957
1725892580902120700,22.56012060546875,0.4655289649963379,2.312251567840576,-2.0001602172851562
1725892580920968700,22.57896875,0.9140448570251465,-0.2999868392944336,1.3430914878845215
1725892580939817000,22.59781689453125,0.47575998306274414,-2.903898239135742,0.9409875869750977
1725892580958665000,22.6166650390625,-0.05500936508178711,-0.8888492584228516,-2.7417168617248535
1725892580977513200,22.63551318359375,1.8152482509613037,2.8012771606445312,-2.05527663230896
1725892580996361200,22.654361328125,3.475114345550537,2.486584186553955,-2.381845474243164
1725892581015209500,22.67320947265625,-1.9108710289001465,-0.12511253356933594,0.5855026245117188
1725892581034057500,22.692057373046875,-5.294615745544434,-3.481567859649658,3.803420066833496
1725892581052905700,22.71090576171875,-1.2030534744262695,-5.09930419921875,3.9576029777526855
1725892581071753700,22.729753662109374,1.30936861038208,-2.79599666595459,2.2718849182128906
1725892581090601700,22.748601806640625,-0.0037827491760253906,-1.078455924987793,0.1225433349609375
1725892581109450000,22.767449951171876,1.044792652130127,0.1957111358642578,-0.06595468521118164
1725892581128298000,22.786298095703124,0.4081382751464844,0.4707474708557129,1.0537209510803223
1725892581147146200,22.805146240234375,-0.6619424819946289,-0.5927567481994629,1.6771554946899414
1725892581165994200,22.823994140625,0.2516660690307617,-1.2978711128234863,1.3404912948608398
1725892581184842500,22.842842529296874,-0.6131072044372559,-0.6781506538391113,1.343536376953125
1725892581203690500,22.8616904296875,1.546076774597168,-0.939394474029541,1.6842217445373535
1725892581222538800,22.880538818359376,2.760335922241211,-0.6252179145812988,-0.736536979675293
1725892581241386800,22.89938671875,1.1937603950500488,0.9814198017120361,-2.1040873527526855
1725892581260235000,22.918235107421875,0.757026195526123,2.487555980682373,-1.7920732498168945
1725892581279083000,22.9370830078125,2.595953941345215,0.8354935646057129,-2.408644914627075
1725892581297931300,22.95593115234375,2.159421443939209,0.39231443405151367,-2.865511894226074
1725892581316779300,22.974779296875,2.331490993499756,0.6774106025695801,-2.1097307205200195
1725892581335627500,22.99362744140625,3.1337637901306152,1.0652613639831543,-2.3611440658569336
1725892581354475500,23.0124755859375,2.1151866912841797,1.6265003681182861,-3.759864330291748
1725892581373323500,23.031323486328127,0.8817753791809082,1.1025943756103516,-1.1021080017089844
1725892581392171800,23.050171875,0.348297119140625,0.051175832748413086,0.36208200454711914
1725892581411019800,23.069019775390625,1.0145845413208008,0.5386447906494141,-0.8605883121490479
1725892581429868000,23.087867919921877,0.23646259307861328,2.4880316257476807,-1.283456563949585
1725892581448716000,23.106716064453124,-0.09070730209350586,1.5756490230560303,-0.2324542999267578
1725892581467564300,23.125564208984375,0.9593677520751953,0.12508201599121094,-0.7685437202453613
1725892581486412300,23.144412353515627,0.8651766777038574,1.5273633003234863,-0.4529867172241211
1725892581505260500,23.163260498046874,1.069216251373291,1.1555044651031494,-2.133782148361206
1725892581524108500,23.182108642578125,0.8780384063720703,3.0071492195129395,-1.6442041397094727
1725892581542956800,23.200956787109376,1.0567402839660645,2.1603474617004395,-1.1510679721832275
1725892581561804800,23.2198046875,0.6235103607177734,1.185680627822876,-0.5095739364624023
1725892581580653000,23.238653076171875,1.0044751167297363,0.3128490447998047,-0.8583407402038574
1725892581599501000,23.2575009765625,1.3250713348388672,0.6584367752075195,-0.5697517395019531
1725892581618349000,23.27634912109375,0.4037895202636719,0.8283944129943848,-1.5259966850280762
1725892581637197300,23.295197265625,-1.218576431274414,0.7807803153991699,0.9923443794250488
1725892581656045300,23.31404541015625,-1.1652297973632812,-2.516918659210205,3.676663398742676
1725892581674893600,23.3328935546875,-0.5785617828369141,-5.982080936431885,3.3025059700012207
1725892581693741600,23.351741455078123,0.23412704467773438,-6.491575241088867,1.4429478645324707
1725892581712589800,23.37058984375,0.25052738189697266,-3.5199460983276367,-0.742466926574707
1725892581731437800,23.389437744140626,0.2526559829711914,-0.1226344108581543,-0.215972900390625
1725892581750286000,23.4082861328125,-0.4520554542541504,0.09949779510498047,-1.69999098777771
1725892581769134000,23.427134033203124,-0.6035456657409668,0.10591602325439453,0.6199240684509277
1725892581787982000,23.445982177734376,-0.32705020904541016,-1.4432096481323242,0.9441518783569336
1725892581806830300,23.464830322265627,-0.3160245418548584,-0.19921398162841797,0.5423774719238281
1725892581825678300,23.48367822265625,-0.5857107639312744,0.173248291015625,-0.6781842708587646
1725892581844526600,23.502526611328125,-0.9424576759338379,-0.8209829330444336,0.5392622947692871
1725892581863374600,23.52137451171875,-1.2481839656829834,-1.540287971496582,0.25739622116088867
1725892581882222800,23.540222900390624,-0.9464595317840576,-0.09566593170166016,1.3734207153320312
1725892581901070800,23.55907080078125,-0.12535786628723145,0.23832035064697266,1.8023738861083984
1725892581919918800,23.5779189453125,-1.025228500366211,-0.9405641555786133,2.2986831665039062
1725892581938767000,23.59676708984375,-1.6082515716552734,-0.8077869415283203,4.094648361206055
1725892581957615000,23.615614990234373,-1.2073307037353516,-2.1788039207458496,2.8204097747802734
1725892581976463400,23.63446337890625,-0.7301673889160156,-1.2394590377807617,0.8785362243652344
1725892581995311400,23.653311279296876,0.6061427593231201,-0.25034570693969727,-1.5110149383544922
1725892582014159600,23.67215966796875,0.5603387355804443,0.8667516708374023,-1.6435668468475342
1725892582033007600,23.691007568359375,0.11169099807739258,0.19986820220947266,-0.41056013107299805
1725892582051855600,23.709855712890626,-0.2437763214111328,-0.9497551918029785,0.7347316741943359
