time,seconds_elapsed,z,y,x
1725892558404478200,0.062478271484375,-0.988990068435669,1.593898892402649,-0.04146244749426842
1725892558423326500,0.081326416015625,-1.1102467775344849,2.2007930278778076,0.08345939964056015
1725892558442174500,0.100174560546875,-1.8054108619689941,2.595411777496338,0.6002510190010071
1725892558461022500,0.1190224609375,-2.361603260040283,2.8018839359283447,1.4444661140441895
1725892558479870500,0.137870361328125,-2.7058255672454834,0.8122974634170532,1.940488338470459
1725892558498718500,0.156718505859375,-2.1279475688934326,-3.604865789413452,0.28351762890815735
1725892558517566500,0.17556640625,-1.6804890632629395,-3.224297046661377,0.2764926850795746
1725892558536414500,0.19441455078125,-1.14017915725708,-3.861123561859131,-0.3765217661857605
1725892558555262700,0.2132626953125,-0.94439697265625,-2.9179482460021973,-0.658741295337677
1725892558574110700,0.23211083984375,-0.33597561717033386,-2.8941245079040527,-0.5836049318313599
1725892558592958700,0.250958740234375,-0.40805765986442566,-2.0657920837402344,-0.4522690176963806
1725892558611806700,0.269806640625,-0.7611374855041504,-1.136055827140808,-0.10163262486457825
1725892558630654700,0.28865478515625,-0.8494074940681458,0.8333722949028015,0.34002259373664856
1725892558649502700,0.307502685546875,-0.711046576499939,3.6219699382781982,0.5660426020622253
1725892558668350700,0.326350830078125,-0.7046325206756592,4.869661331176758,0.13049599528312683
1725892558687198700,0.34519873046875,-0.916297197341919,3.9353437423706055,-0.27511823177337646
1725892558706047000,0.364046875,-0.3127627670764923,1.5392265319824219,0.13813179731369019
1725892558724895000,0.38289501953125,0.12370011955499649,2.7194173336029053,0.9939533472061157
1725892558743743000,0.401742919921875,0.4221075773239136,4.065457820892334,1.9172754287719727
1725892558762591000,0.420591064453125,1.5674790143966675,1.9176572561264038,2.6243515014648438
1725892558781439000,0.43943896484375,3.3902995586395264,-2.425896644592285,2.6872706413269043
1725892558800287000,0.458286865234375,3.705505847930908,-3.716654062271118,3.679009437561035
1725892558819135000,0.477135009765625,3.8881542682647705,-5.01077127456665,4.478631496429443
1725892558837983200,0.495983154296875,4.327977180480957,-6.002815246582031,5.302077293395996
1725892558856831200,0.514831298828125,4.426631450653076,-5.720290660858154,6.377810001373291
1725892558875679200,0.53367919921875,4.392423152923584,-4.668076038360596,7.321596145629883
1725892558894527200,0.55252734375,4.711599826812744,-2.9356634616851807,7.438576698303223
1725892558913375200,0.571375244140625,4.8829474449157715,-3.1751224994659424,6.226926326751709
1725892558932223200,0.59022314453125,4.835910797119141,-3.4796385765075684,4.812469005584717
1725892558951071200,0.6090712890625,4.705185890197754,-1.9598069190979004,3.715050458908081
1725892558969919500,0.62791943359375,3.738797903060913,-0.3214675784111023,2.066020965576172
1725892558988767500,0.646767578125,2.690859317779541,0.7835868000984192,0.4047742784023285
1725892559007615500,0.665615478515625,1.9569053649902344,1.279608964920044,-0.7876337766647339
1725892559026463500,0.68446337890625,1.7238603830337524,0.9534072279930115,-1.184695839881897
1725892559045311500,0.7033115234375,2.581209182739258,4.154338836669922,-0.8945351243019104
1725892559064159500,0.722159423828125,1.942244529724121,0.8602503538131714,-1.2961786985397339
1725892559083007500,0.741007568359375,-0.3020726442337036,0.4760163724422455,0.6668352484703064
1725892559101855500,0.75985546875,1.1905754804611206,0.04932733252644539,0.1417969912290573
1725892559120703700,0.778703857421875,1.9535455703735352,-0.07406735420227051,0.48296496272087097
1725892559139551700,0.7975517578125,2.5332562923431396,0.14981459081172943,0.9453896284103394
1725892559158399700,0.816399658203125,2.4297146797180176,0.5502364635467529,1.642691731452942
1725892559177247700,0.835247802734375,2.802342176437378,-2.6784894466400146,0.08437569439411163
1725892559196095700,0.854095703125,0.7608320713043213,-3.071275472640991,-1.9174281358718872
1725892559214943700,0.87294384765625,-0.693026065826416,-0.024892739951610565,-1.085430383682251
1725892559233791700,0.891791748046875,-1.5399900674819946,2.1867432594299316,-0.019471315667033195
1725892559252639700,0.9106396484375,-1.4147628545761108,1.7817398309707642,0.16989676654338837
1725892559271487700,0.92948779296875,-0.8643736839294434,0.4124864339828491,-0.28214317560195923
1725892559290335700,0.948335693359375,-0.2886336147785187,-0.17394374310970306,-0.07353284955024719
1725892559309183700,0.967183837890625,0.6359102129936218,-0.6027708053588867,0.16653701663017273
1725892559328032000,0.986031982421875,1.4477494955062866,-1.8950552940368652,0.9200387001037598
1725892559346880000,1.0048798828125,0.9447023868560791,-1.5990912914276123,0.9936479330062866
1725892559365728000,1.02372802734375,0.13500112295150757,-0.5658134818077087,0.710512101650238
1725892559384576000,1.042575927734375,-0.10201441496610641,0.187382772564888,0.9185115694999695
1725892559403424000,1.061424072265625,0.3637699782848358,-0.7176133990287781,1.0663408041000366
1725892559422272000,1.08027197265625,0.02260199747979641,0.1565341055393219,0.839709997177124
1725892559441120000,1.0991201171875,-0.8402445316314697,1.5041017532348633,0.5990293025970459
1725892559459968000,1.117968017578125,-1.5286891460418701,1.9897392988204956,0.5061778426170349
1725892559478816300,1.136816162109375,-1.3558143377304077,-0.4805978536605835,0.5345830321311951
1725892559497664300,1.155664306640625,0.7806851863861084,-0.9711222648620605,1.487532138824463
1725892559516512300,1.17451220703125,0.8576541543006897,-0.20387612283229828,1.5754966735839844
1725892559535360300,1.1933603515625,-0.28435754776000977,0.6482802629470825,0.4255436658859253
1725892559554208300,1.212208251953125,-0.006414080038666725,0.20082180202007294,0.7890082001686096
1725892559573056300,1.23105615234375,0.1695149689912796,0.1513417512178421,1.0092250108718872
1725892559591904300,1.249904296875,-0.36254823207855225,-0.5374082922935486,1.0577887296676636
1725892559610752500,1.26875244140625,-0.472198486328125,0.11591159552335739,0.7224239706993103
1725892559629600500,1.2876005859375,-0.28924447298049927,0.5404626131057739,0.44173160195350647
1725892559648448500,1.306448486328125,0.06291907280683517,-0.3614792227745056,1.254487156867981
1725892559667296500,1.325296630859375,0.21471896767616272,-0.6956222653388977,1.0128902196884155
1725892559686144500,1.34414453125,0.000305432389723137,-0.9753983616828918,1.0874156951904297
1725892559704992500,1.362992431640625,-0.6627882719039917,1.012661099433899,0.37117671966552734
1725892559723840500,1.381840576171875,0.1695149689912796,-3.166264772415161,2.0452516078948975
1725892559742688500,1.4006884765625,0.22968515753746033,-0.2585485279560089,0.8045852780342102
1725892559761536800,1.419536865234375,-0.8759800791740417,1.8251112699508667,0.13813179731369019
1725892559780384800,1.438384765625,-0.23915356397628784,-0.2860374450683594,0.663475513458252
1725892559799232800,1.457232666015625,0.7394518256187439,-1.1201733350753784,0.7465531229972839
1725892559818080800,1.476080810546875,-0.21868959069252014,-0.41095927357673645,0.48968449234962463
1725892559836928800,1.4949287109375,-1.025336503982544,0.8520036339759827,-0.01977674663066864
1725892559855776800,1.51377685546875,-0.9578359723091125,1.724013090133667,-0.45685049891471863
1725892559874624800,1.532624755859375,-1.2696824073791504,1.022434949874878,-0.2317468225955963
1725892559893473000,1.55147314453125,-0.08155044913291931,-0.7741183638572693,0.1891390085220337
1725892559912321000,1.570321044921875,1.2049307823181152,-1.2319614887237549,0.3388008773326874
1725892559931169000,1.5891689453125,0.5830704569816589,-1.3721550703048706,0.4457022249698639
1725892559950017000,1.60801708984375,-0.8060360550880432,1.0655008554458618,-0.009697478264570236
1725892559968865000,1.626864990234375,-1.7314962148666382,2.8015785217285156,-0.6330850124359131
1725892559987713000,1.645713134765625,-0.3750709891319275,0.8675807118415833,-0.24946190416812897
1725892560006561000,1.66456103515625,1.0140355825424194,-1.1800380945205688,0.3891972303390503
1725892560025409300,1.6834091796875,0.3643808364868164,-0.453719824552536,0.018096869811415672
1725892560044257300,1.70225732421875,-0.48075059056282043,1.3165663480758667,-0.29588761925697327
1725892560063105300,1.721105224609375,-0.005192350596189499,-0.1766926348209381,0.033979352563619614
1725892560081953300,1.739953369140625,0.17898337543010712,0.02458730712532997,0.08926261961460114
1725892560100801300,1.75880126953125,-0.6661480665206909,1.052061915397644,-0.1343138962984085
1725892560119649300,1.777649169921875,0.23976442217826843,-0.6278162598609924,0.2920697331428528
1725892560138497300,1.796497314453125,0.4560105502605438,-0.4708240330219269,0.06238456442952156
1725892560157345300,1.81534521484375,-0.3643808364868164,0.6174315810203552,-0.39362600445747375
1725892560176193500,1.834193603515625,-0.785877525806427,1.014188289642334,-0.6330850124359131
1725892560195041500,1.85304150390625,-0.5097666382789612,0.5606211423873901,-0.7931315302848816
1725892560213889500,1.8718896484375,0.1948658674955368,-2.0920591354370117,0.12408190965652466
1725892560232737500,1.890737548828125,-0.6356047987937927,1.032208800315857,-1.271133303642273
1725892560251585500,1.90958544921875,-1.3014473915100098,1.872147798538208,-1.6321543455123901
1725892560270433800,1.928433837890625,0.19150610268115997,0.34498587250709534,-1.4675263166427612
1725892560289281800,1.94728173828125,-0.0870482325553894,-0.09819651395082474,-1.2317324876785278
1725892560308129800,1.9661298828125,-0.1588248461484909,-0.1156061589717865,-1.2085195779800415
1725892560326977800,1.984977783203125,0.7819069027900696,-0.7548761367797852,-1.105283498764038
1725892560345825800,2.00382568359375,-1.0983349084854126,0.6580541133880615,-1.382005214691162
1725892560364674000,2.022674072265625,-1.0848958492279053,1.317177176475525,-1.197524070739746
1725892560383522000,2.04152197265625,-0.637742817401886,2.5166101455688477,-2.6269476413726807
1725892560402370000,2.0603701171875,1.047938585281372,-0.9812015295028687,-2.3221261501312256
1725892560421218000,2.079218017578125,2.709796190261841,-1.4323252439498901,-0.18715369701385498
1725892560440066000,2.098066162109375,0.13255766034126282,0.5480984449386597,-1.880470871925354
1725892560458914000,2.1169140625,-0.17867794632911682,1.050534725189209,-1.4269037246704102
1725892560477762300,2.13576220703125,-0.8723149299621582,0.8339831233024597,-0.9849430918693542
1725892560496610300,2.1546103515625,-0.21410810947418213,-3.4500114917755127,0.7431933879852295
1725892560515458300,2.173458251953125,0.8463531732559204,-2.749349594116211,0.4570032060146332
1725892560534306300,2.192306396484375,0.8384119272232056,-2.648251533508301,0.8262709975242615
1725892560553154300,2.211154296875,0.34208428859710693,-1.3849831819534302,0.4765508770942688
1725892560572002600,2.23000244140625,-0.5882627964019775,0.0850629210472107,0.5052615404129028
1725892560590850600,2.2488505859375,-0.5879573225975037,-0.9799798130989075,1.0015891790390015
1725892560609698600,2.267698486328125,0.05528326332569122,-0.44638943672180176,0.6158280372619629
1725892560628546600,2.286546630859375,-0.2620609998703003,-0.6953168511390686,1.1967604160308838
1725892560647394600,2.30539453125,-0.602007269859314,0.8767436742782593,0.24442227184772491
1725892560666242800,2.324242919921875,0.5766563415527344,-0.6207913160324097,1.2120320796966553
1725892560685090800,2.3430908203125,0.24770566821098328,0.12476912885904312,0.4441750645637512
1725892560703938800,2.361938720703125,-0.08368847519159317,1.0273218154907227,0.3015381395816803
1725892560722786800,2.380786865234375,0.21991132199764252,0.6348412036895752,0.1378263682126999
1725892560741635000,2.399635009765625,0.001221729558892548,0.7912226319313049,0.26244276762008667
1725892560760483000,2.418483154296875,-0.14813470840454102,0.994640588760376,0.1424078494310379
1725892560779331000,2.4373310546875,0.20677772164344788,0.6565269231796265,-0.09338594973087311
1725892560798179000,2.456178955078125,0.2981020212173462,-0.301003634929657,0.21540619432926178
1725892560817027000,2.475027099609375,-0.05345066636800766,0.0844520553946495,0.07735075056552887
1725892560835875300,2.493875244140625,-1.025641918182373,2.157116174697876,-0.3823249936103821
1725892560854723300,2.512723388671875,0.061391908675432205,1.0642791986465454,-0.29222244024276733
1725892560873571300,2.5315712890625,1.2366957664489746,-1.7023273706436157,0.6662244200706482
1725892560892419600,2.550419677734375,-0.6374374032020569,0.808937668800354,0.15126539766788483
1725892560911267600,2.569267578125,-0.5986474752426147,1.482110619544983,0.0962875634431839
1725892560930115600,2.588115478515625,0.832608699798584,-1.8235840797424316,0.9307288527488708
1725892560948963600,2.606963623046875,0.2458730787038803,-0.790917158126831,0.5009855031967163
1725892560967811800,2.625811767578125,-0.5506945848464966,1.437822937965393,0.12713623046875
1725892560986659800,2.644659912109375,-0.3497200906276703,-1.2762492895126343,-0.8936188220977783
1725892561005507800,2.6635078125,1.7150028944015503,-2.702007532119751,1.7709733247756958
1725892561024355800,2.68235595703125,0.19242240488529205,-0.9653190970420837,-0.226859912276268
1725892561043203800,2.701203857421875,-0.3610210716724396,2.0447170734405518,-2.0982441902160645
1725892561062052000,2.720052001953125,0.25809037685394287,1.1226167678833008,0.16195552051067352
1725892561080900000,2.738900146484375,0.41263917088508606,-1.3920080661773682,0.08315397053956985
1725892561099748000,2.757748046875,0.17653992772102356,1.8196134567260742,-1.2021055221557617
1725892561118596400,2.776596435546875,0.4468475878238678,1.1174243688583374,-0.15661045908927917
1725892561137444400,2.7954443359375,-0.5528326034545898,1.001665472984314,-0.5191587209701538
1725892561156292400,2.814292236328125,-0.476779967546463,1.392924427986145,-0.5445095896720886
1725892561175140600,2.833140625,-0.8133664727210999,2.316246509552002,-1.401247501373291
1725892561193988600,2.851988525390625,0.9728021621704102,-1.5993967056274414,-0.21067199110984802
1725892561212836600,2.870836669921875,0.9621120095252991,0.034666575491428375,1.0806961059570312
1725892561231684600,2.8896845703125,-1.385746717453003,0.716086208820343,-1.8590905666351318
1725892561250532900,2.908532958984375,0.28008151054382324,-1.154076337814331,-0.9519563913345337
1725892561269380900,2.927380859375,0.9489784240722656,-2.3571743965148926,2.130467176437378
1725892561288228900,2.946228759765625,1.433699607849121,-2.0529637336730957,1.9215514659881592
1725892561307076900,2.965076904296875,0.13561198115348816,-0.8657481074333191,0.261526495218277
1725892561325925000,2.983925048828125,0.5134318470954895,1.5829033851623535,-1.3792563676834106
1725892561344773000,3.002773193359375,0.25473061203956604,3.4891068935394287,-1.7085124254226685
1725892561363621000,3.02162109375,-0.4007273018360138,2.631452798843384,-3.091815710067749
1725892561382469400,3.040469482421875,0.21166464686393738,2.205069065093994,-2.9109997749328613
1725892561401317400,3.0593173828125,0.6695078015327454,2.291201114654541,-1.1083377599716187
1725892561420165600,3.07816552734375,0.22937972843647003,-0.3361283540725708,-1.7653228044509888
1725892561439013600,3.097013671875,0.5858193039894104,-1.363908290863037,-1.7613521814346313
1725892561457861600,3.115861572265625,0.6490437984466553,1.9732459783554077,-1.5234204530715942
1725892561476709600,3.134709716796875,-0.07024945318698883,2.6534438133239746,-1.7613521814346313
1725892561495558000,3.153557861328125,-0.5674933791160583,2.363588571548462,-1.1901936531066895
1725892561514406000,3.172406005859375,-0.6126973628997803,0.4030180275440216,-0.4525744318962097
1725892561533254000,3.19125390625,0.24312418699264526,2.6103780269622803,1.617646336555481
1725892561552102100,3.21010205078125,0.9370665550231934,2.492175579071045,1.0364084243774414
1725892561570950100,3.2289501953125,1.5372412204742432,-0.6272054314613342,0.8378773927688599
1725892561589798100,3.247798095703125,1.3026691675186157,-0.736244797706604,1.73493230342865
1725892561608646400,3.266646484375,0.17715078592300415,0.754570722579956,1.8671845197677612
1725892561627494400,3.285494384765625,-0.03145953640341759,-0.38988444209098816,1.6045126914978027
1725892561646342400,3.30434228515625,-1.1444551944732666,0.23075416684150696,-0.6254491806030273
1725892561665190700,3.323190673828125,-0.1380554437637329,1.8700097799301147,-0.4159225523471832
1725892561684038700,3.34203857421875,0.6954695582389832,0.20601414144039154,0.7331140637397766
1725892561702886700,3.36088671875,-0.7754928469657898,-1.0135773420333862,-0.40553784370422363
1725892561721735000,3.37973486328125,-0.4663952589035034,1.4469859600067139,0.3693441152572632
1725892561740583000,3.3985830078125,-0.5256491303443909,-0.19960007071495056,0.011377356946468353
1725892561759431000,3.417430908203125,-0.9111047983169556,-1.2951860427856445,-1.0600794553756714
1725892561778279200,3.436279052734375,0.6511818766593933,1.1198678016662598,1.0486257076263428
1725892561797127200,3.455127197265625,0.39797839522361755,0.7038689255714417,0.49884745478630066
1725892561815975400,3.473975341796875,-0.005192350596189499,-0.7237220406532288,-0.5988765358924866
1725892561834823400,3.492823486328125,-0.4120282828807831,1.1110103130340576,-1.1046725511550903
1725892561853671400,3.51167138671875,0.4569268524646759,0.9045380353927612,-0.4675406217575073
1725892561872519700,3.530519775390625,1.1389573812484741,-0.7396045327186584,0.25297439098358154
1725892561891367700,3.54936767578125,0.24434591829776764,-0.7133373618125916,-0.8676570653915405
1725892561910215700,3.568215576171875,0.4050033390522003,1.585957646369934,-0.28550294041633606
1725892561929064000,3.58706396484375,-0.0665842592716217,0.37400195002555847,-0.7751110196113586
1725892561947912000,3.605911865234375,0.18112140893936157,-0.1568395346403122,-0.3719402849674225
1725892561966760000,3.624760009765625,-0.06108647957444191,0.2860374450683594,-0.24121522903442383
1725892561985608200,3.643608154296875,-0.3289506733417511,1.0862703323364258,-0.8288671374320984
1725892562004456200,3.662456298828125,0.8066469430923462,0.1000291109085083,1.42216956615448
1725892562023304400,3.681304443359375,-0.003970621153712273,-1.3095413446426392,1.2764782905578613
1725892562042152400,3.70015234375,-0.33750277757644653,0.8901826739311218,1.034881353378296
1725892562061000400,3.71900048828125,-1.2345577478408813,-0.1357647031545639,-0.32734715938568115
1725892562079848700,3.7378486328125,-2.27730393409729,-0.5923861265182495,-0.0295505840331316
1725892562098696700,3.75669677734375,-3.6865689754486084,1.5086833238601685,1.1396446228027344
1725892562117544700,3.775544677734375,-4.358214855194092,2.6387832164764404,1.7392083406448364
1725892562136393000,3.79439306640625,-4.429686069488525,0.5242747068405151,1.4945570230484009
1725892562155241000,3.813240966796875,-4.063472747802734,-2.017839193344116,1.9478187561035156
1725892562174089200,3.832089111328125,-3.378693103790283,-1.0383174419403076,3.3699119091033936
1725892562192937200,3.850937255859375,-3.29744815826416,0.0902552679181099,3.7892706394195557
1725892562211785200,3.86978515625,-3.349677085876465,0.7903063297271729,2.588921308517456
1725892562230633500,3.888633544921875,-2.9513931274414062,2.3315181732177734,0.8253546953201294
1725892562249481500,3.9074814453125,-2.9724678993225098,3.671450138092041,-1.345353364944458
1725892562268329700,3.926329833984375,-3.137401580810547,4.125017166137695,-3.5322492122650146
1725892562287177700,3.945177734375,-2.867093801498413,5.210829257965088,-4.863018035888672
1725892562306025700,3.964025634765625,-2.788597822189331,3.6274678707122803,-5.401495456695557
1725892562324874000,3.9828740234375,-2.375042200088501,0.43020153045654297,-5.11927604675293
1725892562343722000,4.001721923828125,-1.324354887008667,-1.0929898023605347,-3.8642542362213135
1725892562362570200,4.0205703125,-0.06536252796649933,-0.39416050910949707,-1.9375866651535034
1725892562381418200,4.039418212890625,0.7541125416755676,0.651029109954834,-1.0784053802490234
1725892562400266200,4.058266357421875,0.9355394244194031,-1.6351323127746582,-1.1129192113876343
1725892562419114500,4.077114501953125,1.645975112915039,-1.1418589353561401,-0.7412080764770508
1725892562437962500,4.09596240234375,1.6743803024291992,-1.050534725189209,-0.760755717754364
1725892562456810800,4.114810791015625,1.2568542957305908,-1.0444260835647583,-1.166369915008545
1725892562475658800,4.13365869140625,1.2437206506729126,-1.2521201372146606,-1.5130356550216675
1725892562494507000,4.152507080078125,1.1142174005508423,-1.670867919921875,-1.3022873401641846
1725892562513355000,4.17135498046875,0.9999856352806091,-2.1928517818450928,-1.0600794553756714
1725892562532203000,4.190203125,1.5189152956008911,-4.904480457305908,-1.242117166519165
1725892562551051300,4.20905126953125,1.6074906587600708,-4.808269500732422,-1.6028327941894531
1725892562569899300,4.227899169921875,1.9132285118103027,-5.111258506774902,-1.9021565914154053
1725892562588747500,4.24674755859375,3.4135124683380127,-5.808866024017334,-2.1342852115631104
1725892562607595500,4.265595458984375,3.981922149658203,-5.046201229095459,-2.4809508323669434
1725892562626443800,4.28444384765625,3.715890407562256,-4.6705193519592285,-2.9226062297821045
1725892562645291800,4.303291748046875,3.0692901611328125,-3.3232572078704834,-3.184056282043457
1725892562664140000,4.32214013671875,2.028376579284668,-1.8642065525054932,-3.0032403469085693
1725892562682988000,4.340988037109375,0.7538071274757385,-0.9619593024253845,-2.3865723609924316
1725892562701836300,4.359836181640625,-0.4874700903892517,-0.32879796624183655,-1.482187032699585
1725892562720684300,4.378684326171875,-1.2302817106246948,-0.5658134818077087,-0.3591121435165405
1725892562739532300,4.3975322265625,-1.128572702407837,-0.5111411213874817,0.6307942271232605
1725892562758380500,4.416380615234375,-0.6780598759651184,0.02825249545276165,1.1384228467941284
1725892562777228500,4.435228515625,-0.6823359727859497,0.6504182815551758,1.2297471761703491
1725892562796076800,4.454076904296875,-0.9587522745132446,0.6094903349876404,1.050763726234436
1725892562814924800,4.4729248046875,-0.9563088417053223,0.5071704983711243,0.7520508766174316
1725892562833773000,4.49177294921875,-1.146898627281189,0.921336829662323,0.6579777002334595
1725892562852621000,4.51062109375,-1.5992439985275269,1.0401500463485718,0.8708640933036804
1725892562871469300,4.52946923828125,-1.68354332447052,0.5031998753547668,0.9915099143981934
1725892562890317300,4.5483173828125,-1.3090832233428955,-0.16936226189136505,0.8516218662261963
1725892562909165600,4.56716552734375,-1.1936297416687012,-0.42103853821754456,0.5581013560295105
1725892562928013600,4.586013671875,-1.0577123165130615,-0.39538222551345825,0.49945831298828125
1725892562946861800,4.60486181640625,-0.7834340929985046,-0.4747946560382843,0.4209621846675873
1725892562965709800,4.623709716796875,-0.9486730098724365,-0.818711519241333,0.30367615818977356
1725892562984558000,4.64255810546875,-1.3252711296081543,-1.2371538877487183,0.655228853225708
1725892563003406000,4.661406005859375,-1.2550216913223267,-1.6305508613586426,0.9200387001037598
1725892563022254300,4.68025439453125,-0.9920443892478943,-1.9469788074493408,0.8051961660385132
1725892563041102300,4.699102294921875,-0.7058542370796204,-1.9286528825759888,0.6876046657562256
1725892563059950600,4.71795068359375,-0.3023780584335327,-1.5764893293380737,0.6289616227149963
1725892563078798600,4.736798583984375,0.1438586562871933,-0.9699005484580994,0.45364347100257874
1725892563097646800,4.755646728515625,0.5256491303443909,-0.5740602016448975,0.19494222104549408
1725892563116494800,4.774494873046875,0.08888082206249237,-0.6155989766120911,0.2911534309387207
1725892563135343000,4.793343017578125,-0.2733619809150696,0.3214675784111023,0.4307360351085663
1725892563154191000,4.812191162109375,0.1844811588525772,1.8345797061920166,0.25786128640174866
1725892563173039400,4.831039306640625,0.23426663875579834,3.208109140396118,0.10606139898300171
1725892563191887400,4.849887451171875,0.40897396206855774,2.986976146697998,0.03825540840625763
1725892563210735600,4.868735595703125,0.6411026120185852,1.5725187063217163,0.15523600578308105
1725892563229583600,4.88758349609375,0.6447677612304688,-0.29336780309677124,0.42676541209220886
1725892563248431900,4.906431884765625,0.013744457624852657,-0.9964731931686401,0.96890789270401
1725892563267280000,4.92527978515625,-0.6255255341529846,-0.18066325783729553,1.3946806192398071
1725892563286128000,4.944128173828125,-0.8582650423049927,-0.011759147047996521,1.8509966135025024
1725892563304976100,4.96297607421875,-1.0137300491333008,0.5615374445915222,1.9924118518829346
1725892563323824400,4.981824462890625,0.09437860548496246,0.7838922142982483,2.010432243347168
1725892563342672400,5.00067236328125,1.303279995918274,0.16355904936790466,1.9627848863601685
1725892563361520600,5.019520751953125,2.7711880207061768,-0.3107774555683136,2.262108564376831
1725892563380368600,5.03836865234375,3.903120517730713,-1.2124139070510864,2.373286008834839
1725892563399217000,5.057216796875,4.4776387214660645,-2.327852964401245,2.4413974285125732
1725892563418065000,5.07606494140625,4.8771443367004395,-3.158018112182617,2.985983371734619
1725892563436913200,5.0949130859375,4.947393894195557,-3.2459826469421387,3.6719844341278076
1725892563455761200,5.11376123046875,4.474584579467773,-3.0190465450286865,3.4566547870635986
1725892563474609400,5.132609375,3.338376045227051,-3.596619129180908,1.680565357208252
1725892563493457400,5.15145751953125,2.620915412902832,-4.274373531341553,-0.48647743463516235
1725892563512305700,5.1703056640625,3.0210318565368652,-4.608821868896484,-1.6938517093658447
1725892563531153700,5.189153564453125,3.2956154346466064,-3.1454954147338867,-0.9437097311019897
1725892563550002000,5.208001953125,2.7653849124908447,-0.8721621632575989,1.0428224802017212
1725892563568850000,5.226849853515625,1.4340050220489502,0.09911280870437622,2.9420011043548584
1725892563587698200,5.2456982421875,0.5112938284873962,-0.39110618829727173,2.999727964401245
1725892563606546400,5.26454638671875,0.1591302752494812,-0.9870047569274902,1.885815978050232
1725892563625394400,5.28339453125,0.5473348498344421,-0.7985529899597168,1.117348074913025
1725892563644242700,5.30224267578125,1.5775582790374756,0.5545125007629395,1.2382992506027222
1725892563663090700,5.321090576171875,1.6184862852096558,0.4143190383911133,1.802432894706726
1725892563681939000,5.33993896484375,0.6805033683776855,-0.453719824552536,2.021122455596924
1725892563700787000,5.358786865234375,-0.3454440236091614,-2.2450807094573975,1.7883830070495605
1725892563719635200,5.37763525390625,-0.6438514590263367,-2.1549782752990723,1.5052471160888672
1725892563769097200,5.42709716796875,-0.17531819641590118,0.043829549103975296,-0.408592164516449
1725892563787945500,5.445945556640625,0.20219624042510986,1.437822937965393,-0.08177952468395233
1725892563806793700,5.464793701171875,0.9828814268112183,2.585026979446411,-0.4336376488208771
1725892563825641700,5.483641845703125,1.2895355224609375,2.445138931274414,-1.1404081583023071
1725892563844490000,5.502489990234375,0.9999856352806091,1.4793617725372314,-1.2014946937561035
1725892563863338000,5.521337890625,0.6652317643165588,1.0957386493682861,-0.778776228427887
1725892563882186200,5.540186279296875,0.5766563415527344,1.00594162940979,-0.44585493206977844
1725892563901034200,5.5590341796875,1.094058871269226,1.5111267566680908,-0.2326631247997284
1725892563919882500,5.577882568359375,1.8985676765441895,2.0749549865722656,-0.039018988609313965
1725892563938730800,5.596730712890625,1.9315544366836548,1.8886412382125854,0.038560837507247925
1725892563957578800,5.615578857421875,0.9468404054641724,2.118326425552368,0.10819942504167557
1725892563976427000,5.634427001953125,0.4221075773239136,1.4445425271987915,0.22365286946296692
1725892563995275000,5.65327490234375,0.6426297426223755,0.7646499872207642,0.6653081178665161
1725892564014123300,5.672123291015625,0.4776962697505951,0.5355756878852844,0.5009855031967163
1725892564032971500,5.690971435546875,0.24923282861709595,0.5251910090446472,0.5877282619476318
1725892564051819500,5.709819580078125,0.1386663019657135,0.5844448804855347,0.4081340432167053
1725892564070667500,5.72866748046875,0.4612029194831848,0.6785180568695068,0.3006218373775482
1725892564089515800,5.747515869140625,0.3023780584335327,0.047494735568761826,0.5975021123886108
1725892564108364000,5.766364013671875,0.19608759880065918,-0.560315728187561,0.6060542464256287
1725892564127212000,5.7852119140625,0.06047561392188072,-0.5743656158447266,0.3684278130531311
1725892564146060300,5.804060302734375,-0.29138249158859253,-0.9445496797561646,0.4093557596206665
1725892564164908500,5.822908447265625,-0.12095122784376144,-3.1009023189544678,0.08254310488700867
1725892564183756500,5.841756591796875,-0.08674279600381851,-4.323242664337158,-0.14347685873508453
1725892564202604800,5.860604736328125,-0.036651886999607086,-3.8070619106292725,-0.6828704476356506
1725892564221452800,5.879452880859375,0.1545487940311432,-2.6732969284057617,-1.2399791479110718
1725892564240301000,5.898301025390625,-0.000610864779446274,-1.863901138305664,-1.1110867261886597
1725892564259149000,5.917149169921875,-0.4166097939014435,-0.6806560754776001,-0.8239802122116089
1725892564277997300,5.935997314453125,-1.0195332765579224,0.02611446939408779,-0.3139081299304962
1725892564296845600,5.954845458984375,-1.1924080848693848,-0.7692314982414246,0.1631772518157959
1725892564315693600,5.973693603515625,-0.8124501705169678,-0.9091194868087769,0.27801984548568726
1725892564334541800,5.992541748046875,-0.4147771894931793,-0.35384342074394226,-0.06772962957620621
1725892564353389800,6.011389892578125,-0.2864955961704254,0.04993819445371628,-0.4684569239616394
1725892564372238000,6.030238037109375,-0.28466299176216125,0.09392046183347702,-0.48739373683929443
1725892564391086300,6.04908642578125,-0.4825831651687622,0.13423752784729004,-0.2699258625507355
1725892564409934300,6.067934326171875,-0.44898560643196106,0.05299251899123192,0.14057525992393494
1725892564428782600,6.086782470703125,-0.2528980076313019,-0.07284562289714813,0.3989710509777069
1725892564447630800,6.105630859375,-0.14172062277793884,-0.19440771639347076,0.48265954852104187
1725892564466478800,6.124478759765625,0.012217295356094837,-0.43753188848495483,0.7538834810256958
1725892564485327000,6.1433271484375,0.04886918142437935,-0.8810197114944458,0.7764855027198792
1725892564504175000,6.162175048828125,0.014049889519810677,-0.3831649422645569,0.8375719785690308
1725892564523023400,6.1810234375,0.08674279600381851,-0.016035201027989388,0.9261473417282104
1725892564541871600,6.19987158203125,0.18570289015769958,-0.13393209874629974,1.0275509357452393
1725892564560719600,6.2187197265625,-0.08674279600381851,-0.7606793642044067,1.0031163692474365
1725892564579567900,6.23756787109375,-0.8338304162025452,-0.7020363211631775,0.6036107540130615
1725892564598416000,6.256415771484375,-1.176525592803955,-0.6006327867507935,0.25847217440605164
1725892564617264000,6.27526416015625,-1.4660754203796387,-0.1314886510372162,-0.45623964071273804
1725892564636112400,6.2941123046875,-1.3353503942489624,-0.1314886510372162,-0.4996110200881958
1725892564654960400,6.31296044921875,-1.0665699243545532,-0.633008599281311,-0.2729802131652832
1725892564673808600,6.33180859375,-1.0971131324768066,-0.31291547417640686,-0.2742019295692444
1725892564692657000,6.350656982421875,-0.9028581380844116,0.20021092891693115,-0.08666644245386124
1725892564711505000,6.3695048828125,-0.6230821013450623,0.5936078429222107,0.12591449916362762
1725892564730353200,6.388353271484375,-0.013439024798572063,1.103679895401001,0.6017781496047974
1725892564749201400,6.407201416015625,-0.2968802750110626,0.8049670457839966,0.5614610910415649
1725892564768049400,6.42604931640625,-0.3176496922969818,0.6320923566818237,0.5840631127357483
1725892564786897700,6.444897705078125,-0.10506874322891235,0.8312342762947083,0.4765508770942688
1725892564805745700,6.46374560546875,-0.5210676789283752,1.4078905582427979,0.2755763828754425
1725892564824594000,6.482593994140625,-0.3585776388645172,1.6113085746765137,0.3525453209877014
1725892564843442200,6.501442138671875,0.36712974309921265,0.5453495383262634,-0.23327398300170898
1725892564862290200,6.520290283203125,0.23823726177215576,-0.0386371985077858,-0.11720968037843704
1725892564881137000,6.539136962890625,0.5033525824546814,-0.4173733592033386,0.19249875843524933
1725892564899985000,6.55798486328125,0.26022839546203613,-0.4179842174053192,0.03367391973733902
1725892564918833200,6.576833251953125,0.27488914132118225,-0.30863943696022034,0.2456440031528473
1725892564937681200,6.59568115234375,0.21135921776294708,-0.07712167501449585,0.061162836849689484
1725892564956529400,6.614529296875,0.27427828311920166,0.22525638341903687,0.16195552051067352
1725892564975377700,6.633377685546875,0.6798924803733826,0.12202023714780807,0.48449212312698364
1725892564994226000,6.652225830078125,0.3042106628417969,-0.15347976982593536,0.37636905908584595
1725892565013074000,6.671073974609375,-0.059864748269319534,0.06276635825634003,0.4551706314086914
1725892565031922200,6.689922119140625,0.16187916696071625,0.3150535225868225,0.4563923478126526
1725892565050770200,6.708770263671875,0.33169957995414734,0.5703949928283691,0.4447859227657318
1725892565069618400,6.727618408203125,0.4056142270565033,0.034666575491428375,0.7917571067810059
1725892565088466700,6.746466796875,0.25045454502105713,-0.3776671588420868,0.5235874652862549
1725892565107315000,6.76531494140625,0.2461785078048706,0.060322895646095276,0.4570032060146332
1725892565126163000,6.784162841796875,0.5717694163322449,0.4427242577075958,0.5950586795806885
1725892565145011200,6.80301123046875,0.6976075768470764,0.43172869086265564,0.4258491098880768
1725892565163859500,6.821859375,0.8399390578269958,0.44638943672180176,0.3800342381000519
1725892565182707500,6.84070751953125,1.0384701490402222,0.14767655730247498,0.06299543380737305
1725892565201555700,6.8595556640625,1.3304635286331177,0.18066325783729553,0.009850194677710533
1725892565220403700,6.87840380859375,1.4410300254821777,-0.37461283802986145,-0.6352230310440063
1725892565239252000,6.897251953125,1.9358304738998413,-0.8547525405883789,-1.0903172492980957
1725892565258100200,6.916100341796875,1.4776818752288818,-0.3868301212787628,-0.8734602928161621
1725892565276948500,6.934948486328125,1.2064579725265503,0.6137663722038269,-0.963868260383606
1725892565295796500,6.95379638671875,1.0482439994812012,1.4469859600067139,-1.0011310577392578
1725892565314644700,6.972644775390625,0.952949047088623,1.187368392944336,-0.798323929309845
1725892565333493000,6.991492919921875,0.896138608455658,1.143997073173523,-1.0762673616409302
1725892565352341000,7.010341064453125,1.0586286783218384,0.25152358412742615,-1.3126720190048218
1725892565371189200,7.029189208984375,1.4947861433029175,-1.3513855934143066,-1.4953206777572632
1725892565390037500,7.04803759765625,1.6872085332870483,-1.8871140480041504,-1.4965423345565796
1725892565408885500,7.066885498046875,1.1691951751708984,0.01511890348047018,-1.0884846448898315
1725892565427733800,7.085733642578125,0.4269944727420807,0.8214604258537292,-1.0035744905471802
1725892565446582000,7.10458203125,-0.1288924664258957,0.7035635113716125,-0.5869646668434143
1725892565465430000,7.123429931640625,0.42271843552589417,-0.028863361105322838,-0.6663771271705627
1725892565484278300,7.1422783203125,0.8491020202636719,-0.614682674407959,-0.7360156774520874
1725892565503126500,7.16112646484375,2.1795654296875,-1.1797325611114502,0.11430807411670685
1725892565521974800,7.179974853515625,0.7202095985412598,-1.0251837968826294,-0.07750347256660461
1725892565540822800,7.19882275390625,0.10384701192378998,-1.6757547855377197,-0.1446985900402069
1725892565559671000,7.217671142578125,-0.2614501118659973,-2.467435598373413,-0.023747367784380913
1725892565578519300,7.236519287109375,-0.2993237376213074,-2.3562581539154053,0.13019055128097534
1725892565597367600,7.255367431640625,0.43860089778900146,-1.9286528825759888,0.19066616892814636
1725892565616215600,7.274215576171875,0.5418370366096497,-1.450345754623413,0.15157082676887512
1725892565635063800,7.293063720703125,0.10506874322891235,-1.8412991762161255,0.06727148592472076
1725892565653912000,7.311912109375,-0.19730933010578156,-1.548084020614624,-0.0017562361899763346
1725892565672760000,7.330760009765625,-0.5045742988586426,-1.1449133157730103,-0.09155336022377014
1725892565691608300,7.3496083984375,-0.6078104376792908,-1.3342814445495605,-0.24915647506713867
1725892565710456600,7.36845654296875,-0.6707295179367065,-1.0202969312667847,-0.4061487317085266
1725892565729304600,7.3873046875,-0.94439697265625,-1.0349576473236084,-0.6553815603256226
1725892565748152800,7.40615283203125,-0.9230166673660278,-1.060613989830017,-0.899727463722229
1725892565767001000,7.4250009765625,-0.6530144214630127,-0.3110828995704651,-1.0683261156082153
1725892565785849300,7.443849365234375,-0.6181951761245728,0.23991714417934418,-1.4440079927444458
1725892565804697300,7.462697265625,-0.8478803038597107,0.5569559335708618,-1.9204825162887573
1725892565823545600,7.481545654296875,-0.9107993841171265,0.6663007736206055,-1.8477896451950073
1725892565842393900,7.500393798828125,-0.6432406306266785,1.5630502700805664,-1.9772928953170776
1725892565861242000,7.5192421875,-0.056810423731803894,1.2301290035247803,-1.7836488485336304
1725892565880090000,7.538090087890625,0.8338304162025452,1.0945169925689697,-1.6798018217086792
1725892565898938400,7.5569384765625,1.5491530895233154,1.4146101474761963,-1.13307785987854
1725892565917786600,7.57578662109375,1.7250821590423584,2.0236423015594482,-1.1752275228500366
1725892565936635000,7.594634765625,1.3646719455718994,1.4561488628387451,-0.9565379023551941
1725892565955483000,7.61348291015625,0.4569268524646759,-0.902400016784668,-0.7531198859214783
1725892565974331100,7.6323310546875,0.8845322132110596,-0.9262236952781677,-0.386601060628891
1725892565993179400,7.651179443359375,0.8258891701698303,-0.233503058552742,-0.3358992636203766
1725892566012027600,7.670027587890625,0.2571740746498108,-0.6763800382614136,-0.4379136860370636
1725892566030875600,7.688875732421875,-0.36835145950317383,-1.8437426090240479,-0.14714205265045166
1725892566049724000,7.707723876953125,-0.6065887212753296,-2.149174928665161,-0.1190422773361206
1725892566068572200,7.726572265625,-0.47586366534233093,-1.042288064956665,-0.19784383475780487
1725892566087420400,7.74542041015625,-0.45509424805641174,-0.9647082090377808,-0.21800236403942108
1725892566106268400,7.764268310546875,-0.5571087002754211,-0.9335541129112244,-0.2589302957057953
1725892566125116700,7.78311669921875,-0.7837395071983337,-1.0221295356750488,-0.3566686809062958
1725892566143965000,7.80196484375,-0.6554579138755798,-0.6611084342002869,-0.3707185685634613
1725892566162813000,7.82081298828125,-0.6065887212753296,0.02672533318400383,-0.3554469347000122
1725892566181661200,7.8396611328125,-0.6102539300918579,0.7163916826248169,-0.8245911002159119
1725892566200509400,7.858509521484375,-0.8179479241371155,0.3871355652809143,-0.5985711216926575
1725892566219357700,7.877357666015625,-0.7519745230674744,0.23991714417934418,-0.16730059683322906
1725892566238206000,7.8962060546875,-1.109330415725708,0.9454659819602966,-0.30169084668159485
1725892566257054000,7.915053955078125,-1.1148282289505005,0.8520036339759827,0.20593778789043427
1725892566275902200,7.933902099609375,-0.6389645338058472,1.5172353982925415,0.12896881997585297
1725892566294750500,7.95275048828125,-0.7464767694473267,1.9136866331100464,0.30428701639175415
1725892566313598700,7.9715986328125,-0.4612029194831848,1.9314017295837402,0.5620719790458679
1725892566332447000,7.990447021484375,-0.39339691400527954,2.388939380645752,0.6604211926460266
1725892566351295000,8.009294921875,-0.3426951467990875,2.6479461193084717,0.6689732670783997
1725892566370143200,8.028143310546875,0.2419024556875229,2.1360414028167725,0.46250098943710327
1725892566388991500,8.046991455078125,0.46486809849739075,1.6045891046524048,0.404468834400177
1725892566407839700,8.06583984375,0.675616443157196,0.606436014175415,0.5296961069107056
1725892566426688000,8.08468798828125,0.4471530318260193,0.19104796648025513,0.5840631127357483
1725892566445536000,8.103535888671875,0.39767298102378845,0.6827940940856934,0.6842449307441711
1725892566464384300,8.12238427734375,0.29443681240081787,1.235015869140625,0.37148213386535645
1725892566483232500,8.141232421875,0.6059778332710266,-0.008704823441803455,0.3360520005226135
1725892566502080800,8.160080810546875,2.5723516941070557,-0.9628756046295166,0.9090431332588196
1725892566520929000,8.178928955078124,3.4910922050476074,-1.4876084327697754,1.489364743232727
1725892566539777000,8.197777099609375,2.7507240772247314,-0.911562979221344,1.208366870880127
1725892566558625300,8.216625244140625,1.7091996669769287,-0.9402735829353333,0.607886791229248
1725892566577473500,8.2354736328125,1.5906919240951538,-1.085659384727478,0.5602393746376038
1725892566596321800,8.25432177734375,1.499062180519104,-0.623845636844635,0.4710530936717987
1725892566615170000,8.273170166015625,1.3506220579147339,-0.7698423266410828,1.0263291597366333
1725892566634018000,8.29201806640625,-0.31581708788871765,-0.4173733592033386,0.8284090161323547
1725892566652866300,8.3108662109375,0.37262752652168274,-1.0099122524261475,0.8284090161323547
1725892566671714600,8.329714599609375,0.07147117704153061,-1.1400264501571655,0.8277981281280518
1725892566690562800,8.348562744140626,0.2883281707763672,-0.6604975461959839,0.8650608658790588
1725892566709411000,8.3674111328125,0.5571087002754211,-0.17547090351581573,0.7667116522789001
1725892566728259300,8.38625927734375,0.56382817029953,0.5728384256362915,0.3775908052921295
1725892566747107300,8.405107421875,0.8741474747657776,0.8446732759475708,0.05322159454226494
1725892566765955600,8.42395556640625,0.1233946830034256,0.3889681398868561,-0.10621411353349686
1725892566784803800,8.442803955078125,-0.10995566099882126,0.6308705806732178,-0.4018726646900177
1725892566803652000,8.461652099609376,-0.41844236850738525,0.873994767665863,-0.5063305497169495
1725892566822500400,8.480500244140625,-0.8289434909820557,0.86544269323349,-0.40981391072273254
1725892566841348600,8.4993486328125,-0.46975502371788025,1.5007420778274536,-0.34750568866729736
1725892566860196900,8.51819677734375,-0.9480621218681335,1.9649993181228638,-0.47761988639831543
1725892566879044900,8.537044921875,-1.0109812021255493,1.6088651418685913,-0.1813504844903946
1725892566897893000,8.55589306640625,-0.9211840629577637,1.6265802383422852,-0.20028728246688843
1725892566916741400,8.574741455078126,-0.389120876789093,1.5050181150436401,-0.35300347208976746
1725892566935589600,8.593589599609375,0.4819723069667816,1.428049087524414,-0.14103341102600098
1725892566954438000,8.61243798828125,0.6316341757774353,1.4146101474761963,0.0965929925441742
1725892566973286100,8.6312861328125,0.7703005075454712,0.8984293937683105,0.16439898312091827
1725892566992134100,8.650134033203125,0.3042106628417969,0.393244206905365,-0.3413970470428467
1725892567010982400,8.668982421875,-0.2767217457294464,-0.06062832847237587,-0.5661953091621399
1725892567029830700,8.68783056640625,-0.2620609998703003,-0.05757400393486023,-0.3456731140613556
1725892567048679000,8.706678955078125,-0.7031053900718689,-0.708145022392273,-0.7653372287750244
1725892567067527200,8.725527099609375,-0.5045742988586426,-2.52852201461792,-0.8190932869911194
1725892567086375400,8.74437548828125,-0.08368847519159317,-1.725234866142273,-0.9681442975997925
1725892567105223700,8.7632236328125,0.2406807243824005,-1.778380036354065,-1.0432807207107544
1725892567124072000,8.782072021484375,0.7843503952026367,-0.7619010806083679,-0.9235512018203735
1725892567142920200,8.800920166015626,0.6994401812553406,0.2887863218784332,-0.8533017635345459
1725892567161768200,8.819768310546875,0.3640754222869873,-0.26710063219070435,-0.6480512022972107
1725892567180616400,8.838616455078125,0.35124725103378296,-0.4143190383911133,-0.6101775765419006
1725892567199464700,8.857464599609376,0.22174391150474548,-0.16569706797599792,-0.5124391913414001
1725892567218313000,8.87631298828125,0.05253437161445618,0.15012001991271973,-0.3004691004753113
1725892567237161200,8.8951611328125,-0.09407317638397217,0.6656898856163025,-0.3047451674938202
1725892567256009500,8.914009521484376,-0.7727439403533936,0.22159120440483093,-0.08239039033651352
1725892567274857700,8.932857666015625,-1.275485634803772,-0.5432115197181702,-0.10071633011102676
1725892567293706000,8.9517060546875,-1.2626575231552124,-0.1308777779340744,-0.8557451963424683
1725892567312554000,8.970553955078126,-1.0586286783218384,-0.014202605932950974,-0.8099303245544434
1725892567331402200,8.98940234375,-1.1789690256118774,-0.19990549981594086,-0.7195223569869995
1725892567350250500,9.00825048828125,-1.2131774425506592,-0.11621702462434769,-0.9149990677833557
1725892567369098800,9.0270986328125,-0.8894191384315491,-0.23167046904563904,-1.0664935111999512
1725892567387947000,9.045947021484375,-0.5589412450790405,-0.5145008563995361,-0.6052906513214111
1725892567406795300,9.064795166015625,-0.5155698657035828,-0.623845636844635,-0.21311545372009277
1725892567425643500,9.0836435546875,-0.4685332775115967,-0.5004509687423706,-0.1703549176454544
1725892567444491800,9.10249169921875,-0.4367683231830597,-0.2756527364253998,-0.21372631192207336
1725892567463340000,9.121340087890625,-0.5577195286750793,-0.21029019355773926,-0.5405389666557312
1725892567482188300,9.140188232421876,-0.8527672290802002,0.1818849891424179,-0.34261879324913025
1725892567501036500,9.15903662109375,-0.5784889459609985,-0.24266603589057922,-0.2173915058374405
1725892567519884500,9.177884521484375,-0.778241753578186,-0.1253799945116043,-0.11110103130340576
1725892567538733000,9.196733154296876,-0.8558215498924255,-0.13820815086364746,-0.17340923845767975
1725892567557581000,9.2155810546875,-0.7996219992637634,0.002290742937475443,-0.1605810821056366
1725892567576429300,9.23442919921875,-0.8643736839294434,0.15867212414741516,0.0019089524867013097
1725892567595277600,9.253277587890626,-0.8759800791740417,-0.03252854943275452,0.14912736415863037
1725892567614125800,9.272125732421875,-0.8900299668312073,0.0694858655333519,0.35010188817977905
1725892567632974000,9.29097412109375,-0.7525854110717773,0.025503603741526604,0.5241983532905579
1725892567651822300,9.309822265625,-0.7617483735084534,-0.11743875592947006,0.39591673016548157
1725892567670670600,9.328670654296875,-0.5369501113891602,0.16844595968723297,0.404468834400177
1725892567689518800,9.347518798828125,-0.4984656572341919,0.23258677124977112,0.20227259397506714
1725892567708367000,9.3663671875,-0.5516108870506287,0.39629852771759033,0.1582903414964676
1725892567727215400,9.38521533203125,-0.28954991698265076,0.32910341024398804,0.3372737169265747
1725892567746063600,9.404063720703125,-0.06108647957444191,0.5294670462608337,0.006185005884617567
1725892567764911900,9.422911865234376,-0.1441640853881836,1.195920467376709,0.06299543380737305
1725892567783760100,9.441760009765625,0.056810423731803894,1.136055827140808,0.12774710357189178
1725892567802608400,9.4606083984375,0.35735589265823364,0.967457115650177,0.3073413372039795
1725892567821456400,9.479456298828126,0.7721330523490906,0.6113229393959045,0.3635408878326416
1725892567840305000,9.498304931640625,0.9376774430274963,0.6772963404655457,0.22609633207321167
1725892567859153000,9.51715283203125,0.9107993841171265,0.7799215912818909,0.3427715003490448
1725892567878001200,9.536001220703126,1.191797137260437,0.6479747891426086,0.1680641770362854
1725892567896849400,9.554849365234375,1.6102395057678223,0.3627009689807892,0.13935352861881256
1725892567915697700,9.57369775390625,2.2204935550689697,-0.3043633699417114,-0.07200568914413452
1725892567934546000,9.5925458984375,2.6584835052490234,-1.019685983657837,-0.1654679924249649
1725892567953394200,9.611394287109375,2.634659767150879,-0.9341649413108826,0.09353867173194885
1725892567972242400,9.630242431640625,2.44468092918396,-0.33368489146232605,0.28840452432632446
1725892567991090700,9.649090576171876,2.1972806453704834,0.0798705667257309,0.17661628127098083
1725892568009939000,9.66793896484375,1.7629557847976685,-0.16936226189136505,-0.02496909722685814
1725892568028787200,9.686787109375,1.3170244693756104,0.2741255760192871,0.26274821162223816
1725892568047635500,9.705635498046876,1.084285020828247,0.5771145224571228,0.395305871963501
1725892568066483700,9.724483642578125,0.6737838387489319,0.48365217447280884,0.6591994762420654
1725892568085332000,9.74333203125,0.5626064538955688,0.3981311321258545,0.6738601922988892
1725892568104180200,9.76218017578125,0.4269944727420807,0.5013672709465027,0.7215076684951782
1725892568123028500,9.781028564453125,0.32620179653167725,0.6962331533432007,0.6787471175193787
1725892568141876700,9.799876708984375,0.07269290834665298,0.8825469017028809,0.2975675165653229
1725892568160725000,9.81872509765625,-0.059864748269319534,1.169653296470642,0.2193768173456192
1725892568179573200,9.8375732421875,-0.28954991698265076,0.8373429179191589,-0.1251509189605713
1725892568198421500,9.85642138671875,-0.6902772188186646,0.5746710300445557,-0.11049016565084457
1725892568217269800,9.875269775390626,-0.7764091491699219,0.5276344418525696,0.04711294546723366
1725892568236118000,9.894117919921875,-0.6945532560348511,0.5117519497871399,-0.30230170488357544
1725892568254966300,9.91296630859375,-0.5949822664260864,0.15378521382808685,-0.1660788655281067
1725892568273814500,9.931814453125,-0.1441640853881836,-0.12171480804681778,0.00923932995647192
1725892568292662800,9.950662841796875,-0.01954767294228077,-0.20051635801792145,0.010461059398949146
1725892568311511000,9.969510986328125,0.1539379209280014,-0.4497492015361786,0.03672824427485466
1725892568330359000,9.988359130859376,0.3066541254520416,-0.7924443483352661,0.09903645515441895
1725892568349207600,10.00720751953125,0.41783151030540466,-0.6311760544776917,0.25725042819976807
1725892568368055600,10.0260556640625,0.205861434340477,-0.6018545031547546,0.03917170315980911
1725892568386904000,10.044904052734376,-0.20158538222312927,-0.5187768936157227,0.12591449916362762
1725892568405752000,10.063751953125,-0.185092031955719,-0.10461059212684631,-0.08422297984361649
1725892568424600300,10.082600341796875,-0.2571740746498108,-0.233503058552742,-0.3762163519859314
1725892568443448600,10.101448486328126,0.34636032581329346,-0.9402735829353333,-0.2784779667854309
1725892568462296800,10.120296875,0.7819069027900696,-1.2041672468185425,0.20838125050067902
1725892568481145000,10.13914501953125,0.030543239787220955,-0.994640588760376,0.26885685324668884
1725892568499993300,10.157993408203126,0.011606430634856224,-1.0874919891357422,0.1729510873556137
1725892568518841600,10.176841552734375,-0.1692095398902893,-0.9763146042823792,-0.2949713170528412
1725892568537689900,10.19568994140625,-0.3127627670764923,-0.9476040005683899,-0.7317396402359009
1725892568556538000,10.2145380859375,-0.3023780584335327,-0.7215840220451355,-0.7409026026725769
1725892568575386400,10.233386474609375,-0.2211330533027649,-0.6171261668205261,-0.5148826241493225
1725892568594234600,10.252234619140625,-0.12156209349632263,-0.4222602844238281,-0.29130613803863525
1725892568613083000,10.271082763671876,0.21685700118541718,-0.22678354382514954,-0.21494804322719574
1725892568631931100,10.28993115234375,0.9089667797088623,-0.5902481079101562,-0.7793871164321899
1725892568650779400,10.308779296875,0.47525280714035034,-0.5560396909713745,-1.2302052974700928
1725892568669628000,10.3276279296875,0.020158538594841957,-0.8138245940208435,-1.1275800466537476
1725892568688476000,10.346475830078125,-0.36712974309921265,-0.2182314395904541,-0.9980766773223877
1725892568707324400,10.365324462890625,-0.5497782826423645,0.040775224566459656,-1.0524436235427856
1725892568726172400,10.38417236328125,-0.6731730103492737,0.31810784339904785,-1.0127373933792114
1725892568745021000,10.40302099609375,-0.7373138070106506,0.25274530053138733,-0.9412662386894226
1725892568763869200,10.421869140625,-0.7318159937858582,-0.0013744457392022014,-0.9198859930038452
1725892568782717400,10.440717529296874,-0.831997811794281,-0.3617846667766571,-0.9046143889427185
1725892568801565700,10.459565673828125,-0.9138537049293518,-0.4442514181137085,-0.8190932869911194
1725892568820414000,10.4784140625,-0.943175196647644,-0.9329432249069214,-0.9308815598487854
1725892568839262200,10.49726220703125,-1.1447606086730957,-1.0111339092254639,-0.9479857683181763
1725892568858110500,10.5161103515625,-1.232114315032959,-1.0007492303848267,-0.816649854183197
1725892568876958700,10.534958740234375,-1.1197150945663452,-0.920115053653717,-0.6523272395133972
1725892568895807000,10.553806884765624,-1.061682939529419,-0.8578068614006042,-0.797713041305542
1725892568914655200,10.5726552734375,-1.173471212387085,-0.7802270650863647,-0.7641154527664185
1725892568933503500,10.59150341796875,-1.1099413633346558,-1.1168135404586792,-0.6443859934806824
1725892568952351700,10.610351806640624,-0.3634645342826843,-0.8657481074333191,-0.6443859934806824
1725892568971200000,10.629199951171875,-0.7703005075454712,-0.17608177661895752,-0.5753582715988159
1725892568990048300,10.64804833984375,-0.8735366463661194,0.06643154472112656,-0.60406893491745
1725892569008896500,10.666896484375,-0.861319363117218,0.45066550374031067,-0.2485456019639969
1725892569027744800,10.685744873046875,-0.8625410795211792,0.36453354358673096,-0.16852232813835144
1725892569046593000,10.704593017578125,-0.5839866995811462,0.45738500356674194,0.20593778789043427
1725892569065441300,10.723441162109374,-0.4166097939014435,0.45066550374031067,0.32444554567337036
1725892569084289500,10.74228955078125,-0.36224281787872314,0.4225656986236572,0.30978479981422424
1725892569103137800,10.7611376953125,-0.24434591829776764,0.40973755717277527,0.5663480162620544
1725892569121986000,10.779986083984374,0.0616973415017128,0.5532907843589783,0.4869355857372284
1725892569140834300,10.798834228515625,0.17776164412498474,0.5893318057060242,0.6249909996986389
1725892569159682600,10.8176826171875,0.4318813979625702,0.9967786073684692,0.7526617646217346
1725892569178530800,10.83653076171875,0.5320632457733154,1.0749692916870117,0.6701950430870056
1725892569197379000,10.855379150390625,0.6212494969367981,0.8501710295677185,1.0544289350509644
1725892569216227300,10.874227294921875,0.7122683525085449,0.7200568318367004,1.025107502937317
1725892569235075600,10.89307568359375,0.8374956250190735,1.07863450050354,1.114904522895813
1725892569253923800,10.911923828125,0.8405499458312988,1.1171189546585083,1.1118502616882324
1725892569272772000,10.930772216796875,0.9144645929336548,1.0248783826828003,1.3177117109298706
1725892569291620400,10.949620361328124,1.1307107210159302,0.8636100888252258,1.1375066041946411
1725892569310468600,10.968468505859375,1.25715970993042,0.7377719283103943,1.0971895456314087
1725892569329316900,10.98731689453125,1.3548980951309204,0.7921388745307922,0.988455593585968
1725892569348165000,11.0061650390625,1.320078730583191,-0.13698641955852509,1.0165553092956543
1725892569367013400,11.025013427734375,0.9841031432151794,0.434783011674881,1.2926661968231201
1725892569385861600,11.043861572265625,1.082452416419983,0.3058905303478241,0.7789289355278015
1725892569404710000,11.0627099609375,1.0684025287628174,-0.10155627131462097,0.9011018872261047
1725892569423558100,11.08155810546875,0.9266818761825562,0.15806126594543457,1.0470986366271973
1725892569442406700,11.10040673828125,1.202792763710022,0.17088942229747772,0.61827152967453
1725892569461254700,11.119254638671874,0.9034690260887146,0.268627792596817,1.0116684436798096
1725892569480103200,11.138103271484376,1.0390809774398804,0.10186170041561127,0.949971079826355
1725892569498951400,11.156951416015625,1.0274745225906372,-0.1357647031545639,0.7807615399360657
1725892569517799700,11.175799560546874,0.7721330523490906,-0.15042544901371002,0.8613957166671753
1725892569536648000,11.19464794921875,0.5045742988586426,0.3016144931316376,0.6958513259887695
1725892569555496200,11.21349609375,0.4526508152484894,0.28695371747016907,0.5584067702293396
1725892569574344400,11.232344482421874,0.3756818473339081,-0.09789107739925385,0.39164069294929504
1725892569593192700,11.251192626953125,0.17898337543010712,-0.29764387011528015,0.40141451358795166
1725892569612041000,11.270041015625,-0.0665842592716217,0.07192932814359665,0.10819942504167557
1725892569630889200,11.28888916015625,-0.1331685185432434,0.09819651395082474,-0.13797907531261444
1725892569649737500,11.307737548828126,-0.20219624042510986,-0.04046979174017906,-0.13614648580551147
1725892569668585700,11.326585693359375,-0.2412915825843811,0.21487168967723846,-0.3151298761367798
1725892569687434000,11.34543408203125,-0.09101885557174683,-0.22495095431804657,-0.469678670167923
1725892569706282200,11.3642822265625,0.050090912729501724,-0.07040216773748398,-0.5918515920639038
1725892569725130500,11.383130615234375,0.16737695038318634,-0.2280052751302719,-0.5258781909942627
1725892569743978800,11.401978759765624,0.2101374864578247,-0.32391104102134705,-0.4336376488208771
1725892569762827000,11.420826904296876,0.21991132199764252,0.1513417512178421,-0.612621009349823
1725892569781675300,11.43967529296875,0.2370155304670334,-0.06795870512723923,-1.0273982286453247
1725892569800523500,11.4585234375,0.2254091054201126,-0.0899498388171196,-1.0432807207107544
1725892569819371800,11.477371826171876,0.08429934084415436,-0.16019928455352783,-0.9357684850692749
1725892569838220000,11.496219970703125,-0.07269290834665298,0.13973531126976013,-0.9333250522613525
1725892569857068300,11.515068359375,-0.2009745091199875,-0.14492766559123993,-0.8032108545303345
1725892569875916500,11.53391650390625,-0.32620179653167725,-0.3678933084011078,-0.6517163515090942
1725892569894764800,11.552764892578125,-0.45020735263824463,-0.07101303339004517,-0.704861581325531
1725892569913613300,11.57161328125,-0.46486809849739075,0.022449281066656113,-0.8410844206809998
1725892569932461600,11.590461669921876,-0.3292561173439026,-0.2237292230129242,-0.8380300998687744
1725892569951309800,11.609309814453125,-0.28405213356018066,-0.6672170758247375,-0.5570323467254639
1725892569970158000,11.628157958984374,-0.3860665261745453,-0.6708822250366211,-0.36399903893470764
1725892569989006300,11.64700634765625,-0.4416552484035492,-0.46196648478507996,-0.45074185729026794
1725892570007854600,11.6658544921875,-0.5308414697647095,-0.09728021919727325,-0.6187296509742737
1725892570026702800,11.684702880859374,-0.471587598323822,-0.2787070572376251,-0.6657662391662598
1725892570045551000,11.703551025390626,-0.3848448097705841,-0.08811724185943604,-0.6333904266357422
1725892570064399400,11.7223994140625,-0.3915643095970154,-0.36483898758888245,-0.7861065864562988
1725892570083247600,11.74124755859375,-0.593149721622467,-0.5377137064933777,-1.036561131477356
1725892570102096000,11.760095947265626,-0.9187406301498413,-0.295811265707016,-1.0335068702697754
1725892570120944000,11.778944091796875,-0.7745765447616577,-0.24327689409255981,-1.029841661453247
1725892570139792400,11.79779248046875,-0.6884446144104004,-0.5291616320610046,-1.1868338584899902
1725892570158640600,11.816640625,-0.9608902931213379,-1.1253656148910522,-1.192942500114441
1725892570177489000,11.835489013671875,-1.1349867582321167,-1.2005020380020142,-1.0347285270690918
1725892570196337200,11.854337158203125,-0.8387173414230347,-1.5065453052520752,-0.8722385764122009
1725892570215185400,11.873185302734376,-0.748920202255249,-1.4680607318878174,-0.8392518758773804
1725892570234033700,11.89203369140625,-0.7764091491699219,-1.559079647064209,-0.9058361053466797
1725892570252882000,11.9108818359375,-0.8600975871086121,-1.2273800373077393,-0.7280744314193726
1725892570271730200,11.929730224609376,-0.8301652073860168,-0.305585116147995,-0.5619192123413086
1725892570290578700,11.94857861328125,-0.8307760953903198,0.43050694465637207,-0.7066941857337952
1725892570309427000,11.967427001953125,-1.028085470199585,0.5820014476776123,-0.7610611319541931
1725892570328275200,11.986275146484376,-0.915075421333313,0.5514581799507141,-0.15447242558002472
1725892570347123500,12.00512353515625,-0.8069523572921753,0.9998329281806946,-0.3701077103614807
1725892570365971700,12.0239716796875,-0.9560033679008484,0.5166388750076294,-0.2729802131652832
1725892570384820000,12.042820068359376,-0.7715222239494324,0.15989385545253754,0.343993216753006
1725892570403668200,12.061668212890625,-0.5430588126182556,0.46715885400772095,0.46922051906585693
1725892570422516500,12.0805166015625,-0.3909534513950348,0.7145590782165527,0.526030957698822
1725892570441364700,12.09936474609375,-0.3347539007663727,0.7628173828125,0.8424589037895203
1725892570460213000,12.118212890625,-0.2663370370864868,0.8159626126289368,1.2944988012313843
1725892570479061200,12.137061279296875,0.11423171311616898,1.1531599760055542,1.2584577798843384
1725892570497909500,12.155909423828126,0.1386663019657135,1.2735003232955933,1.3323724269866943
1725892570516757800,12.1747578125,0.2883281707763672,1.335808515548706,1.487532138824463
1725892570535606000,12.19360595703125,0.6017017960548401,1.4262166023254395,1.5400664806365967
1725892570554454300,12.212454345703126,0.9370665550231934,1.5526655912399292,1.3561961650848389
1725892570573302500,12.231302490234375,1.1691951751708984,1.4243839979171753,1.1295653581619263
1725892570592150800,12.25015087890625,1.2498292922973633,1.46714448928833,1.096578598022461
1725892570610999000,12.2689990234375,1.3952151536941528,0.9625701904296875,1.0654245615005493
1725892570629847300,12.287847412109375,1.4740166664123535,0.790917158126831,0.9133192300796509
1725892570648695600,12.306695556640625,1.5937461853027344,0.49831295013427734,0.49426597356796265
1725892570667544000,12.3255439453125,1.57297682762146,0.24785839021205902,0.5687914490699768
1725892570686392300,12.344392333984375,1.5406010150909424,0.19410228729248047,0.627434492111206
1725892570705240300,12.363240234375,1.3274091482162476,0.13729186356067657,0.8943824172019958
1725892570724088800,12.3820888671875,1.2528836727142334,0.09636391699314117,0.7312815189361572
1725892570742937000,12.40093701171875,1.1282672882080078,0.15378521382808685,0.8687260746955872
1725892570761785300,12.419785400390625,1.0830632448196411,0.16600249707698822,0.8815542459487915
1725892570780633600,12.438633544921874,0.9010255336761475,0.4036289155483246,1.0299943685531616
1725892570799481900,12.45748193359375,0.9761618971824646,-0.030695954337716103,0.7544943690299988
1725892570818330000,12.476330078125,0.8301652073860168,-0.05757400393486023,0.6604211926460266
1725892570837178400,12.495178466796874,0.3659079968929291,0.11591159552335739,0.455781489610672
1725892570856026600,12.514026611328125,0.20952661335468292,0.17455461621284485,0.26213735342025757
1725892570874875000,12.532875,0.18875721096992493,-0.06123919412493706,0.05688678100705147
1725892570893723100,12.55172314453125,-0.02932151034474373,-0.06490438431501389,-0.17829616367816925
1725892570912571400,12.5705712890625,-0.23212862014770508,-0.10949750989675522,-0.2638172209262848
1725892570931419600,12.589419677734375,-0.40378162264823914,0.09269873052835464,-0.45501789450645447
1725892570950268000,12.608267822265624,-0.3433060050010681,-0.18463388085365295,-0.7812197208404541
1725892570969116200,12.6271162109375,-0.3494146466255188,-0.14859285950660706,-0.8392518758773804
1725892570987964400,12.64596435546875,-0.3341430425643921,-0.12476912885904312,-0.8985057473182678
1725892571006812700,12.664812744140624,-0.36224281787872314,-0.1052214577794075,-1.093982458114624
1725892571025661000,12.683660888671875,-0.3750709891319275,0.14401137828826904,-1.2216532230377197
1725892571044509200,12.70250927734375,-0.15210533142089844,-0.16936226189136505,-1.3737585544586182
1725892571063357400,12.721357421875,-0.1698204129934311,0.022449281066656113,-1.2228748798370361
1725892571082205700,12.740205810546875,-0.20463970303535461,0.03222311660647392,-0.9473749399185181
1725892571101054200,12.75905419921875,-0.18264856934547424,0.08414662629365921,-0.8209258913993835
1725892571119902200,12.777902099609374,-0.2364046722650528,-0.036804601550102234,-0.5179370045661926
1725892571138750700,12.796750732421875,-0.35613417625427246,-0.22617268562316895,-0.44157886505126953
1725892571157599000,12.815598876953125,-0.5613847374916077,-0.17608177661895752,-0.37988153100013733
1725892571176447200,12.834447265625,-0.3946186602115631,-0.24633121490478516,-0.49777844548225403
1725892571195295500,12.85329541015625,-0.22968515753746033,-0.42164942622184753,-0.3701077103614807
1725892571214143700,12.872143798828125,-0.21441353857517242,-0.46257734298706055,-0.22411102056503296
1725892571232992000,12.890991943359374,-0.17715078592300415,-0.6458367705345154,-0.10743584483861923
1725892571251840300,12.90984033203125,-0.337808221578598,-0.6311760544776917,-0.16668972373008728
1725892571270688500,12.9286884765625,-0.3384190797805786,-0.4754055142402649,-0.30291256308555603
1725892571289536800,12.947536865234374,-0.2889390289783478,-0.42531460523605347,-0.48739373683929443
1725892571308385000,12.966385009765625,-0.18081597983837128,-0.42653632164001465,-0.6621010899543762
1725892571327233300,12.9852333984375,-0.24556763470172882,-0.7307469844818115,-0.7451786994934082
1725892571346081500,13.00408154296875,-0.5064069032669067,-0.6739365458488464,-0.7274636030197144
1725892571364929800,13.0229296875,-0.5112938284873962,-0.7845031023025513,-0.7042507529258728
1725892571383778000,13.041778076171875,-0.44470956921577454,-0.9060651659965515,-0.8887318968772888
1725892571402626300,13.060626220703124,-0.6133082509040833,-1.245095133781433,-1.039615511894226
1725892571421474600,13.079474609375,-0.8106175661087036,-1.0288490056991577,-0.9498183727264404
1725892571440322800,13.09832275390625,-0.6236929297447205,-1.0233511924743652,-0.8581886291503906
1725892571459171000,13.117171142578124,-0.5247328281402588,-1.0740530490875244,-1.008461356163025
1725892571478019300,13.136019287109375,-0.5839866995811462,-0.8822414875030518,-0.9595922231674194
1725892571496867600,13.15486767578125,-0.6023126840591431,-0.8028290271759033,-0.8190932869911194
1725892571515715800,13.1737158203125,-0.80389803647995,-0.6360629796981812,-0.8746820092201233
1725892571534564000,13.192564208984376,-0.9474512934684753,0.14950916171073914,-0.8478039503097534
1725892571553412400,13.211412353515625,-0.8600975871086121,0.5025889873504639,-0.6877573728561401
1725892571572260600,13.230260498046874,-0.657290518283844,0.5502364635467529,-0.41897687315940857
1725892571591108900,13.24910888671875,-0.6334667801856995,0.30894485116004944,-0.41470083594322205
1725892571609957000,13.26795703125,-0.6365211009979248,0.3352120518684387,-0.36338818073272705
1725892571628805400,13.286805419921874,-0.3646862804889679,0.41095927357673645,-0.19051344692707062
1725892571647653600,13.305653564453126,-0.401949018239975,0.3993528485298157,-0.032910339534282684
1725892571666502000,13.324501953125,-0.185092031955719,0.3107774555683136,0.20532692968845367
1725892571685350400,13.343350341796874,-0.1026252806186676,0.39568766951560974,0.35621052980422974
1725892571704198400,13.362198486328126,0.08063415437936783,0.43661558628082275,0.7221185564994812
1725892571723047000,13.381046875,0.45020735263824463,0.6950113773345947,0.7862593531608582
1725892571741895000,13.39989501953125,0.5491674542427063,0.8770490884780884,0.8754456043243408
1725892571760743400,13.418743408203126,0.7660244107246399,1.0022764205932617,0.9847903847694397
1725892571779591700,13.437591796875,0.8466585874557495,1.1140646934509277,1.091080904006958
1725892571798440000,13.45643994140625,0.8790343999862671,0.873994767665863,1.237688422203064
1725892571817288200,13.4752880859375,0.9572250843048096,0.7964149713516235,1.3280963897705078
1725892571836136400,13.494136474609375,1.1233803033828735,0.845894992351532,1.1411718130111694
1725892571854984700,13.512984619140624,1.1398736238479614,0.8776599764823914,1.3360376358032227
1725892571873833000,13.5318330078125,1.1606431007385254,0.7170025110244751,1.4930298328399658
1725892571892681200,13.55068115234375,1.2583814859390259,0.7090612649917603,1.1979821920394897
1725892571911529500,13.569529541015624,1.0879502296447754,0.6742420196533203,1.3085486888885498
1725892571930377700,13.588377685546876,1.194240689277649,0.22159120440483093,1.2505165338516235
1725892571949226000,13.60722607421875,1.062904715538025,0.5331322550773621,1.412395715713501
1725892571968074200,13.62607421875,1.2101231813430786,0.23564109206199646,1.0672571659088135
1725892571986922500,13.644922607421876,0.952949047088623,0.4079049527645111,1.3531419038772583
1725892572005770800,13.663770751953125,0.9938769936561584,0.18371757864952087,1.3250420093536377
1725892572024619000,13.682618896484374,1.153923511505127,0.2948949635028839,1.2682316303253174
1725892572043467300,13.70146728515625,1.081230640411377,0.04016435891389847,1.2053126096725464
1725892572062315500,13.7203154296875,0.9046907424926758,-0.15286891162395477,0.9566906094551086
1725892572081163800,13.739163818359375,0.5919279456138611,-0.19074252247810364,0.8534544706344604
1725892572100012000,13.758011962890626,0.16615521907806396,-0.17791436612606049,0.5749000906944275
1725892572118860300,13.7768603515625,-0.059864748269319534,0.14340050518512726,0.4344012141227722
1725892572137708500,13.79570849609375,-0.10384701192378998,0.14340050518512726,0.3134499788284302
1725892572156556800,13.814556884765626,-0.15515965223312378,0.19532401859760284,-0.004199695307761431
1725892572175405000,13.833405029296875,-0.23945899307727814,0.21059563755989075,-0.26076290011405945
1725892572194253300,13.85225341796875,-0.2370155304670334,-0.25671592354774475,-0.25098907947540283
1725892572213101600,13.8711015625,-0.235793799161911,-0.28298309445381165,-0.2515999376773834
1725892572231949800,13.88994970703125,-0.33231043815612793,0.08353576064109802,-0.6211731433868408
1725892572250798000,13.908798095703125,-0.3958403766155243,0.1928805559873581,-1.067104458808899
1725892572269646300,13.927646240234376,-0.40317076444625854,0.09330959618091583,-0.9333250522613525
1725892572288494600,13.94649462890625,-0.31031930446624756,0.054214250296354294,-0.7799979448318481
1725892572307342800,13.9653427734375,-0.2974911332130432,-0.03252854943275452,-0.7757219076156616
1725892572326191000,13.984191162109376,-0.3237583339214325,-0.20967933535575867,-0.8612430095672607
1725892572345039400,14.003039306640625,-0.35185810923576355,-0.014202605932950974,-0.9204968810081482
1725892572363887600,14.0218876953125,-0.2926042377948761,-0.16997312009334564,-1.021289587020874
1725892572382736000,14.04073583984375,-0.25473061203956604,-0.2286161482334137,-1.1245256662368774
1725892572401584000,14.059584228515625,-0.4575377106666565,-0.16264274716377258,-1.1587340831756592
1725892572420432400,14.078432373046875,-0.6890554428100586,0.16905683279037476,-1.018235206604004
1725892572439280600,14.09728076171875,-0.4416552484035492,-0.049021899700164795,-0.7677806615829468
1725892572458129000,14.11612890625,-0.014660755172371864,-0.5774199366569519,-0.6950877904891968
1725892572476977200,14.13497705078125,-0.05070177838206291,-0.5236638188362122,-0.3756054937839508
1725892572495825400,14.153825439453126,-0.2608392536640167,-0.7435751557350159,-0.5515345335006714
1725892572514673700,14.172673583984375,-0.4862483739852905,-0.7509055137634277,-0.8361974954605103
1725892572533522000,14.19152197265625,-0.5320632457733154,-0.5010618567466736,-0.7500655651092529
1725892572552370200,14.2103701171875,-0.3072649836540222,-0.29275694489479065,-0.4849502742290497
1725892572571218400,14.229218505859375,-0.19425499439239502,-0.8504765033721924,-0.44096800684928894
1725892572590066700,14.248066650390625,-0.43493571877479553,-1.1650718450546265,-0.7488438487052917
1725892572608915000,14.2669150390625,-0.7165443897247314,-0.8944587707519531,-0.8148172497749329
1725892572627763200,14.28576318359375,-0.6811142563819885,-0.7686206102371216,-0.908890426158905
1725892572646611500,14.304611572265625,-0.5925388336181641,-1.3471095561981201,-1.2760201692581177
1725892572665459700,14.323459716796876,-0.7971785664558411,-1.2988512516021729,-1.16789710521698
1725892572684308000,14.342307861328125,-0.5858193039894104,-1.1815651655197144,-0.8520799875259399
1725892572703156200,14.36115625,-0.3488037884235382,-1.1271982192993164,-0.7769436240196228
1725892572722004500,14.38000439453125,-0.6169734001159668,-0.7649554014205933,-0.9455423355102539
1725892572740852700,14.398852783203125,-0.7611374855041504,-0.08017600327730179,-0.9076687097549438
1725892572759700700,14.41770068359375,-0.8558215498924255,-0.14370593428611755,-0.7958804368972778
1725892572778549200,14.43654931640625,-0.8796452879905701,-0.05451968312263489,-0.4935023784637451
1725892572797397200,14.455397216796875,-0.8558215498924255,-0.023365577682852745,-0.2943604588508606
1725892572816245800,14.474245849609375,-0.9456186890602112,-0.12415826320648193,-0.18196134269237518
1725892572835093800,14.49309375,-0.9926552772521973,0.10308343172073364,0.1118646115064621
1725892572853942000,14.51194189453125,-0.7935133576393127,0.4634936451911926,0.2456440031528473
1725892572872790300,14.530790283203125,-0.49541133642196655,0.4659371078014374,0.11614066362380981
1725892572891638500,14.549638427734376,-0.3390299379825592,0.4659371078014374,0.012293653562664986
1725892572910486800,14.56848681640625,-0.3139844834804535,-0.16508620977401733,0.13080142438411713
1725892572929335000,14.5873349609375,-0.19120067358016968,-0.35017824172973633,0.3171151876449585
1725892572948183300,14.606183349609376,-0.04276053607463837,-0.3733910918235779,0.4050796926021576
1725892572967031600,14.625031494140625,0.16737695038318634,0.6241511106491089,0.29451319575309753
1725892572985879800,14.6438798828125,0.0977383628487587,0.567951500415802,0.6970730423927307
1725892573004728000,14.66272802734375,0.17165300250053406,0.919198751449585,1.0642027854919434
1725892573023576300,14.681576416015625,0.5216785073280334,1.3406955003738403,0.8839976787567139
1725892573042424600,14.700424560546875,0.7330377101898193,2.0218098163604736,0.9322559833526611
1725892573061272800,14.71927294921875,0.7159335017204285,2.2001821994781494,1.2523491382598877
1725892573080121000,14.73812109375,0.7635809779167175,1.569158911705017,1.3433680534362793
1725892573098969300,14.75696923828125,0.8173370957374573,0.9619593024253845,1.2156972885131836
1725892573117817600,14.775817626953126,0.8277217745780945,0.5856665968894958,1.420947790145874
1725892573136665900,14.794665771484375,0.9211840629577637,0.5190823674201965,1.5767183303833008
1725892573155514000,14.81351416015625,1.065959095954895,0.28695371747016907,1.3897937536239624
1725892573174362400,14.8323623046875,0.9358448386192322,0.3199404180049896,1.4160609245300293
1725892573193210600,14.851210693359375,1.1404845714569092,0.660802960395813,1.2718968391418457
1725892573212059000,14.870058837890625,1.2565488815307617,0.6296488642692566,1.2199733257293701
1725892573230907100,14.8889072265625,1.0971131324768066,0.30833399295806885,1.2828923463821411
1725892573249755400,14.90775537109375,0.9596685767173767,0.18982623517513275,1.25479257106781
1725892573268603600,14.926603759765625,0.8478803038597107,0.29184064269065857,1.1613303422927856
1725892573287452000,14.945451904296876,0.8625410795211792,0.11407899856567383,1.0086140632629395
1725892573306300000,14.9642998046875,0.7635809779167175,-0.025809036567807198,1.0794744491577148
1725892573325148400,14.9831484375,0.5705476999282837,-0.27259841561317444,0.9896773099899292
1725892573343996400,15.001996337890626,0.46914416551589966,-0.039248060435056686,0.7770963311195374
1725892573362844700,15.0208447265625,0.35796675086021423,-0.3831649422645569,0.5425242781639099
1725892573381693000,15.03969287109375,0.04153880476951599,-0.08567378669977188,0.4814378023147583
1725892573400541200,15.058541259765626,-0.0409279391169548,0.2185368686914444,0.5296961069107056
1725892573419389400,15.077389404296875,-0.13683371245861053,-0.02214384824037552,0.15523600578308105
1725892573438237700,15.09623779296875,-0.17226386070251465,0.10858121514320374,0.06482802331447601
1725892573457086000,15.1150859375,-0.2864955961704254,-0.11682789027690887,-0.0628427118062973
1725892573475934200,15.133934326171875,-0.40866854786872864,0.1000291109085083,-0.39393141865730286
1725892573494782500,15.152782470703125,-0.40866854786872864,0.1104138121008873,-0.5521454215049744
1725892573513630700,15.171630615234376,-0.34697118401527405,0.030390523374080658,-0.640720784664154
1725892573532479000,15.19047900390625,-0.347582072019577,0.056657709181308746,-0.6089558005332947
1725892573551327200,15.2093271484375,-0.21991132199764252,0.3620901107788086,-0.6779835224151611
1725892573570175500,15.228175537109376,-0.11056652665138245,0.19104796648025513,-0.7427352070808411
1725892573589023700,15.247023681640625,0.017104214057326317,0.015729768201708794,-0.7402917742729187
1725892573607872000,15.2658720703125,-0.030543239787220955,0.1617264449596405,-0.8184824585914612
1725892573626720300,15.28472021484375,-0.19669845700263977,0.5539016127586365,-0.9492074847221375
1725892573645568500,15.303568603515625,-0.2162461280822754,0.3052796721458435,-0.881401538848877
1725892573664416800,15.322416748046875,-0.18264856934547424,0.2796233594417572,-0.835586667060852
1725892573683264800,15.3412646484375,-0.3280344009399414,0.19349141418933868,-0.6987529397010803
1725892573702113300,15.36011328125,-0.2883281707763672,0.030390523374080658,-0.7958804368972778
1725892573720961300,15.378961181640625,-0.2730565667152405,-0.1003345400094986,-0.8331431746482849
1725892573739809500,15.3978095703125,-0.27977606654167175,-0.2689332067966461,-0.899727463722229
1725892573758657800,15.41665771484375,-0.4251618981361389,-0.2799287736415863,-0.8545234799385071
1725892573777506000,15.435506103515625,-0.39217519760131836,-0.22983787953853607,-0.8447496294975281
1725892573796354300,15.454354248046876,-0.3133736252784729,-0.29214608669281006,-0.8728494048118591
1725892573815202600,15.47320263671875,-0.2926042377948761,-0.6256782412528992,-0.8148172497749329
1725892573834050800,15.49205078125,-0.3756818473339081,-0.6073523163795471,-0.8624647259712219
1725892573852899000,15.510899169921874,-0.45509424805641174,-0.6360629796981812,-0.8019890785217285
1725892573871747300,15.529747314453125,-0.3848448097705841,-0.7057015299797058,-0.9052252173423767
1725892573890595600,15.548595703125,-0.3066541254520416,-0.5352702736854553,-0.880179762840271
1725892573909443800,15.56744384765625,-0.3799578845500946,-0.5768090486526489,-0.9443206191062927
1725892573928292000,15.5862919921875,-0.5790998339653015,-0.4497492015361786,-1.0255656242370605
1725892573947140400,15.605140380859375,-0.6511818766593933,-0.45707955956459045,-0.9840267896652222
1725892573965988400,15.62398828125,-0.6866120100021362,-0.7783944606781006,-1.1281908750534058
1725892573984836600,15.642836669921875,-0.7452550530433655,-0.949436604976654,-1.0933716297149658
1725892574003684900,15.661684814453125,-0.6817250847816467,-1.0557270050048828,-1.0286198854446411
1725892574022533000,15.680533203125,-0.6365211009979248,-0.9732602834701538,-0.8942296504974365
1725892574041381400,15.69938134765625,-0.6255255341529846,-0.8394809365272522,-0.7586176991462708
1725892574060229600,15.718229736328125,-0.6933315396308899,-0.8700241446495056,-0.7647263407707214
1725892574079078000,15.737077880859376,-0.6230821013450623,-0.920115053653717,-0.5991820096969604
1725892574097926100,15.755926025390625,-0.4373791813850403,-0.2835939824581146,-0.4727329909801483
1725892574116774400,15.7747744140625,-0.3744601011276245,-0.1467602699995041,-0.6071232557296753
1725892574135622700,15.79362255859375,-0.10873392969369888,0.18493930995464325,-0.41470083594322205
1725892574154471000,15.812470947265625,-0.2364046722650528,0.2790125012397766,-0.733572244644165
1725892574173319200,15.831319091796875,-0.35674503445625305,0.48304131627082825,-0.5997928380966187
1725892574192167400,15.85016748046875,-0.11178825795650482,0.6882919073104858,-0.28214317560195923
1725892574211015400,15.869015380859375,-0.09896009415388107,0.8697187304496765,-0.0683404952287674
1725892574229863700,15.88786376953125,-0.07513637095689774,0.597273051738739,0.0654388889670372
1725892574248712000,15.9067119140625,0.07574722915887833,0.4042397737503052,0.5022072196006775
1725892574267560200,15.925560302734375,0.4612029194831848,0.8507819175720215,0.6378191709518433
1725892574286408400,15.944408447265625,0.347582072019577,0.8831577301025391,0.7483857274055481
1725892574305256700,15.963256591796876,0.3585776388645172,0.3474293351173401,1.1882083415985107
1725892574324105000,15.98210498046875,0.4868592321872711,0.43661558628082275,1.3726894855499268
1725892574342953200,16.000953125,0.5632173418998718,0.7976366877555847,1.2248601913452148
1725892574361801500,16.019801513671876,0.49663305282592773,0.6021599769592285,1.4441606998443604
1725892574380649700,16.038649658203123,0.5430588126182556,0.46288278698921204,1.6371939182281494
1725892574399498000,16.057498046875,0.7086031436920166,0.661413848400116,1.3714678287506104
1725892574418346200,16.07634619140625,0.6682860851287842,0.855668842792511,1.3354268074035645
1725892574437194200,16.0951943359375,0.7984002828598022,1.161101222038269,1.4496585130691528
1725892574456042500,16.11404248046875,1.204014539718628,0.7695369124412537,1.2059234380722046
1725892574474890800,16.132890869140624,1.3652827739715576,0.6601921319961548,1.2554035186767578
1725892574493739000,16.151739013671875,1.3017528057098389,0.884379506111145,1.055039882659912
1725892574512587300,16.170587158203126,1.2919789552688599,0.5392408967018127,1.078863501548767
1725892574531435500,16.189435546875,1.1001675128936768,0.09453132748603821,1.3488657474517822
1725892574550283800,16.20828369140625,1.0207550525665283,-0.1870773434638977,0.9737948179244995
1725892574569132000,16.227132080078125,0.9236275553703308,0.005345067009329796,0.9353103637695312
1725892574587980300,16.245980224609376,1.053130865097046,-0.38072147965431213,0.7630464434623718
1725892574606828300,16.264828369140623,0.8833104968070984,-0.22189663350582123,0.9084323048591614
1725892574625676500,16.283676513671875,0.8258891701698303,-0.21395538747310638,0.8620065450668335
1725892574644524800,16.30252490234375,0.8582650423049927,-0.2695440948009491,0.6897426843643188
1725892574663373000,16.321373046875,0.6444623470306396,-0.0642935186624527,0.8290198445320129
1725892574682221300,16.34022119140625,0.4526508152484894,-0.0844520553946495,0.812526524066925
1725892574701069600,16.359069580078124,0.37812530994415283,0.05787943676114082,0.6848557591438293
1725892574719917800,16.377917724609375,0.21380266547203064,0.15806126594543457,0.3794233798980713
1725892574738766000,16.39676611328125,0.09712749719619751,0.04199695214629173,0.2713003158569336
1725892574757614300,16.4156142578125,0.056199558079242706,-0.3098611533641815,0.25847217440605164
1725892574776462600,16.434462646484373,-0.0769689604640007,0.07315105944871902,0.10025817900896072
1725892574795310600,16.453310546875,-0.19303326308727264,0.2741255760192871,-0.29130613803863525
1725892574814158800,16.472158935546876,-0.20402882993221283,0.2380845546722412,-0.46601346135139465
1725892574833007000,16.491007080078123,-0.17776164412498474,-0.026419902220368385,-0.15813761949539185
1725892574851855400,16.50985546875,-0.268169641494751,0.2759581506252289,-0.23632831871509552
1725892574870703600,16.52870361328125,-0.4630354940891266,0.24724751710891724,-0.5515345335006714
1725892574889552000,16.5475517578125,-0.411722868680954,-0.12843431532382965,-0.8013782501220703
1725892574908400000,16.566400146484376,-0.4355465769767761,0.05787943676114082,-0.7402917742729187
1725892574927248400,16.585248291015624,-0.5137372612953186,0.1818849891424179,-0.8294780254364014
1725892574946096600,16.6040966796875,-0.6194168925285339,0.2393062710762024,-0.7488438487052917
1725892574964945000,16.62294482421875,-0.5283980369567871,-0.07040216773748398,-0.5521454215049744
1725892574983793000,16.64179296875,-0.5803215503692627,0.09941824525594711,-0.5631409883499146
1725892575002641200,16.66064111328125,-0.462424635887146,0.14401137828826904,-0.43974629044532776
1725892575021489400,16.679489501953125,-0.2718348205089569,-0.13759729266166687,-0.478841632604599
1725892575040337700,16.698337646484376,-0.17837251722812653,-0.4271472096443176,-0.5252673625946045
1725892575059186000,16.71718603515625,-0.40744680166244507,-0.05451968312263489,-0.7128028273582458
1725892575078034200,16.7360341796875,-0.48075059056282043,0.2185368686914444,-0.5851321220397949
1725892575096882400,16.75488232421875,-0.23457208275794983,-0.2383899837732315,-0.733572244644165
1725892575115730400,16.77373046875,-0.16859868168830872,-0.48273590207099915,-0.7671698331832886
1725892575134578700,16.79257861328125,-0.20708316564559937,-0.5652026534080505,-0.9424880146980286
1725892575153427000,16.811427001953124,-0.3078758418560028,-0.4766272306442261,-0.8557451963424683
1725892575172275200,16.830275146484375,-0.20769402384757996,-0.458301305770874,-0.8661298751831055
1725892575191123500,16.84912353515625,-0.19242240488529205,-0.5395463109016418,-0.9290489554405212
1725892575209971700,16.8679716796875,-0.29443681240081787,-0.8773545622825623,-0.8667407631874084
1725892575228820000,16.886820068359373,-0.4276053309440613,-0.8749110698699951,-0.7909935116767883
1725892575247668200,16.905668212890625,-0.3042106628417969,-0.755181610584259,-0.7402917742729187
1725892575266516200,16.92451611328125,-0.27550002932548523,-0.9653190970420837,-0.9253838062286377
1725892575285364500,16.943364501953123,-0.6847794055938721,-0.9812015295028687,-0.982805073261261
1725892575304212700,16.962212646484375,-0.6420188546180725,-1.1394155025482178,-0.7757219076156616
1725892575323061000,16.98106103515625,-0.42943793535232544,-1.086881160736084,-0.788550078868866
1725892575341909200,16.9999091796875,-0.36224281787872314,-0.9231693744659424,-0.9577596187591553
1725892575360757500,17.018757568359376,-0.516791582107544,-0.7557924389839172,-0.9797507524490356
1725892575379605800,17.037605712890624,-0.6157516837120056,-0.7044798135757446,-0.8533017635345459
1725892575398453800,17.056453857421875,-0.7195987105369568,-0.2756527364253998,-0.704861581325531
1725892575417302000,17.075302001953126,-0.6438514590263367,-0.008093958720564842,-0.8374192714691162
1725892575436150300,17.094150390625,-0.6554579138755798,-0.08567378669977188,-0.8148172497749329
1725892575454998500,17.11299853515625,-0.6988292932510376,-0.07895427197217941,-0.641331672668457
1725892575473846800,17.1318466796875,-0.685390293598175,0.2283107042312622,-0.529543399810791
1725892575492695000,17.150695068359376,-0.5204567909240723,0.7664825916290283,-0.5661953091621399
1725892575511543300,17.169543212890623,-0.5534434914588928,0.5258018374443054,-0.5771908760070801
1725892575530391300,17.188391357421875,-0.5986474752426147,0.5502364635467529,-0.0939968153834343
1725892575549239600,17.207239501953126,-0.36712974309921265,0.6033816933631897,0.11125374585390091
1725892575568087800,17.226087890625,-0.12400554865598679,0.7066178321838379,0.20532692968845367
1725892575586936000,17.24493603515625,-0.03848448023200035,0.5312996506690979,0.47288569808006287
1725892575605784300,17.263784423828124,0.20952661335468292,0.3773617148399353,0.7477748394012451
1725892575624632600,17.282632568359375,0.30054548382759094,0.6058251261711121,0.9127083420753479
1725892575643480800,17.301480712890626,0.5626064538955688,0.7518218159675598,0.8937715291976929
1725892575662328800,17.320328857421874,0.6560688018798828,0.8000801205635071,1.015333652496338
1725892575681177000,17.339177001953125,0.7886264324188232,0.6559160351753235,1.0361030101776123
1725892575700025300,17.358025390625,0.9065233469009399,0.47204574942588806,1.190651774406433
1725892575718873600,17.37687353515625,1.0965023040771484,0.7286089658737183,0.9469167590141296
1725892575737721900,17.395721923828123,1.2247838973999023,0.8067996501922607,1.051985502243042
1725892575756569900,17.41456982421875,1.3811652660369873,0.7194460034370422,1.1521673202514648
1725892575775418000,17.433418212890626,1.416595458984375,0.8629992008209229,1.1839323043823242
1725892575794266400,17.452266357421873,1.3585633039474487,0.8776599764823914,1.1814888715744019
1725892575813114600,17.471114501953124,1.0476330518722534,0.5233584046363831,1.497305989265442
1725892575831963000,17.489962890625,0.8918625712394714,0.18310672044754028,1.6671262979507446
1725892575850811100,17.50881103515625,0.7312051653862,0.586888313293457,1.5321252346038818
1725892575869659100,17.5276591796875,0.9187406301498413,0.20021092891693115,1.2975531816482544
1725892575888507400,17.54650732421875,0.9205732345581055,-0.19135339558124542,1.38429594039917
1725892575907355600,17.565355712890625,0.8356630206108093,0.3816377818584442,1.3635265827178955
1725892575926204000,17.584203857421876,0.9798271059989929,0.3669770061969757,1.0837504863739014
1725892575945052200,17.60305224609375,0.9871574640274048,0.1818849891424179,0.9487493634223938
1725892575963900400,17.621900390625,0.7764091491699219,0.054214250296354294,1.0544289350509644
1725892575982748400,17.64074853515625,0.5815432667732239,0.07192932814359665,0.7862593531608582
1725892576001596700,17.6595966796875,0.3237583339214325,0.3223838806152344,0.49915286898612976
1725892576020445000,17.67844482421875,0.29443681240081787,0.10613775253295898,0.22609633207321167
1725892576039293200,17.697293212890624,0.19303326308727264,0.016340631991624832,0.0501672700047493
1725892576058141400,17.716141357421876,0.04153880476951599,-0.14370593428611755,0.057497646659612656
1725892576076989700,17.73498974609375,-0.15821397304534912,-0.045967575162649155,-0.07933606207370758
1725892576095837700,17.753837646484374,-0.21135921776294708,0.01511890348047018,-0.2424369603395462
1725892576114686000,17.77268603515625,-0.4013381600379944,-0.039248060435056686,-0.44157886505126953
1725892576133534200,17.7915341796875,-0.48441576957702637,-0.09239330142736435,-0.42569640278816223
1725892576152382500,17.810382568359376,-0.3860665261745453,0.15745039284229279,-0.4018726646900177
1725892576171230700,17.829230712890624,-0.33658650517463684,0.05238165333867073,-0.40981391072273254
1725892576190078700,17.84807861328125,-0.35124725103378296,-0.11255183815956116,-0.4537961781024933
1725892576208927000,17.866927001953126,-0.3396408259868622,-0.346513032913208,-0.35239261388778687
1725892576227775200,17.885775146484374,-0.22418737411499023,-0.21700970828533173,-0.42936158180236816
1725892576246623500,17.90462353515625,-0.19120067358016968,0.0383317656815052,-0.549091100692749
1725892576265471700,17.9234716796875,-0.1747073233127594,0.2185368686914444,-0.4495201110839844
1725892576284320000,17.942320068359376,-0.22479823231697083,0.06154462695121765,-0.28519749641418457
1725892576303168000,17.96116796875,-0.20708316564559937,-0.10338886082172394,-0.538706362247467
1725892576322016300,17.980016357421874,-0.15577052533626556,0.11468986421823502,-0.6804270148277283
1725892576340864500,17.998864501953125,-0.2003636509180069,0.12690715491771698,-0.7702241539955139
1725892576359712800,18.017712646484377,-0.36224281787872314,-0.1510363221168518,-0.7445678114891052
1725892576378561000,18.03656103515625,-0.42394015192985535,-0.005650499369949102,-0.8832340836524963
1725892576397409000,18.055408935546875,-0.3738492429256439,-0.20357069373130798,-0.807486891746521
1725892576416257300,18.07425732421875,-0.0824667438864708,-0.39599308371543884,-0.8319214582443237
1725892576435105500,18.09310546875,-0.3084867000579834,-0.46807512640953064,-0.9290489554405212
1725892576453953800,18.111953857421874,-0.17837251722812653,-0.45158177614212036,-1.037782907485962
1725892576472801800,18.1308017578125,0.03176496922969818,-0.4436405599117279,-0.9571487307548523
1725892576491650000,18.149650146484376,-0.16187916696071625,-0.37094762921333313,-1.269911527633667
1725892576510498300,18.168498291015624,-0.6597339510917664,-0.6672170758247375,-1.4036909341812134
1725892576529346600,18.1873466796875,-0.7990111112594604,-1.0618356466293335,-1.1269692182540894
1725892576548194800,18.20619482421875,-0.7629700899124146,-1.0734421014785767,-1.1336886882781982
1725892576567042800,18.225042724609374,-0.48991355299949646,-0.7197514176368713,-1.120249629020691
1725892576585891000,18.24389111328125,-0.3756818473339081,-0.7008146047592163,-1.3749802112579346
1725892576604739300,18.2627392578125,-0.5986474752426147,-1.5670208930969238,-1.3114503622055054
1725892576623587600,18.281587646484375,-0.6579013466835022,-1.3691006898880005,-0.6743183732032776
1725892576642435600,18.300435546875,-0.574212908744812,-0.7344121932983398,-0.5551997423171997
1725892576661283800,18.319283935546874,-0.5662716627120972,-0.7490729093551636,-0.881401538848877
1725892576680132000,18.338132080078125,-0.5406153202056885,-0.8816305994987488,-0.6847030520439148
1725892576698980400,18.35698046875,-0.5057960152626038,-0.5737547278404236,-0.6651554107666016
1725892576717828600,18.37582861328125,-0.4923570156097412,-0.21212279796600342,-0.5997928380966187
1725892576736676600,18.394676513671875,-0.4068359434604645,0.17638720571994781,-0.5099957585334778
1725892576755524900,18.41352490234375,-0.3194822669029236,0.5209149122238159,-0.44646579027175903
1725892576774373000,18.432373046875,-0.24434591829776764,0.5410735011100769,-0.4623482823371887
1725892576793221400,18.451221435546874,-0.143553227186203,0.6583595275878906,-0.42019861936569214
1725892576812069600,18.470069580078125,-0.23884813487529755,0.6101012229919434,-0.21800236403942108
1725892576830917600,18.488917724609376,-0.1233946830034256,0.504421591758728,0.19738568365573883
1725892576849766000,18.507765869140623,0.11423171311616898,0.6632464528083801,0.3849211633205414
1725892576868614100,18.5266142578125,0.17104214429855347,0.6528617143630981,0.5248091816902161
1725892576887462100,18.545462158203126,0.33169957995414734,0.5148062705993652,0.885830283164978
1725892576906310400,18.564310302734373,0.5015199780464172,0.6681333780288696,0.9970076680183411
1725892576925158700,18.58315869140625,0.36224281787872314,0.8074105381965637,1.0293835401535034
1725892576944007000,18.6020068359375,0.6499601006507874,1.1830923557281494,1.108185052871704
1725892576962855000,18.62085498046875,1.0128138065338135,1.381623387336731,0.9255365133285522
1725892576981703200,18.639703125,0.9388991594314575,1.2789981365203857,1.1375066041946411
1725892577000551400,18.658551513671874,0.9950987100601196,0.9338595271110535,1.4716496467590332
1725892577019399700,18.677399658203125,1.1753038167953491,0.6314814686775208,1.2987748384475708
1725892577038248000,18.696248046875,1.063515543937683,0.1727220118045807,1.1857649087905884
1725892577057096000,18.715095947265624,0.9822705388069153,0.3975202441215515,1.3042726516723633
1725892577075944200,18.733944091796875,1.0855066776275635,0.31322091817855835,1.3390918970108032
1725892577094792400,18.75279248046875,0.9456186890602112,0.057268574833869934,1.4655410051345825
1725892577113640700,18.771640625,0.6719512343406677,-0.05024362727999687,1.7031673192977905
1725892577132488700,18.79048876953125,0.6780598759651184,0.04627300798892975,1.4911972284317017
1725892577151337000,18.8093369140625,0.9028581380844116,-0.008704823441803455,1.300607442855835
1725892577170185200,18.828185302734376,0.9584468603134155,-0.2646571695804596,1.1741584539413452
1725892577189033500,18.847033447265623,0.6713404059410095,0.007788525894284248,1.1283435821533203
1725892577207881500,18.865881591796875,0.33231043815612793,0.443945974111557,0.9279799461364746
1725892577226729700,18.884729736328126,0.32559093832969666,0.3272708058357239,0.7056251764297485
1725892577245578000,18.903577880859373,0.41294458508491516,0.04505127668380737,0.5944477915763855
1725892577264426200,18.92242626953125,0.37140578031539917,-0.027030766010284424,0.5370265245437622
1725892577283274200,18.941274169921876,0.13988803327083588,0.06276635825634003,0.3531562089920044
1725892577302122500,18.96012255859375,-0.06902772188186646,0.008399390615522861,0.1735619604587555
1725892577320970800,18.978970703125,-0.21807873249053955,0.11224640160799026,-0.06101011857390404
1725892577339819000,18.997819091796874,-0.27550002932548523,0.03955349326133728,-0.24488042294979095
1725892577358667000,19.0166669921875,-0.3078758418560028,-0.05329795181751251,-0.252210795879364
1725892577377515300,19.035515380859376,-0.4367683231830597,-0.11316270381212234,-0.22655446827411652
1725892577396363500,19.054363525390624,-0.4776962697505951,0.24113887548446655,-0.3395644724369049
1725892577415211500,19.07321142578125,-0.3390299379825592,-0.023365577682852745,-0.30779948830604553
1725892577434059800,19.092059814453126,-0.2620609998703003,-0.023365577682852745,-0.29619306325912476
1725892577452908000,19.110907958984374,-0.2779434621334076,0.009010255336761475,-0.3719402849674225
1725892577471756300,19.12975634765625,-0.2932150959968567,0.06643154472112656,-0.469678670167923
1725892577490604300,19.148604248046876,-0.28588470816612244,-0.09666935354471207,-0.47090038657188416
1725892577509452500,19.16745263671875,-0.318871408700943,0.011453714221715927,-0.6785944104194641
1725892577528300800,19.18630078125,-0.32070401310920715,0.054214250296354294,-0.8044325709342957
1725892577547149000,19.205149169921874,-0.2614501118659973,-0.020922118797898293,-0.806876003742218
1725892577565997000,19.2239970703125,-0.28038692474365234,-0.356286883354187,-0.8233693838119507
1725892577584845300,19.24284521484375,-0.14660754799842834,-0.4271472096443176,-0.8587995171546936
1725892577603693600,19.261693603515624,-0.04520399495959282,-0.3324631452560425,-0.9296598434448242
1725892577622541600,19.28054150390625,-0.07147117704153061,-0.0948367565870285,-0.9302706718444824
1725892577641389800,19.299389892578127,-0.056199558079242706,-0.12843431532382965,-1.0133483409881592
1725892577660238000,19.318238037109374,-0.18387030065059662,-0.18280129134655,-0.9101121425628662
1725892577679086300,19.33708642578125,-0.14049890637397766,-0.41554075479507446,-0.9308815598487854
1725892577697934300,19.355934326171877,-0.26939135789871216,-0.366060733795166,-0.9663116931915283
1725892577716782600,19.374782470703124,-0.3433060050010681,-0.5389354228973389,-1.0536653995513916
1725892577735630800,19.393630859375,-0.44409868121147156,-0.6226239204406738,-1.049389362335205
1725892577754478800,19.412478759765627,-0.6389645338058472,-0.910952091217041,-1.0090723037719727
1725892577773327000,19.4313271484375,-0.7984002828598022,-1.3715441226959229,-1.1856122016906738
1725892577792175400,19.45017529296875,-0.8246674537658691,-1.4069743156433105,-1.039615511894226
1725892577811023400,19.4690234375,-0.7183769941329956,-1.3507747650146484,-0.9779181480407715
1725892577829871600,19.48787158203125,-0.6444623470306396,-1.1870629787445068,-1.0438915491104126
1725892577848720000,19.506719970703124,-0.739757239818573,-0.9531017541885376,-0.8300888538360596
1725892577867567900,19.52556787109375,-0.9560033679008484,-1.0948224067687988,-0.8032108545303345
1725892577886416100,19.544416015625,-1.082452416419983,-1.0105230808258057,-0.8496365547180176
1725892577905264400,19.563264404296874,-1.0195332765579224,-0.6641627550125122,-0.9565379023551941
1725892577924112600,19.582112548828125,-0.6927206516265869,0.07498364895582199,-0.9663116931915283
1725892577942960600,19.600960693359376,-0.4514290690422058,0.07620538026094437,-0.8294780254364014
1725892577961809000,19.619808837890623,-0.4526508152484894,0.17455461621284485,-0.5124391913414001
1725892577980657200,19.6386572265625,-0.44470956921577454,0.4396699368953705,-0.33895358443260193
1725892577999505200,19.657505126953126,-0.20769402384757996,0.8617774844169617,-0.07383827865123749
1725892578018353400,19.676353515625,0.025045456364750862,0.8202387094497681,0.11980585753917694
1725892578037201700,19.69520166015625,-0.0256563201546669,0.5160280466079712,0.464944452047348
1725892578056049700,19.714049560546876,0.28527384996414185,0.5160280466079712,0.8894954919815063
1725892578074898000,19.73289794921875,0.27000224590301514,0.49892380833625793,1.022663950920105
1725892578093746200,19.75174609375,0.337808221578598,0.5251910090446472,1.014111876487732
1725892578112594200,19.77059423828125,0.4471530318260193,0.8587231636047363,1.1039090156555176
1725892578131442400,19.7894423828125,0.47036588191986084,0.8263473510742188,1.1521673202514648
1725892578150290700,19.808290771484376,0.5528326034545898,1.4616466760635376,1.022663950920105
1725892578169139000,19.827138916015624,0.7415898442268372,1.2997674942016602,1.0483202934265137
1725892578187987000,19.845987060546875,0.9260709881782532,1.5404483079910278,1.127732753753662
1725892578206835200,19.864835205078126,0.9358448386192322,1.2887719869613647,1.219362497329712
1725892578225683500,19.883683349609374,1.2205078601837158,1.077412724494934,1.0428224802017212
1725892578244531500,19.902531494140625,1.2724313735961914,0.6687442064285278,0.9151517748832703
1725892578263379700,19.921379638671876,1.288313865661621,0.6693550944328308,1.035492181777954
1725892578282228000,19.94022802734375,1.3695588111877441,0.864220917224884,1.0165553092956543
1725892578301076000,19.959075927734375,1.3463460206985474,0.37491825222969055,1.0953569412231445
1725892578319924200,19.97792431640625,1.0574069023132324,0.29733842611312866,1.313435673713684
1725892578338772500,19.9967724609375,1.120326042175293,0.3779725730419159,1.5791617631912231
1725892578357620500,20.015620361328125,1.4361430406570435,-0.5615374445915222,1.1674389839172363
1725892578376468700,20.03446875,1.1465932130813599,0.04627300798892975,1.098411202430725
1725892578395317000,20.05331689453125,0.813671886920929,-0.2237292230129242,1.1423934698104858
1725892578414165000,20.0721650390625,0.6707295179367065,0.04321868345141411,0.7990874648094177
1725892578433013200,20.09101318359375,0.8045089244842529,0.16966769099235535,0.7239511013031006
1725892578451861500,20.109861572265626,0.9205732345581055,-0.19013166427612305,0.5767326951026917
1725892578470709500,20.12870947265625,0.813671886920929,0.06765327602624893,0.3836994469165802
1725892578489557800,20.147557861328124,0.49113526940345764,0.16355904936790466,0.29329144954681396
1725892578508406000,20.166406005859375,0.21380266547203064,0.10186170041561127,0.10575596243143082
1725892578527254000,20.18525390625,-0.0054977829568088055,0.12812888622283936,-0.16730059683322906
1725892578546102300,20.204102294921874,-0.185092031955719,-0.13759729266166687,-0.3566686809062958
1725892578564950300,20.2229501953125,-0.29138249158859253,0.030390523374080658,-0.344451367855072
1725892578583798500,20.241798583984377,-0.3652971386909485,-0.061850059777498245,-0.36827510595321655
1725892578602646800,20.260646728515624,-0.5216785073280334,0.09453132748603821,-0.49655669927597046
1725892578621495000,20.2794951171875,-0.4105011224746704,-0.07345648854970932,-0.49716755747795105
1725892578640343000,20.298343017578127,-0.3488037884235382,-0.1876882016658783,-0.6535489559173584
1725892578659191300,20.31719140625,-0.40317076444625854,0.051159925758838654,-0.7207440733909607
1725892578678039300,20.336039306640625,-0.4318813979625702,-0.1925751268863678,-0.7213549613952637
1725892578696887600,20.354887451171876,-0.41355544328689575,-0.04230238497257233,-0.6993638277053833
1725892578715735800,20.37373583984375,-0.2932150959968567,-0.19013166427612305,-0.7170788645744324
1725892578734583800,20.392583740234375,-0.049480047076940536,-0.1308777779340744,-0.7628937363624573
1725892578753432000,20.41143212890625,-0.0720820426940918,-0.6134609580039978,-0.954094409942627
1725892578772280300,20.4302802734375,-0.287106454372406,-0.49861836433410645,-1.3945279121398926
1725892578791128300,20.44912841796875,-0.48502662777900696,-0.4082103967666626,-1.362152099609375
1725892578809976600,20.4679765625,-0.38789913058280945,-0.5560396909713745,-1.2540290355682373
1725892578828824800,20.486824951171876,-0.31154105067253113,-0.6763800382614136,-1.1562906503677368
1725892578847672800,20.5056728515625,-0.21441353857517242,-0.920115053653717,-1.2619702816009521
1725892578866521000,20.52452099609375,-0.37262752652168274,-1.1833977699279785,-1.4873794317245483
1725892578885369000,20.543369140625,-0.7244856357574463,-0.9812015295028687,-1.4055235385894775
1725892578904217300,20.56221728515625,-0.6939423680305481,-1.482110619544983,-1.3963605165481567
1725892578923065600,20.581065673828125,-0.6493492722511292,-1.4234676361083984,-1.5050944089889526
1725892578941913600,20.59991357421875,-0.627968966960907,-1.3532181978225708,-1.4947097301483154
1725892578960761900,20.618761962890623,-0.7446441650390625,-1.1968368291854858,-1.4128538370132446
1725892578979609900,20.63760986328125,-0.7788525819778442,-0.7967203855514526,-1.454392671585083
1725892578998458000,20.6564580078125,-0.7336485981941223,-0.356286883354187,-1.2998439073562622
1725892579017306400,20.675306396484373,-0.6206386089324951,-0.33857181668281555,-1.2754093408584595
1725892579036154400,20.694154296875,-0.9010255336761475,-0.3110828995704651,-1.0701587200164795
1725892579055002600,20.713002685546876,-1.0311397314071655,-0.42042768001556396,-0.7354048490524292
1725892579073851000,20.731850830078123,-1.084285020828247,-0.3666715919971466,-0.3157407343387604
1725892579092699000,20.750698974609374,-0.9297361969947815,-0.06734783947467804,-0.04940368980169296
1725892579111547100,20.769547119140626,-0.8210022449493408,0.20693044364452362,-0.03474293276667595
1725892579130395400,20.7883955078125,-0.7122683525085449,0.14217877388000488,0.01718057133257389
1725892579149243400,20.807243408203124,-0.6743947267532349,0.15561780333518982,0.516257107257843
1725892579168091600,20.826091552734376,-0.5290089249610901,0.5184714794158936,0.848567545413971
1725892579186939600,20.844939697265627,-0.3610210716724396,0.743880569934845,0.5211440324783325
1725892579205788000,20.863787841796874,-0.23335035145282745,0.5612320303916931,0.61827152967453
1725892579224636200,20.88263623046875,-0.08002328872680664,0.5960513353347778,1.0794744491577148
1725892579243484200,20.901484130859377,0.09101885557174683,1.1006256341934204,1.2022582292556763
1725892579262332400,20.92033251953125,0.24556763470172882,1.4030036926269531,0.8064178824424744
1725892579281180400,20.939180419921875,0.287106454372406,1.5752675533294678,1.0489312410354614
1725892579300028700,20.958028564453127,0.5345066785812378,1.6717841625213623,1.3885719776153564
1725892579318876700,20.976876708984374,0.5845975875854492,1.0535889863967896,1.2798380851745605
1725892579337725000,20.995724853515625,0.5558869242668152,1.2967132329940796,1.4496585130691528
1725892579356573200,21.0145732421875,0.9065233469009399,1.4335469007492065,1.2981640100479126
1725892579375421200,21.033421142578124,1.2260055541992188,1.307708740234375,1.2040908336639404
1725892579394269400,21.05226953125,1.2400555610656738,1.1213949918746948,1.4942516088485718
1725892579413117700,21.07111767578125,1.2058470249176025,0.4286743700504303,1.6897283792495728
1725892579431965700,21.089965576171874,1.0763437747955322,0.2124282270669937,1.6090941429138184
1725892579450814000,21.10881396484375,1.1337649822235107,0.011453714221715927,1.487532138824463
1725892579469662000,21.127661865234376,1.1160500049591064,0.043829549103975296,1.3726894855499268
1725892579488510200,21.14651025390625,0.8875865340232849,0.30222535133361816,1.6145919561386108
1725892579507358500,21.1653583984375,0.7519745230674744,0.41523534059524536,1.513188362121582
1725892579526206500,21.18420654296875,0.627968966960907,0.22953243553638458,1.1130720376968384
1725892579545054700,21.2030546875,0.4770853817462921,0.19043709337711334,0.9982293844223022
1725892579563902700,21.22190283203125,0.3689623177051544,-0.012370011769235134,0.8021417856216431
1725892579582751000,21.2407509765625,0.21746785938739777,-0.0032070400193333626,0.46250098943710327
1725892579601599000,21.259598876953124,0.17348559200763702,0.17821979522705078,0.353767067193985
1725892579620447200,21.278447265625,0.2052505612373352,0.1611155867576599,0.10881029069423676
1725892579639295500,21.29729541015625,0.3225366175174713,0.11774418503046036,0.004963276442140341
1725892579658143500,21.3161435546875,0.07880155742168427,0.07864884287118912,-0.012751801870763302
1725892579676991700,21.33499169921875,-0.12522727251052856,0.2759581506252289,-0.21006113290786743
1725892579695839700,21.35383984375,-0.33231043815612793,0.36942046880722046,-0.7176897525787354
1725892579714688000,21.37268798828125,-0.4734202027320862,0.027947064489126205,-0.8966731429100037
1725892579733536000,21.391535888671875,-0.5387827157974243,0.11468986421823502,-0.7457895278930664
1725892579752384300,21.41038427734375,-0.47036588191986084,0.3523162603378296,-0.7128028273582458
1725892579771232500,21.429232421875,-0.24495677649974823,0.001679878099821508,-0.5698604583740234
1725892579790080500,21.44808056640625,-0.15149445831775665,-0.15897755324840546,-0.5228238701820374
1725892579808928800,21.4669287109375,-0.25961753726005554,-0.3556760251522064,-0.6657662391662598
1725892579827776800,21.48577685546875,-0.41294458508491516,-0.2438877671957016,-0.8704059720039368
1725892579846625000,21.504625,-0.5656607747077942,-0.030085090547800064,-0.8325323462486267
1725892579865473300,21.523473388671874,-0.3042106628417969,0.06704241037368774,-0.8300888538360596
1725892579884321300,21.5423212890625,0.1441640853881836,-0.20662501454353333,-0.8936188220977783
1725892579903169500,21.56116943359375,0.29626941680908203,-0.2292270064353943,-1.0958150625228882
1725892579922017500,21.580017578125,-0.14233149588108063,0.004123337101191282,-1.1489602327346802
1725892579940865800,21.59886572265625,-0.25473061203956604,-0.34406960010528564,-1.1801143884658813
1725892579959713800,21.6177138671875,-0.4612029194831848,-0.4088212549686432,-1.3871976137161255
1725892579978562000,21.63656201171875,-0.6206386089324951,-0.008704823441803455,-1.427514672279358
1725892579997410000,21.65541015625,-0.5485565662384033,-0.9066760540008545,-1.3615412712097168
1725892580016258300,21.67425830078125,-0.7672461867332458,-0.8144354820251465,-1.2210423946380615
1725892580035106600,21.6931064453125,-0.8393282294273376,-0.9219476580619812,-1.197218656539917
1725892580053954600,21.71195458984375,-0.6230821013450623,-1.0612248182296753,-1.564959168434143
1725892580072802600,21.730802490234375,-0.6560688018798828,-1.0709986686706543,-1.585728645324707
1725892580091650800,21.74965087890625,-0.6359102129936218,-1.5468623638153076,-1.3743693828582764
1725892580110499000,21.7684990234375,-0.6676751971244812,-2.1058037281036377,-1.3383283615112305
1725892580129347000,21.78734716796875,-0.6194168925285339,-1.5450297594070435,-0.8013782501220703
1725892580148195300,21.8061953125,-0.3750709891319275,-0.7973312735557556,-0.7738893032073975
1725892580167043300,21.825043212890623,-0.2816086709499359,-0.5352702736854553,-1.1373538970947266
1725892580185891600,21.8438916015625,-0.36774060130119324,-0.8168789148330688,-0.9369902014732361
1725892580204739600,21.862739501953126,-0.5277871489524841,-0.7527381181716919,-0.6480512022972107
1725892580223587800,21.881587890625,-0.46975502371788025,-0.05329795181751251,-0.37804892659187317
1725892580242435800,21.900435791015624,-0.18142683804035187,0.616209864616394,-0.469678670167923
1725892580261284000,21.9192841796875,0.05497783049941063,0.6382009983062744,-0.2625955045223236
1725892580280132000,21.938132080078127,0.0824667438864708,0.5080868005752563,-0.05306887626647949
1725892580298980400,21.95698046875,-0.19425499439239502,0.08781181275844574,0.28290674090385437
1725892580317828600,21.97582861328125,-0.04764745384454727,0.21181736886501312,0.6775254011154175
1725892580336676600,21.994676513671877,0.0769689604640007,0.6540834903717041,0.7416661977767944
1725892580355524900,22.01352490234375,0.17715078592300415,0.7951932549476624,0.7642682194709778
1725892580374372900,22.032372802734375,0.34697118401527405,0.7053961157798767,1.0055598020553589
1725892580393221000,22.05122119140625,0.5112938284873962,0.6937896609306335,1.1973713636398315
1725892580412069000,22.070069091796874,0.5192350745201111,0.7163916826248169,1.2492948770523071
1725892580430917400,22.08891748046875,0.7409789562225342,1.067638874053955,1.3598613739013672
1725892580449765400,22.107765380859377,0.8026763200759888,0.966235339641571,1.413617491722107
1725892580468613600,22.126613525390624,0.9169080257415771,0.8959859013557434,1.38429594039917
1725892580487461600,22.145461669921875,0.9309579133987427,0.8489493131637573,1.5107449293136597
1725892580506310000,22.164309814453127,1.1215476989746094,1.0163263082504272,1.5449533462524414
1725892580525158000,22.183157958984374,1.2119556665420532,0.9601266980171204,1.497305989265442
1725892580544006100,22.202006103515625,1.1814124584197998,0.33826637268066406,1.7135521173477173
1725892580562854100,22.220854248046876,0.934623122215271,0.1715002804994583,1.7697516679763794
1725892580581702400,22.239702392578124,0.7116574645042419,0.48670652508735657,1.7337106466293335
1725892580600550400,22.25855029296875,0.5601630210876465,0.11346813291311264,1.4508801698684692
1725892580619398700,22.277398681640626,0.43310311436653137,-0.1259908676147461,1.4392738342285156
1725892580638246700,22.29624658203125,0.3860665261745453,0.4066832363605499,1.4264456033706665
1725892580657095000,22.315094970703125,0.5021308660507202,0.5820014476776123,1.1943169832229614
1725892580675943200,22.333943115234376,0.6688969135284424,0.44150251150131226,0.9108757376670837
1725892580694791200,22.352791259765624,0.8295543789863586,-0.004428769461810589,0.8039743900299072
1725892580713639400,22.371639404296875,0.6921098232269287,0.18860450387001038,0.6451495885848999
1725892580732487400,22.3904873046875,0.544891357421875,-0.19990549981594086,0.3543779253959656
1725892580751335400,22.40933544921875,0.2211330533027649,-0.06246092543005943,-0.03840812295675278
1725892580770183700,22.42818359375,0.10323614627122879,0.1055268943309784,-0.11659881472587585
1725892580789031700,22.44703173828125,-0.18081597983837128,-0.19929464161396027,-0.17157664895057678
1725892580807880000,22.4658798828125,-0.6456840634346008,0.18982623517513275,-0.49228066205978394
1725892580826728000,22.48472802734375,-0.7220421433448792,0.23136503994464874,-0.6016254425048828
1725892580845576200,22.503576171875,-0.6346884965896606,-0.1204930767416954,-0.5686387419700623
1725892580864424200,22.522424072265625,-0.6737838387489319,-0.24083344638347626,-0.4941132366657257
1725892580883272400,22.5412724609375,-0.6267472505569458,-0.1821904182434082,-0.4629591405391693
1725892580902120700,22.56012060546875,-0.2938259541988373,-0.38499751687049866,-0.38476845622062683
1725892580920968700,22.57896875,0.06597339361906052,-0.8877392411231995,-0.3756054937839508
1725892580939817000,22.59781689453125,-0.2412915825843811,-0.7246383428573608,-0.5478693246841431
1725892580958665000,22.6166650390625,-0.6652317643165588,-0.16752967238426208,-0.7390699982643127
1725892580977513200,22.63551318359375,-0.4172206521034241,-0.12843431532382965,-0.9815833568572998
1725892580996361200,22.654361328125,-0.13255766034126282,-0.011148282326757908,-0.9840267896652222
1725892581015209500,22.67320947265625,-0.09040798991918564,-0.23472478985786438,-0.9516509771347046
1725892581034057500,22.692057373046875,-0.3292561173439026,-0.5432115197181702,-1.3823106288909912
1725892581052905700,22.71090576171875,-0.7513636946678162,-0.12660172581672668,-1.5502984523773193
1725892581071753700,22.729753662109374,-0.822834849357605,-0.3159697949886322,-1.4299581050872803
1725892581090601700,22.748601806640625,-0.7244856357574463,-0.41492989659309387,-1.511813998222351
1725892581109450000,22.767449951171876,-0.7721330523490906,-0.5780308246612549,-1.4220168590545654
1725892581128298000,22.786298095703124,-0.6505709886550903,-0.7881683111190796,-1.3389391899108887
1725892581147146200,22.805146240234375,-0.6969966888427734,-0.8431460857391357,-1.4855468273162842
1725892581165994200,22.823994140625,-0.8436042666435242,-0.8773545622825623,-1.3749802112579346
1725892581184842500,22.842842529296874,-0.7867938280105591,-1.019685983657837,-1.3566542863845825
1725892581203690500,22.8616904296875,-0.7874047160148621,-1.5187625885009766,-1.4220168590545654
1725892581222538800,22.880538818359376,-0.860708475112915,-1.5511384010314941,-1.018235206604004
1725892581241386800,22.89938671875,-0.8338304162025452,-1.225547432899475,-0.724409282207489
1725892581260235000,22.918235107421875,-0.7000510096549988,-0.8657481074333191,-0.7390699982643127
1725892581279083000,22.9370830078125,-0.6322450637817383,-0.8419243693351746,-0.7280744314193726
1725892581297931300,22.95593115234375,-0.5497782826423645,-0.5853611826896667,-0.47028952836990356
1725892581316779300,22.974779296875,-0.5070177912712097,-0.2292270064353943,-0.2980256676673889
1725892581335627500,22.99362744140625,-0.4868592321872711,-0.06612611562013626,-0.1453094631433487
1725892581354475500,23.0124755859375,-0.25411975383758545,0.42012226581573486,0.0758235901594162
1725892581373323500,23.031323486328127,0.006719512399286032,0.6785180568695068,0.08559742569923401
1725892581392171800,23.050171875,-0.0409279391169548,0.45188722014427185,0.010461059398949146
1725892581411019800,23.069019775390625,-0.017715077847242355,0.3822486400604248,0.14118611812591553
1725892581429868000,23.087867919921877,0.10140355676412582,0.7487674951553345,0.40569058060646057
1725892581448716000,23.106716064453124,0.235793799161911,0.9045380353927612,0.5944477915763855
1725892581467564300,23.125564208984375,0.3280344009399414,0.8403972387313843,0.6970730423927307
1725892581486412300,23.144412353515627,0.39828383922576904,0.6601921319961548,0.867504358291626
1725892581505260500,23.163260498046874,0.4886918365955353,0.9088140726089478,0.9927316308021545
1725892581524108500,23.182108642578125,0.6603448390960693,1.0841323137283325,1.1588867902755737
1725892581542956800,23.200956787109376,0.9639446139335632,0.9925025701522827,1.1845431327819824
1725892581561804800,23.2198046875,1.0164790153503418,0.9246965646743774,1.3048834800720215
1725892581580653000,23.238653076171875,1.0622938871383667,1.0358740091323853,1.4276673793792725
1725892581599501000,23.2575009765625,1.091004490852356,0.9418007731437683,1.5418990850448608
1725892581618349000,23.27634912109375,1.1771364212036133,0.8752164840698242,1.6207005977630615
1725892581637197300,23.295197265625,1.3671153783798218,0.34498587250709534,1.6616286039352417
1725892581656045300,23.31404541015625,1.3738348484039307,0.18005239963531494,1.6231440305709839
1725892581674893600,23.3328935546875,1.0317505598068237,0.38102689385414124,1.7031673192977905
1725892581693741600,23.351741455078123,0.6017017960548401,0.31871870160102844,1.7917428016662598
1725892581712589800,23.37058984375,0.472198486328125,0.16416990756988525,1.7117195129394531
1725892581731437800,23.389437744140626,0.5192350745201111,-0.12415826320648193,1.4826451539993286
1725892581750286000,23.4082861328125,0.5607738494873047,0.20937390625476837,1.2175298929214478
1725892581769134000,23.427134033203124,0.5229002237319946,0.24602578580379486,1.1692715883255005
1725892581787982000,23.445982177734376,0.4062250852584839,0.25213444232940674,0.9469167590141296
1725892581806830300,23.464830322265627,0.2565632164478302,0.39141160249710083,0.7190641760826111
