time,seconds_elapsed,z,y,x
1725892369946937300,0.067937255859375,4.2403178215026855,-7.639933109283447,1.5626684427261353
1725892369965785600,0.08678564453125,5.192961692810059,-9.299346923828125,4.595917701721191
1725892369984633900,0.1056337890625,5.252215385437012,-8.157946586608887,8.810884475708008
1725892370003482400,0.124482421875,3.721693754196167,-7.376955986022949,11.168822288513184
1725892370022330600,0.14333056640625,2.523482322692871,-6.9533209800720215,11.54908561706543
1725892370041179000,0.162178955078125,2.304792881011963,-5.39011812210083,10.8102445602417
1725892370060027100,0.181027099609375,3.5078909397125244,-2.168722629547119,9.060117721557617
1725892370078875400,0.19987548828125,5.024363040924072,-0.228921577334404,6.139267444610596
1725892370097724000,0.218723876953125,5.528020858764648,-0.8636100888252258,2.8812201023101807
1725892370116572200,0.237572265625,5.466018199920654,-1.7179044485092163,0.40691229701042175
1725892370135420400,0.25642041015625,4.697855472564697,-0.9686788320541382,-1.1382701396942139
1725892370154269000,0.27526904296875,3.2250607013702393,0.8859066367149353,-2.1327579021453857
1725892370173117200,0.2941171875,1.832594394683838,2.3458733558654785,-2.197815179824829
1725892370191965400,0.31296533203125,1.2452478408813477,2.3932154178619385,-1.1923316717147827
1725892370210813700,0.331813720703125,1.4947861433029175,1.399949312210083,0.061162836849689484
1725892370229662000,0.350661865234375,2.168570041656494,0.397825688123703,1.2566251754760742
1725892370248510500,0.369510498046875,3.0277512073516846,-0.03711003437638283,2.2914302349090576
1725892370267358700,0.388358642578125,3.849669933319092,-0.05482511222362518,2.8308236598968506
1725892370286207000,0.40720703125,4.367377758026123,-0.1314886510372162,2.530583620071411
1725892370305055500,0.426055419921875,4.047590255737305,0.25152358412742615,1.719966173171997
1725892370323903700,0.44490380859375,2.3115122318267822,0.11285726726055145,0.8372665643692017
1725892370342752000,0.463751953125,0.8881973624229431,-0.6400335431098938,1.3177117109298706
1725892370361600300,0.482600341796875,0.09437860548496246,-2.3678646087646484,1.6811761856079102
1725892370380448500,0.501448486328125,0.6261364221572876,-2.3541202545166016,1.6252820491790771
1725892370399297000,0.520297119140625,0.5564978122711182,-0.505032479763031,-0.6743183732032776
1725892370418145300,0.539145263671875,0.46028661727905273,0.3779725730419159,0.5150353908538818
1725892370436993500,0.55799365234375,-0.2202167510986328,0.7683151960372925,0.19646938145160675
1725892370455842000,0.576842041015625,-0.05558869615197182,0.7481566667556763,-0.0322994738817215
1725892370474690300,0.595690185546875,-0.041844237595796585,0.8498656153678894,-0.7033344507217407
1725892370493538600,0.61453857421875,0.23243404924869537,0.7841976881027222,-0.5185478329658508
1725892370512386800,0.63338671875,0.26480987668037415,0.08628465235233307,-0.4650971591472626
1725892370531235000,0.652235107421875,0.38728827238082886,-0.1769980639219284,-0.4522690176963806
1725892370550083600,0.67108349609375,-0.029932374134659767,-0.5722275972366333,-0.44982555508613586
1725892370568931800,0.689931884765625,-0.3124573230743408,0.14340050518512726,-0.4886154532432556
1725892370587780000,0.708780029296875,-0.42455101013183594,0.5609265565872192,-0.5362629294395447
1725892370606628600,0.727628662109375,-0.3970620930194855,0.41584619879722595,-0.6324741244316101
1725892370625476900,0.746476806640625,-0.2721402645111084,0.29153522849082947,-0.7357102632522583
1725892370644325000,0.7653251953125,-0.768467903137207,-1.9039127826690674,-0.8022945523262024
1725892370663173600,0.784173583984375,-0.2889390289783478,-2.8006622791290283,-0.9421825408935547
1725892370682022000,0.80302197265625,0.36743515729904175,-1.0655008554458618,-1.3471859693527222
1725892370700870100,0.8218701171875,-0.7904590368270874,1.760054111480713,-1.943389892578125
1725892370719718400,0.840718505859375,-0.8845322132110596,1.4237730503082275,-2.2402701377868652
1725892370738566700,0.859566650390625,-0.1233946830034256,-0.045967575162649155,-2.404287338256836
1725892370757415200,0.878415283203125,0.2568686306476593,-0.8706350326538086,-2.485532522201538
1725892370776263400,0.897263427734375,0.16554436087608337,0.012675444595515728,-2.6635994911193848
1725892370795111700,0.916111572265625,0.1698204129934311,-0.07589995115995407,-2.4702608585357666
1725892370813960200,0.934960205078125,0.5561923980712891,-0.7554870247840881,-2.205756425857544
1725892370832808400,0.953808349609375,0.16615521907806396,0.18921536207199097,-2.1455862522125244
1725892370851656700,0.97265673828125,0.018631376326084137,0.790917158126831,-2.0597596168518066
1725892370870505000,0.9915048828125,0.16340632736682892,-0.06520981341600418,-1.5997785329818726
1725892370889353500,1.010353515625,-0.16676609218120575,1.2344050407409668,-1.4290417432785034
1725892370908201700,1.02920166015625,-0.17562362551689148,1.1516327857971191,-0.9901354312896729
1725892370927050000,1.048050048828125,0.3381136655807495,-1.2399027347564697,-0.4736492931842804
1725892370945898500,1.0668984375,-0.3790415823459625,1.0905463695526123,-0.5124391913414001
1725892370964746800,1.085746826171875,-0.1331685185432434,0.0746782198548317,-0.05429060757160187
1725892370983595000,1.104594970703125,0.23212862014770508,-0.7188351154327393,0.23312127590179443
1725892371002443500,1.123443603515625,-0.2868010103702545,0.4390590488910675,0.2865719497203827
1725892371021291800,1.142291748046875,-0.3133736252784729,1.2130247354507446,0.3494910001754761
1725892371040140000,1.16114013671875,-0.7293725609779358,1.9869904518127441,0.4093557596206665
1725892371058988300,1.17998828125,-0.5256491303443909,1.9310963153839111,0.5257254838943481
1725892371077836800,1.1988369140625,-0.31093016266822815,2.18735408782959,0.5153408050537109
1725892371096685000,1.21768505859375,0.0616973415017128,0.578336238861084,0.737695574760437
1725892371115533300,1.236533203125,0.7483093738555908,1.1760674715042114,0.6207149624824524
1725892371134381800,1.2553818359375,0.3185659945011139,-0.5209149122238159,0.8778890371322632
1725892371153230000,1.27422998046875,-0.41263917088508606,1.0346522331237793,0.5455785989761353
1725892371172078300,1.293078369140625,-0.09865466505289078,1.263115644454956,0.4756345748901367
1725892371190926800,1.3119267578125,-0.04214967042207718,0.5328267812728882,0.3369682729244232
1725892371209775000,1.330775146484375,-0.12156209349632263,0.7148644924163818,0.19219332933425903
1725892371228623400,1.349623291015625,0.6117810606956482,-1.5618284940719604,0.42218393087387085
1725892371247471600,1.3684716796875,-0.10048725455999374,-0.3507890999317169,0.24625486135482788
1725892371266320000,1.38731982421875,-0.19608759880065918,0.14309507608413696,0.13110685348510742
1725892371285168400,1.40616845703125,-0.3274235129356384,0.64278244972229,-0.14622575044631958
1725892371304016600,1.4250166015625,-0.03176496922969818,-0.2848156988620758,-0.1190422773361206
1725892371322865200,1.443865234375,0.45417797565460205,-1.623220443725586,-0.06742420047521591
1725892371341713400,1.46271337890625,-0.3790415823459625,-0.18280129134655,-0.0784197673201561
1725892371360561700,1.481561767578125,0.12431098520755768,-0.08567378669977188,0.13507747650146484
1725892371379410000,1.500409912109375,0.2764163017272949,-0.4848739206790924,0.25266894698143005
1725892371398258400,1.519258544921875,0.7070759534835815,-1.3978112936019897,0.3314704895019531
1725892371417106700,1.538106689453125,0.4975493550300598,-0.966846227645874,0.3931678533554077
1725892371435955200,1.556955078125,-0.10934479534626007,0.5447386503219604,0.4258491098880768
1725892371454803500,1.575803466796875,0.16004657745361328,0.9973894953727722,0.5006800293922424
1725892371473651700,1.594651611328125,0.13958260416984558,1.093906044960022,0.2545015513896942
1725892371492500000,1.6135,-0.09437860548496246,-0.41065385937690735,-0.9760855436325073
1725892371511348500,1.632348388671875,0.08796452730894089,-2.6818490028381348,1.284114122390747
1725892371530196700,1.65119677734375,0.5907062292098999,-1.3016000986099243,2.0657155513763428
1725892371549045000,1.670044921875,1.5320488214492798,-1.5651882886886597,1.4539345502853394
1725892371567893500,1.6888935546875,0.6319395899772644,-0.458301305770874,1.8604650497436523
1725892371586741800,1.70774169921875,-0.30482152104377747,-0.3862192630767822,0.8284090161323547
1725892371605590000,1.726590087890625,0.2519817352294922,0.16844595968723297,1.272813081741333
1725892371624438500,1.7454384765625,0.36774060130119324,1.5224277973175049,0.4951822757720947
1725892371643286800,1.764286865234375,0.7455604672431946,1.3865103721618652,-0.474260151386261
1725892371662135000,1.783135009765625,0.6530144214630127,0.45066550374031067,1.3180171251296997
1725892371680983300,1.8019833984375,-0.0772743970155716,-0.19990549981594086,0.8876628875732422
1725892371699831800,1.820831787109375,0.657290518283844,0.4021017551422119,1.1051307916641235
1725892371718680000,1.83968017578125,0.8839213252067566,-1.0532835721969604,1.2715914249420166
1725892371737528300,1.8585283203125,-0.04978547990322113,-1.7175990343093872,1.5721368789672852
1725892371756376800,1.877376953125,-0.4627300798892975,-1.1128429174423218,1.1020764112472534
1725892371775225000,1.89622509765625,0.19303326308727264,-1.2902991771697998,1.6219223737716675
1725892371794073600,1.915073486328125,0.7104357481002808,0.46685341000556946,1.0217477083206177
1725892371812921900,1.933921875,-0.34177884459495544,-0.6015490889549255,0.4521162807941437
1725892371831770000,1.95277001953125,-0.9563088417053223,1.7307326793670654,0.1323285847902298
1725892371850618600,1.97161865234375,-0.23976442217826843,2.2426373958587646,-2.1242058277130127
1725892371869467000,1.990466796875,0.4367683231830597,2.109163284301758,-1.0157917737960815
1725892371888315100,2.009315185546875,0.3090975880622864,-2.2258384227752686,1.581605315208435
1725892371907163600,2.02816357421875,-0.15699224174022675,-1.2841905355453491,2.0177626609802246
1725892371926012000,2.047011962890625,0.17134757339954376,0.6210967898368835,0.06849320977926254
1725892371944860200,2.065860107421875,0.4373791813850403,2.2249221801757812,-0.2635118067264557
1725892371963708700,2.084708740234375,0.1383608728647232,-0.8119919896125793,0.0016035200096666813
1725892371982557000,2.103556884765625,0.9782999157905579,-1.3138173818588257,1.4087305068969727
1725892372001405200,2.1224052734375,1.6294817924499512,0.790000855922699,-0.432721346616745
1725892372020253700,2.141253662109375,1.268460750579834,-0.20906847715377808,-0.5500074028968811
1725892372039102000,2.16010205078125,0.40714138746261597,-0.009315688163042068,0.20288346707820892
1725892372057950500,2.178950439453125,0.13194678723812103,0.893542468547821,-0.036880962550640106
1725892372076798700,2.197798828125,0.3607156574726105,0.39507678151130676,0.3989710509777069
1725892372095647000,2.21664697265625,-0.10598503798246384,-0.09239330142736435,-0.797102153301239
1725892372114495500,2.23549560546875,0.16157373785972595,-0.5542070865631104,0.6934078931808472
1725892372133343700,2.25434375,-0.5152644515037537,0.2738201320171356,-0.7436515092849731
1725892372152192300,2.273192138671875,-0.4272999167442322,0.11285726726055145,-0.8487202525138855
1725892372171040500,2.29204052734375,0.22693626582622528,1.97568941116333,-0.6718748807907104
1725892372189888800,2.310888671875,-0.37293294072151184,1.5749621391296387,-1.9974514245986938
1725892372208737300,2.3297373046875,-0.8167262077331543,0.25732678174972534,-0.6969203352928162
1725892372227585500,2.34858544921875,0.09376774728298187,0.4289797842502594,-0.40462157130241394
1725892372246434000,2.36743408203125,0.7800742983818054,0.458301305770874,-0.9208022952079773
1725892372265282300,2.3862822265625,-0.33628106117248535,1.1143701076507568,-1.3548216819763184
1725892372284130800,2.405130859375,-0.9208786487579346,0.578336238861084,-1.1260528564453125
1725892372302979000,2.42397900390625,-0.5314523577690125,2.624122381210327,-1.9623267650604248
1725892372321827300,2.442827392578125,-0.6768381595611572,0.3565923273563385,-1.9186499118804932
1725892372340675600,2.461675537109375,0.7635809779167175,0.5905535221099854,0.6197986602783203
1725892372359524000,2.480524169921875,0.9920443892478943,0.27107125520706177,0.18608468770980835
1725892372378372400,2.499372314453125,-0.4272999167442322,0.8455895781517029,-1.7375285625457764
1725892372397220900,2.518220947265625,-0.49663305282592773,0.8254310488700867,-0.39484772086143494
1725892372416069000,2.537069091796875,0.17867794632911682,1.7774637937545776,-0.9934952259063721
1725892372434917600,2.555917724609375,0.925460159778595,1.2102758884429932,-1.4620285034179688
1725892372453766000,2.574765869140625,0.37843072414398193,-1.2502875328063965,0.6625592112541199
1725892372472614400,2.593614501953125,0.2306014597415924,0.32452189922332764,0.173256516456604
1725892372491462700,2.612462646484375,0.314289927482605,2.2420265674591064,-1.6364303827285767
1725892372510311000,2.631310791015625,-0.13927717506885529,0.8275690674781799,-1.7161482572555542
1725892372529159400,2.650159423828125,-0.5415316224098206,-0.8168789148330688,0.21082471311092377
1725892372548007700,2.669007568359375,0.2767217457294464,1.6119194030761719,-0.43027788400650024
1725892372566856200,2.687856201171875,-0.32620179653167725,0.09972367435693741,-1.5979459285736084
1725892372585704400,2.706704345703125,-0.43493571877479553,-0.7304415702819824,0.8070287108421326
1725892372604553000,2.725552978515625,-0.7748819589614868,-0.46196648478507996,1.040684461593628
1725892372623401200,2.744401123046875,-1.9355250597000122,-1.3767365217208862,-1.0304524898529053
1725892372642249700,2.763249755859375,-0.72173672914505,-1.5285364389419556,0.9527199864387512
1725892372661098000,2.782097900390625,0.13744457066059113,-0.513584554195404,2.850982189178467
1725892372679946500,2.800946533203125,-0.5571087002754211,-1.235015869140625,0.1989128440618515
1725892372698794800,2.819794677734375,-0.565049946308136,0.32788166403770447,-1.0121265649795532
1725892372717643300,2.838643310546875,-0.5977311730384827,1.9130758047103882,-0.3462839722633362
1725892372736491500,2.857491455078125,-1.267238974571228,0.23777911067008972,-0.7525090575218201
1725892372755340000,2.876340087890625,-2.095571517944336,-0.1669187992811203,-1.3203078508377075
1725892372774188300,2.895188232421875,-0.9639446139335632,-0.1000291109085083,0.3171151876449585
1725892372793036800,2.914036865234375,0.02779434807598591,0.2530507445335388,1.1799616813659668
1725892372811885000,2.932885009765625,-0.20372340083122253,-0.744796872138977,0.6219366788864136
1725892372830733300,2.9517333984375,-1.0485494136810303,-1.1461350917816162,-0.1043815165758133
1725892372849581800,2.970581787109375,-0.9086613655090332,2.1164937019348145,-0.612621009349823
1725892372868430000,2.98943017578125,-0.5653553605079651,2.33884859085083,-0.9153045415878296
1725892372887278600,3.008278564453125,0.21502439677715302,1.5743513107299805,0.297872930765152
1725892372906126800,3.027126953125,0.19853104650974274,1.1076505184173584,0.40171995759010315
1725892372924975400,3.045975341796875,0.4016436040401459,4.485427379608154,-0.34353506565093994
1725892372943823600,3.06482373046875,0.16859868168830872,3.5999789237976074,-0.7882446646690369
1725892372962672000,3.083672119140625,0.6432406306266785,0.6650790572166443,1.145447850227356
1725892372981520400,3.102520263671875,0.27427828311920166,-0.8174898028373718,2.2303435802459717
1725892373000369000,3.121368896484375,-0.5317577719688416,0.2796233594417572,1.985081434249878
1725892373019217400,3.140217529296875,-1.5347977876663208,0.8541416525840759,1.1234567165374756
1725892373038065700,3.159065673828125,-1.8521419763565063,1.4515674114227295,0.49426597356796265
1725892373056914200,3.1779140625,-2.036623239517212,-0.2484692484140396,0.4093557596206665
1725892373075762400,3.196762451171875,-1.5048654079437256,-0.47784897685050964,2.0055453777313232
1725892373094611000,3.21561083984375,-1.4782928228378296,1.2664754390716553,3.452073335647583
1725892373113459500,3.23445947265625,-2.579681873321533,3.2203264236450195,3.2752277851104736
1725892373132307700,3.2533076171875,-3.997804641723633,6.411484241485596,2.535165309906006
1725892373151156200,3.27215625,-5.283369541168213,8.601128578186035,1.4068979024887085
1725892373170004500,3.29100439453125,-6.563742160797119,8.978948593139648,0.22701261937618256
1725892373188853000,3.30985302734375,-7.7466816902160645,7.891609191894531,-0.5264890789985657
1725892373207701200,3.328701171875,-8.553328514099121,5.362629413604736,-1.0219004154205322
1725892373226549800,3.3475498046875,-8.028290748596191,1.4494293928146362,-1.6489530801773071
1725892373245398000,3.36639794921875,-6.4782209396362305,1.5905392169952393,-1.8465678691864014
1725892373264246500,3.38524658203125,-4.987405300140381,2.0239477157592773,-1.4039963483810425
1725892373283094800,3.4040947265625,-3.489259719848633,0.8856012225151062,-0.9430988430976868
1725892373301943300,3.422943359375,-2.075718402862549,0.022449281066656113,-0.47700902819633484
1725892373320791800,3.441791748046875,-0.9468404054641724,-0.141262486577034,-0.11659881472587585
1725892373339640000,3.46064013671875,-0.11942406743764877,0.5065596103668213,-0.8810960650444031
1725892373358488600,3.479488525390625,1.5690062046051025,1.2032508850097656,-2.3700790405273438
1725892373377336800,3.4983369140625,2.749502420425415,1.995237112045288,-3.4039676189422607
1725892373396185300,3.517185302734375,3.2174248695373535,2.920391798019409,-3.8725008964538574
1725892373415033600,3.53603369140625,3.3261587619781494,2.5361578464508057,-3.469330072402954
1725892373433882000,3.554882080078125,2.93428897857666,2.252411127090454,-2.194760799407959
1725892373452730600,3.573730712890625,1.6481131315231323,1.8241949081420898,-0.1599702090024948
1725892373471579000,3.592578857421875,0.8005383014678955,-0.07712167501449585,1.5446479320526123
1725892373490427400,3.611427490234375,0.4920515716075897,-1.9903501272201538,1.6649882793426514
1725892373509276000,3.63027587890625,-0.05558869615197182,-3.9154906272888184,0.47807803750038147
1725892373528124200,3.649124267578125,-0.7345649003982544,-3.123198986053467,-0.30596688389778137
1725892373546972700,3.66797265625,-1.1438442468643188,-1.9805762767791748,-1.0234276056289673
1725892373565821000,3.686821044921875,-1.4636319875717163,-1.327561855316162,-1.6376521587371826
1725892373584669400,3.70566943359375,-1.5949679613113403,-1.8752021789550781,-2.069228172302246
1725892373603518000,3.72451806640625,-1.552207350730896,-3.0520331859588623,-1.990731954574585
1725892373622366200,3.7433662109375,-1.5406010150909424,-3.1448845863342285,-1.6370412111282349
1725892373641214700,3.762214599609375,-1.6728532314300537,-2.702007532119751,-0.8310051560401917
1725892373660063000,3.78106298828125,-1.626121997833252,-3.089906692504883,-0.03321577236056328
1725892373678911500,3.799911376953125,-0.5201513767242432,-2.966817617416382,0.28779366612434387
1725892373697760000,3.818760009765625,0.823445737361908,-3.72245717048645,0.5339722037315369
1725892373716608300,3.837608154296875,1.581834316253662,-3.8663158416748047,0.884913980960846
1725892373735456800,3.856456787109375,1.9208643436431885,-4.127155303955078,1.2978585958480835
1725892373754305300,3.87530517578125,1.6878193616867065,-3.715737819671631,1.7957134246826172
1725892373773153500,3.894153564453125,1.0928370952606201,-3.140913963317871,2.323806047439575
1725892373792002000,3.913001953125,0.4214966893196106,-3.1873397827148438,2.312199592590332
1725892373810850600,3.9318505859375,-0.053145237267017365,-3.6305220127105713,1.876347541809082
1725892373829698800,3.95069873046875,-0.011300998739898205,-3.9359545707702637,1.5831323862075806
1725892373848547300,3.96954736328125,0.4321868419647217,-4.354702472686768,1.4759256839752197
1725892373867395600,3.9883955078125,0.9153808951377869,-4.643335819244385,1.2624284029006958
1725892373886244000,4.007244140625,1.0772600173950195,-4.049269676208496,0.9762382507324219
1725892373905092600,4.026092529296875,0.9269872903823853,-3.0749406814575195,0.6769145131111145
1725892373923941000,4.044941162109375,0.8161153197288513,-2.286008834838867,0.6130791902542114
1725892373942789400,4.063789306640625,0.7715222239494324,-1.7102686166763306,0.579787015914917
1725892373961638000,4.082637939453125,0.7458658814430237,-1.409417748451233,0.581008791923523
1725892373980486100,4.101486083984375,0.5656607747077942,-2.4439172744750977,0.6665298342704773
1725892373999334700,4.120334716796875,0.5433642268180847,-2.3226606845855713,0.35040730237960815
1725892374018183200,4.13918310546875,0.6371319890022278,-2.433532476425171,0.33055421710014343
1725892374037031400,4.158031494140625,0.8903354406356812,-2.993084669113159,0.7263945937156677
1725892374055880000,4.1768798828125,1.229365348815918,-3.5746278762817383,1.3641374111175537
1725892374074728400,4.195728515625,1.3643665313720703,-3.9548912048339844,2.012570381164551
1725892374093577000,4.214576904296875,1.247385859489441,-3.6821401119232178,2.3913066387176514
1725892374112425200,4.23342529296875,0.9938769936561584,-3.2600326538085938,2.591670274734497
1725892374131273700,4.252273681640625,0.7153226733207703,-2.741713762283325,2.5339434146881104
1725892374150122200,4.271122314453125,1.5179989337921143,-1.6849178075790405,2.1179444789886475
1725892374168970500,4.289970458984375,3.445277452468872,-1.0270164012908936,1.7654755115509033
1725892374187819000,4.308819091796875,4.620581150054932,0.5474875569343567,1.3619993925094604
1725892374206667500,4.32766748046875,4.786736488342285,1.2029454708099365,0.9017127752304077
1725892374225516000,4.34651611328125,4.231154918670654,0.5514581799507141,0.8980475664138794
1725892374244364300,4.3653642578125,3.4162611961364746,-0.5991056561470032,1.3555853366851807
1725892374263212800,4.384212890625,2.3762640953063965,-1.7951788902282715,1.7104977369308472
1725892374282061300,4.403061279296875,1.4413354396820068,-2.285703182220459,1.6979750394821167
1725892374300909600,4.42190966796875,1.1050543785095215,-1.8394665718078613,1.5364012718200684
1725892374319758000,4.440758056640625,0.9184352159500122,-1.328478217124939,1.1753802299499512
1725892374338606600,4.459606689453125,0.4248564541339874,-2.36419939994812,-0.6281980872154236
1725892374357454800,4.478454833984375,0.3130682110786438,-1.4127775430679321,-1.7582979202270508
1725892374376303400,4.497303466796875,0.841160774230957,0.19440771639347076,-1.2121847867965698
1725892374395152000,4.51615185546875,0.8594867587089539,0.6467530727386475,-0.6168970465660095
1725892374414000400,4.53500048828125,0.6490437984466553,0.5816959738731384,-0.16638429462909698
1725892374432848600,4.5538486328125,0.7959567904472351,0.4082103967666626,0.7850375771522522
1725892374451697200,4.572697265625,0.2617555558681488,-0.7102830410003662,1.1934007406234741
1725892374470545700,4.591545654296875,-0.2211330533027649,-1.6168063879013062,1.236466646194458
1725892374489394000,4.610393798828125,-0.38209593296051025,-1.4509565830230713,1.6017638444900513
1725892374508242400,4.629242431640625,-0.15821397304534912,-1.3410009145736694,1.7972404956817627
1725892374527091000,4.648091064453125,0.12400554865598679,-1.1094831228256226,1.393153429031372
1725892374545939500,4.666939453125,0.1948658674955368,-0.6601921319961548,1.0165553092956543
1725892374564787700,4.68578759765625,0.41325002908706665,0.32940882444381714,0.6433169841766357
1725892374583636200,4.70463623046875,0.5900954008102417,0.6290380358695984,0.4444804787635803
1725892374602484700,4.723484619140625,0.7180715203285217,1.0285435914993286,0.6298779249191284
1725892374621333000,4.7423330078125,0.6551524996757507,1.4274382591247559,0.5257254838943481
1725892374640181500,4.761181396484375,0.6056724190711975,1.3721550703048706,0.07643445581197739
1725892374659030000,4.780030029296875,0.3399462401866913,1.4711151123046875,-0.007254019379615784
1725892374677878500,4.79887841796875,0.1847866028547287,1.1934770345687866,0.2092975378036499
1725892374696726800,4.817726806640625,0.006719512399286032,1.0609194040298462,0.24869832396507263
1725892374715575300,4.8365751953125,-0.1954767256975174,1.0972658395767212,0.095982126891613
1725892374734423800,4.855423828125,-0.3790415823459625,0.32879796624183655,-0.12881611287593842
1725892374753272300,4.874272216796875,-0.4932733178138733,-2.5728096961975098,-0.14714205265045166
1725892374772120600,4.89312060546875,-0.7504473924636841,-3.652513265609741,-0.344451367855072
1725892374790969000,4.911968994140625,-0.7571669220924377,-2.67696213722229,-0.29680392146110535
1725892374809817600,4.930817626953125,-0.39889469742774963,-0.39507678151130676,0.8061124086380005
1725892374828666000,4.949666015625,0.1536324918270111,0.5120574235916138,1.525405764579773
1725892374847514400,4.968514404296875,0.09621120244264603,-0.8941532969474792,0.081015944480896
1725892374866363000,4.98736279296875,-0.06383536756038666,-0.013897174037992954,-0.19814926385879517
1725892374885211400,5.00621142578125,0.4868592321872711,0.9531017541885376,0.506483256816864
1725892374904060000,5.025059814453125,0.7877101302146912,0.5716167092323303,0.5837576389312744
1725892374922908400,5.043908447265625,0.9007201194763184,-0.3043633699417114,0.755105197429657
1725892374941756700,5.062756591796875,0.9679152369499207,-1.650098443031311,0.5012909173965454
1725892374960605200,5.081605224609375,0.13164135813713074,-1.1833977699279785,0.9588286280632019
1725892374979453700,5.10045361328125,-0.49999281764030457,-1.2191333770751953,0.5211440324783325
1725892374998302200,5.11930224609375,-0.3087921440601349,-0.902400016784668,0.4444804787635803
1725892375017150700,5.138150634765625,0.2464839369058609,-0.670576810836792,0.21143557131290436
1725892375035999000,5.1569990234375,1.6890411376953125,-0.19074252247810364,0.13813179731369019
1725892375054847500,5.175847412109375,2.1783437728881836,0.6204859018325806,0.3473529815673828
1725892375073696000,5.194696044921875,1.0360267162322998,0.7939714789390564,0.09903645515441895
1725892375092544300,5.213544189453125,0.21441353857517242,0.23594652116298676,-0.04085158184170723
1725892375111392800,5.232392822265625,0.21868959069252014,-0.005345067009329796,0.3110065162181854
1725892375130241300,5.2512412109375,0.17806708812713623,-0.43020153045654297,0.3696495592594147
1725892375149089800,5.27008984375,-0.013133592903614044,-0.5123628377914429,-0.04482220485806465
1725892375167938300,5.288938232421875,0.04581485688686371,-0.08261945843696594,0.03000873140990734
1725892375186786600,5.30778662109375,0.26511532068252563,0.07406735420227051,0.3470475673675537
1725892375205635000,5.326635009765625,0.20372340083122253,0.29367324709892273,0.492127925157547
1725892375224483600,5.345483642578125,0.1285870373249054,0.7243329286575317,0.39225155115127563
1725892375243332000,5.36433203125,0.14080433547496796,1.0276272296905518,0.3540725111961365
1725892375262180600,5.3831806640625,0.027488915249705315,1.0038034915924072,0.3064250349998474
1725892375281028900,5.40202880859375,-0.0922405794262886,1.5499166250228882,0.04955640435218811
1725892375299877400,5.42087744140625,-0.24404047429561615,1.012966513633728,-0.714024543762207
1725892375318726000,5.439725830078125,-0.4920515716075897,0.6311760544776917,-0.6682097315788269
1725892375337574400,5.458574462890625,-0.43310311436653137,0.24236060678958893,-0.5481747984886169
1725892375356422700,5.477422607421875,-0.3347539007663727,0.001679878099821508,-0.49105891585350037
1725892375375271400,5.496271484375,-0.45906487107276917,0.051159925758838654,-0.38324129581451416
1725892375394119700,5.51511962890625,-0.44501498341560364,0.23136503994464874,-0.37804892659187317
1725892375412968200,5.53396826171875,-0.3020726442337036,0.32299473881721497,-0.39454227685928345
1725892375431816700,5.552816650390625,-0.18112140893936157,0.20021092891693115,-0.07780890166759491
1725892375450665200,5.571665283203125,-0.11056652665138245,0.22647811472415924,0.11888955533504486
1725892375469513700,5.590513671875,-0.0925460159778595,0.383470356464386,0.13660463690757751
1725892375488362000,5.609362060546875,-0.09193515032529831,0.736244797706604,0.14851650595664978
1725892375507210500,5.62821044921875,-0.33689191937446594,0.86544269323349,0.11552979797124863
1725892375526059000,5.64705908203125,-0.6230821013450623,0.36514443159103394,0.21021384000778198
1725892375544907500,5.665907470703125,-0.6682860851287842,-0.33490660786628723,0.2248746007680893
1725892375563756000,5.684756103515625,-0.471587598323822,-0.7108938694000244,0.08987347781658173
1725892375582604500,5.7036044921875,-0.21227550506591797,-0.8697187304496765,0.08865175396203995
1725892375601452800,5.722452880859375,-0.18723005056381226,-1.2704460620880127,0.1066722646355629
1725892375620301300,5.74130126953125,-0.07147117704153061,-1.4891356229782104,-0.1758527010679245
1725892375639149800,5.76014990234375,-0.14019346237182617,-1.302211046218872,-0.4638754427433014
1725892375657998300,5.778998291015625,-0.2974911332130432,-1.0908517837524414,-0.9748638272285461
1725892375676846800,5.797846923828125,-0.457843154668808,-1.2667808532714844,-1.0897064208984375
1725892375695695000,5.816695068359375,-0.476779967546463,-1.7325652837753296,-0.8313106298446655
1725892375714543600,5.835543701171875,-0.4312705397605896,-1.8883357048034668,-0.488004595041275
1725892375733392100,5.85439208984375,-0.30543237924575806,-1.3342814445495605,-0.4996110200881958
1725892375752240600,5.87324072265625,-0.35063639283180237,-0.967457115650177,-0.6049851775169373
1725892375771089200,5.892089111328125,-0.28038692474365234,-0.6754637360572815,-0.5558105707168579
1725892375789937700,5.910937744140625,-0.5277871489524841,-0.86544269323349,-0.4574613571166992
1725892375808786000,5.929785888671875,-0.657290518283844,-1.1488839387893677,-0.17524182796478271
1725892375827634400,5.948634521484375,-0.41783151030540466,-1.0346522331237793,0.004046979360282421
1725892375846483000,5.96748291015625,-0.1750127524137497,-0.7014254927635193,0.05719221383333206
1725892375865331500,5.98633154296875,0.05711585655808449,-0.6177369952201843,0.17997603118419647
1725892375884180000,6.005179931640625,0.004276053514331579,-0.3718639314174652,0.30367615818977356
1725892375903028500,6.024028564453125,-0.0824667438864708,0.10583232343196869,0.19219332933425903
1725892375921876700,6.042876708984375,-0.2556469142436981,-0.07834340631961823,0.31436628103256226
1725892375940725500,6.0617255859375,-0.48502662777900696,-0.4384481906890869,0.36598435044288635
1725892375959573800,6.08057373046875,-0.600785493850708,-0.5703949928283691,0.2557232677936554
1725892375978422300,6.09942236328125,-0.5393936038017273,-0.6042979955673218,0.32383468747138977
1725892375997270800,6.118270751953125,-0.4935787320137024,-0.7701478004455566,0.25389066338539124
1725892376016119300,6.137119384765625,-0.4419606626033783,-0.47754353284835815,0.15095995366573334
1725892376034967600,6.155967529296875,-0.45539969205856323,-0.44150251150131226,0.24839289486408234
1725892376053816300,6.17481640625,-0.389120876789093,-0.4696022868156433,0.18730641901493073
1725892376072664600,6.19366455078125,-0.2782489061355591,-0.485484778881073,0.20777037739753723
1725892376091513000,6.21251318359375,-0.1853974610567093,-0.7115047574043274,0.1430187225341797
1725892376110361600,6.231361572265625,0.04673115536570549,-0.9127846956253052,0.3314704895019531
1725892376129210000,6.250210205078125,0.7837395071983337,-0.6754637360572815,0.07338013499975204
1725892376148058600,6.26905859375,1.731190800666809,0.7386882305145264,0.0016035200096666813
1725892376166907100,6.2879072265625,2.327394723892212,1.2090541124343872,-0.051847148686647415
1725892376185755600,6.306755615234375,2.696662664413452,1.28083074092865,0.4298197329044342
1725892376204604000,6.32560400390625,3.1511459350585938,1.0798561573028564,0.39744389057159424
1725892376223452400,6.344452392578125,3.651749610900879,1.5642719268798828,-0.13370302319526672
1725892376242301000,6.363301025390625,6.055808067321777,3.2340707778930664,-0.6911171674728394
1725892376261149400,6.3821494140625,6.316036224365234,3.7285659313201904,-0.23907721042633057
1725892376279998000,6.400998046875,4.44740104675293,2.512028694152832,0.3479638397693634
1725892376298846500,6.419846435546875,2.4242169857025146,1.46714448928833,0.3904189467430115
1725892376317695000,6.438695068359375,0.2929096519947052,1.0151045322418213,-0.5823832154273987
1725892376336543500,6.45754345703125,0.3848448097705841,0.41706791520118713,-0.595211386680603
1725892376355391700,6.476391845703125,0.972496747970581,-0.44608399271965027,-0.06436987966299057
1725892376374240500,6.495240478515625,0.5293143391609192,-1.1207841634750366,0.16012293100357056
1725892376393088800,6.5140888671875,0.09987638890743256,-1.2075269222259521,0.27343833446502686
1725892376411937300,6.532937255859375,-0.09040798991918564,-1.0163263082504272,0.28993168473243713
1725892376430785800,6.551785888671875,-0.3433060050010681,-1.2261583805084229,0.2923751473426819
1725892376449634300,6.57063427734375,0.09437860548496246,-0.7964149713516235,0.5639045238494873
1725892376468482800,6.58948291015625,0.22327107191085815,-1.001665472984314,0.6402626633644104
1725892376487331300,6.608331298828125,0.21777328848838806,-0.4543306827545166,0.36201372742652893
1725892376506179800,6.627179931640625,0.09987638890743256,-0.7866411209106445,0.4136318266391754
1725892376525028000,6.646028076171875,0.054672397673130035,-0.7020363211631775,0.15981750190258026
1725892376543876900,6.664876953125,0.16523891687393188,-0.6061305999755859,0.011682788841426373
1725892376562725000,6.68372509765625,-0.4422661066055298,-3.1702353954315186,-0.8878155946731567
1725892376581573600,6.70257373046875,-2.266613721847534,-2.564563035964966,-0.2164752036333084
1725892376600422100,6.721422119140625,-0.3588830530643463,-1.3907864093780518,0.09903645515441895
1725892376619270700,6.740270751953125,0.056199558079242706,-0.838259220123291,0.5150353908538818
1725892376638119200,6.759119140625,0.09101885557174683,0.8058833479881287,-0.01000291109085083
1725892376656967700,6.7779677734375,0.05436696484684944,1.7551672458648682,-0.9327141642570496
1725892376675816200,6.796816162109375,0.2721402645111084,1.8018983602523804,-1.289459228515625
1725892376694664400,6.81566455078125,0.7098248600959778,1.7215696573257446,-1.1144464015960693
1725892376713513200,6.83451318359375,1.0421353578567505,2.1690280437469482,-0.9238566160202026
1725892376732361500,6.853361572265625,0.8677334189414978,1.4204133749008179,-0.5319868922233582
1725892376751210000,6.8722099609375,0.5974257588386536,0.32849252223968506,0.6197986602783203
1725892376770058500,6.89105859375,2.1218388080596924,-0.28725916147232056,0.5153408050537109
1725892376788907000,6.909906982421875,2.7699663639068604,-0.2231183648109436,-0.8759037256240845
1725892376807755500,6.928755615234375,0.6313287615776062,-0.9699005484580994,-0.7189114689826965
1725892376826604000,6.94760400390625,-0.029932374134659767,-0.8113811612129211,-0.3557523787021637
1725892376845452500,6.96645263671875,0.07788526266813278,0.08811724185943604,-0.5411498546600342
1725892376864301000,6.985301025390625,-0.8203914165496826,0.12324196845293045,-0.6718748807907104
1725892376883149600,7.004149658203125,-1.071456789970398,0.7405208349227905,-0.7619774341583252
1725892376901998000,7.022998046875,-1.1227694749832153,1.3067924976348877,-0.7311288118362427
1725892376920846300,7.041846435546875,-0.10751219838857651,-0.5523744821548462,-0.12667807936668396
1725892376939694800,7.06069482421875,0.3814850449562073,-0.6830995678901672,0.07368556410074234
1725892376958543600,7.079543701171875,0.029016077518463135,0.020311253145337105,0.2196822464466095
1725892376977391900,7.098391845703125,0.14630211889743805,-1.0719150304794312,0.7120392322540283
1725892376996240400,7.117240478515625,0.34666576981544495,-0.5652026534080505,0.20777037739753723
1725892377015089000,7.1360888671875,-0.18600831925868988,-0.8052725195884705,-0.25618141889572144
1725892377033937400,7.1549375,-0.9621120095252991,0.027336198836565018,-1.1333832740783691
1725892377052786000,7.173785888671875,-1.1597267389297485,0.5309942364692688,-1.5933644771575928
1725892377071634400,7.192634521484375,-0.6136136651039124,0.3058905303478241,-1.4333178997039795
1725892377090483000,7.21148291015625,-0.3689623177051544,0.11988221108913422,-1.3108394145965576
1725892377109331500,7.23033154296875,-0.2202167510986328,-0.011148282326757908,-1.2952624559402466
1725892377128180000,7.249179931640625,0.12644900381565094,-0.35964664816856384,-0.8239802122116089
1725892377147028500,7.268028564453125,0.04001164436340332,-0.8932369947433472,-0.32765260338783264
1725892377165877000,7.286876953125,-0.03023780696094036,-0.7802270650863647,-0.24488042294979095
1725892377184725500,7.3057255859375,-0.25992295145988464,0.014813470654189587,-0.32215481996536255
1725892377203574000,7.324573974609375,-0.3915643095970154,-0.3107774555683136,0.019013166427612305
1725892377222422300,7.34342236328125,-0.42943793535232544,-0.32391104102134705,-0.061620984226465225
1725892377241270800,7.362270751953125,-0.4007273018360138,-0.2790125012397766,-0.2531270980834961
1725892377260119600,7.38111962890625,-0.43340855836868286,0.04108065739274025,-0.284586638212204
1725892377278967800,7.3999677734375,-0.47922343015670776,-0.021838415414094925,-0.38965538144111633
1725892377297816300,7.41881640625,-0.5873464941978455,0.10186170041561127,-0.5167152285575867
1725892377316665000,7.4376650390625,-0.6282744407653809,0.010537417605519295,-0.7958804368972778
1725892377335513300,7.456513427734375,-0.5708531141281128,-0.1302669197320938,-1.0417535305023193
1725892377354361900,7.47536181640625,-0.39889469742774963,0.01847865991294384,-0.9965495467185974
1725892377373210400,7.49421044921875,-0.20158538222312927,-0.03955349326133728,-0.7592285871505737
1725892377392059000,7.513058837890625,-0.26878049969673157,-0.1776089370250702,-0.7390699982643127
1725892377410907400,7.531907470703125,-0.17776164412498474,-0.14889828860759735,-0.6834813356399536
1725892377429756000,7.550755859375,-0.17715078592300415,-0.1363755613565445,-0.5750528573989868
1725892377448604400,7.5696044921875,-0.3130682110786438,-0.18555018305778503,-0.5561160445213318
1725892377467453000,7.588452880859375,-0.34086254239082336,0.016340631991624832,-0.4534907341003418
1725892377486301400,7.607301513671875,-0.5189296007156372,-0.012980876490473747,-0.45593419671058655
1725892377505150000,7.62614990234375,-0.7278453707695007,-0.07864884287118912,-0.45501789450645447
1725892377523998500,7.64499853515625,-0.5494728684425354,-0.12232567369937897,-0.2329685539007187
1725892377542847000,7.663846923828125,-0.5256491303443909,0.04016435891389847,-0.23907721042633057
1725892377561695500,7.682695556640625,-0.5787943601608276,-0.0001527161948615685,-0.05520690605044365
1725892377580544000,7.7015439453125,-0.3442223072052002,0.0642935186624527,0.033368486911058426
1725892377599392500,7.720392578125,-0.3854556679725647,0.1922696828842163,-0.033826638013124466
1725892377618241000,7.739240966796875,-0.42363473773002625,0.043829549103975296,0.04864010959863663
1725892377637089500,7.758089599609375,-0.12705987691879272,0.34437501430511475,0.13324488699436188
1725892377655938000,7.77693798828125,-0.07880155742168427,0.568562388420105,-0.01763872057199478
1725892377674786600,7.79578662109375,-0.32681265473365784,0.37461283802986145,-0.07780890166759491
1725892377693635000,7.814635009765625,-0.09865466505289078,0.40088000893592834,0.024205517023801804
1725892377712483600,7.833483642578125,0.14660754799842834,0.60490882396698,-0.16394083201885223
1725892377731332000,7.85233203125,-0.12125665694475174,0.7820596098899841,-0.23449571430683136
1725892377750180600,7.8711806640625,0.1282816082239151,0.7267763614654541,-0.051847148686647415
1725892377769029000,7.890029052734375,0.44898560643196106,0.5737547278404236,0.0009926552884280682
1725892377787877600,7.908877685546875,0.4153880476951599,0.5261073112487793,0.2966512143611908
1725892377806726100,7.92772607421875,0.757777750492096,0.15286891162395477,0.48907360434532166
1725892377825574700,7.94657470703125,0.9874629378318787,0.11316270381212234,0.451200008392334
1725892377844423200,7.965423095703125,0.924849271774292,0.1104138121008873,0.5104538798332214
1725892377863271700,7.984271728515625,0.8836159110069275,-0.14828743040561676,0.6213258504867554
1725892377882120200,8.0031201171875,1.1081087589263916,-0.3208567202091217,0.6598103046417236
1725892377900968700,8.02196875,1.1316269636154175,-0.4017963111400604,0.6500364542007446
1725892377919817200,8.040817138671875,1.047938585281372,-0.32757624983787537,1.0431280136108398
1725892377938665700,8.059665771484376,1.1673625707626343,-0.2695440948009491,0.9490547776222229
1725892377957514200,8.07851416015625,1.072678565979004,-0.12690715491771698,0.8513164520263672
1725892377976362800,8.09736279296875,1.0247256755828857,0.09330959618091583,0.8827759623527527
1725892377995211300,8.116211181640624,1.2049307823181152,-0.16936226189136505,0.7511346340179443
1725892378014059800,8.135059814453125,1.1032217741012573,-0.10583232343196869,0.8907172083854675
1725892378032908300,8.153908203125,1.3390156030654907,-0.020311253145337105,0.8617011308670044
1725892378051756800,8.1727568359375,1.3234385251998901,-0.4234820008277893,0.7538834810256958
1725892378070605300,8.191605224609376,0.8808670043945312,-0.027336198836565018,0.8638391494750977
1725892378089453800,8.210453857421875,0.8051197528839111,0.32910341024398804,0.9753220081329346
1725892378108302300,8.22930224609375,1.1527018547058105,0.37094762921333313,0.6494256258010864
1725892378127150800,8.24815087890625,1.3115266561508179,0.6953168511390686,0.7325032353401184
1725892378145999400,8.266999267578125,1.9196425676345825,0.3630063831806183,1.0214422941207886
1725892378164847900,8.285847900390625,1.7513493299484253,-0.2701549530029297,0.9389755129814148
1725892378183696400,8.3046962890625,1.5286891460418701,-0.5300779342651367,0.7792344093322754
1725892378202545000,8.323544921875,1.2806780338287354,-0.8110756874084473,0.6665298342704773
1725892378221393400,8.342393310546875,0.9227112531661987,-0.5175551772117615,0.6488147377967834
1725892378240242000,8.361241943359374,0.4062250852584839,-0.10735948383808136,0.7309760451316833
1725892378259090400,8.38009033203125,0.07941242307424545,0.07284562289714813,0.7657953500747681
1725892378277939000,8.39893896484375,-0.14477495849132538,-0.06979130208492279,0.6714167594909668
1725892378296787500,8.417787353515624,-0.16126830875873566,-0.41126471757888794,0.6045270562171936
1725892378315636000,8.436635986328126,-0.4923570156097412,-0.3223838806152344,0.42615455389022827
1725892378334484500,8.455484375,-0.23548837006092072,0.06734783947467804,0.5504655241966248
1725892378353333000,8.4743330078125,-0.3170388340950012,-0.28787001967430115,0.1934150606393814
1725892378372181500,8.493181396484376,-0.24434591829776764,-0.5203040838241577,0.2096029818058014
1725892378391030000,8.512030029296875,-0.20738859474658966,-0.2338084876537323,0.9087377190589905
1725892378409878500,8.53087841796875,-0.27947062253952026,-0.7325795888900757,0.988455593585968
1725892378428727000,8.54972705078125,-0.0925460159778595,-0.4488328993320465,0.4200458824634552
1725892378447575600,8.568575439453125,-0.09712749719619751,-0.0948367565870285,-0.20364704728126526
1725892378466424000,8.587424072265625,-0.08063415437936783,0.39110618829727173,-0.685924768447876
1725892378485272600,8.6062724609375,-0.05497783049941063,0.41706791520118713,-0.9577596187591553
1725892378504121300,8.625121337890626,0.054672397673130035,0.32879796624183655,-0.8487202525138855
1725892378522969900,8.643969970703125,0.19303326308727264,0.07284562289714813,-0.631557822227478
1725892378541818000,8.662818115234375,0.5158752799034119,0.022754713892936707,-0.4950295388698578
1725892378560666600,8.68166650390625,0.8451313972473145,-0.2738201320171356,-0.6840922236442566
1725892378579515400,8.700515380859375,1.0042617321014404,-0.2548833191394806,-0.9883028268814087
1725892378598364000,8.719364013671875,1.0439679622650146,-0.3404043912887573,-1.1471277475357056
1725892378617212400,8.73821240234375,0.758694052696228,0.024281874299049377,-1.1886664628982544
1725892378636061000,8.75706103515625,0.5115992426872253,0.3614792227745056,-1.620547890663147
1725892378654909400,8.775909423828125,0.35277441143989563,0.0007635809597559273,-1.7497458457946777
1725892378673758000,8.794758056640624,0.6001746654510498,0.43722647428512573,-1.6547563076019287
1725892378692606500,8.8136064453125,0.8576541543006897,0.8196278214454651,-1.6956843137741089
1725892378711455000,8.832455078125,0.7339540123939514,1.1281145811080933,-1.4974586963653564
1725892378730303500,8.851303466796875,0.37812530994415283,0.9683734178543091,-1.000214695930481
1725892378749152000,8.870152099609374,-0.36651885509490967,0.9702059626579285,-0.7656426429748535
1725892378768000500,8.88900048828125,-0.9416480660438538,-0.3379609286785126,-1.0787107944488525
1725892378786849000,8.90784912109375,0.27947062253952026,-0.8055779337882996,-1.1743111610412598
1725892378805697500,8.926697509765624,0.0824667438864708,-0.3400989770889282,-0.9412662386894226
1725892378824546000,8.945546142578126,-0.08032871782779694,-0.3119991719722748,-0.7619774341583252
1725892378843394600,8.96439453125,-0.19883649051189423,-0.4283689260482788,-0.8190932869911194
1725892378862243000,8.9832431640625,-0.31520622968673706,-0.5367974042892456,-0.8985057473182678
1725892378881091800,9.002091796875,-0.4453204274177551,-0.38988444209098816,-0.8117629289627075
1725892378899940000,9.020940185546875,-0.47464191913604736,-0.28237223625183105,-0.6150645017623901
1725892378918788600,9.03978857421875,-0.46944957971572876,-0.3819431960582733,-0.5689441561698914
1725892378937637400,9.058637451171874,-0.6185005903244019,-0.5371028780937195,-0.5814669132232666
1725892378956486000,9.07748583984375,-0.675616443157196,-0.5383245944976807,-0.6672934293746948
1725892378975334400,9.09633447265625,-0.7159335017204285,-0.7066178321838379,-0.8123738169670105
1725892378994183000,9.115182861328124,-0.778241753578186,-0.9964731931686401,-0.8019890785217285
1725892379013031400,9.134031494140626,-0.8124501705169678,-1.093906044960022,-0.7952696084976196
1725892379031880000,9.1528798828125,-0.7712168097496033,-1.0425934791564941,-0.7858011722564697
1725892379050728400,9.171728515625,-0.767551600933075,-0.9876156449317932,-0.8435279130935669
1725892379069577000,9.190576904296876,-0.823445737361908,-0.6675224900245667,-0.807486891746521
1725892379088425500,9.209425537109375,-0.6921098232269287,-0.6937896609306335,-0.8193987607955933
1725892379107274000,9.22827392578125,-0.7605266571044922,-0.6922625303268433,-0.7036398649215698
1725892379126122500,9.24712255859375,-0.7467821836471558,-0.1818849891424179,-0.6248382925987244
1725892379144971000,9.265970947265625,-0.7260127663612366,-0.3174969553947449,-0.6297252178192139
1725892379163819500,9.284819580078125,-0.9175189137458801,-0.38102689385414124,-0.4489092528820038
1725892379182668000,9.30366796875,-0.6826413869857788,0.011148282326757908,-0.4434114694595337
1725892379201516500,9.3225166015625,-0.4410443603992462,0.011759147047996521,-0.6031526327133179
1725892379220365000,9.341364990234375,-0.472198486328125,0.3159697949886322,-0.28122687339782715
1725892379239213800,9.3602138671875,-0.17165300250053406,0.33490660786628723,-0.5539780259132385
1725892379258062300,9.379062255859376,-0.32039856910705566,0.027030766010284424,-0.26137375831604004
1725892379276910800,9.397910888671875,-0.19669845700263977,0.009315688163042068,0.00007635809743078426
1725892379295759400,9.41675927734375,-0.17806708812713623,-0.029474224895238876,-0.25526511669158936
1725892379314607900,9.43560791015625,-0.1591302752494812,0.05329795181751251,0.12408190965652466
1725892379333456400,9.454456298828125,-0.046425722539424896,0.30344706773757935,0.19219332933425903
1725892379352305000,9.473304931640625,-0.09621120244264603,0.577725350856781,0.2297615110874176
1725892379371153400,9.4921533203125,-0.02260199747979641,0.6702713966369629,0.5590176582336426
1725892379390002000,9.511001953125,0.13683371245861053,1.1210895776748657,0.7028762698173523
1725892379408850400,9.529850341796875,0.4013381600379944,1.6308562755584717,0.7945060133934021
1725892379427699000,9.548698974609374,0.4608974754810333,1.5538872480392456,1.2746456861495972
1725892379446547500,9.56754736328125,0.3961458206176758,1.3581050634384155,1.441717267036438
1725892379465396200,9.586396240234375,0.5534434914588928,1.4072797298431396,1.3161845207214355
1725892379484244500,9.605244384765625,0.7855721116065979,1.3852885961532593,1.2944988012313843
1725892379503093000,9.624093017578126,0.8426879644393921,1.0645846128463745,1.3849067687988281
1725892379521941800,9.642941650390625,1.082757830619812,0.8898772597312927,1.2398264408111572
1725892379540790300,9.661790283203125,1.3185516595840454,0.6470585465431213,1.1268163919448853
1725892379559638800,9.680638671875,1.3716968297958374,0.46135562658309937,1.2444078922271729
1725892379578487300,9.6994873046875,1.3936879634857178,0.5059487819671631,0.9478330612182617
1725892379597335800,9.718335693359375,1.3576469421386719,0.6256782412528992,0.8894954919815063
1725892379616184300,9.737184326171874,1.2541054487228394,0.11713331937789917,0.9463059306144714
1725892379635032800,9.75603271484375,1.0348049402236938,0.2542724609375,0.9273691177368164
1725892379653881300,9.77488134765625,1.1169662475585938,0.28237223625183105,0.6472876071929932
1725892379672729900,9.793729736328125,1.0146464109420776,-0.10430516302585602,0.8351284861564636
1725892379691578400,9.812578369140626,0.7800742983818054,-0.06979130208492279,1.0330487489700317
1725892379710427000,9.831427001953125,0.8374956250190735,-0.06123919412493706,0.7902299761772156
1725892379729275400,9.850275390625,0.7883210182189941,-0.021838415414094925,0.9307288527488708
1725892379748124000,9.8691240234375,0.6411026120185852,-0.6195695996284485,0.9954805374145508
1725892379766972700,9.88797265625,0.5290089249610901,-0.4497492015361786,0.9475276470184326
1725892379785821200,9.9068212890625,0.5937605500221252,-0.1818849891424179,0.8971312642097473
1725892379804669700,9.925669677734374,0.47097674012184143,-0.3156643807888031,0.8088613152503967
1725892379823518200,9.944518310546876,0.21441353857517242,0.024281874299049377,0.8665880560874939
1725892379842366700,9.96336669921875,0.2935205399990082,-0.1516471803188324,0.8931606411933899
1725892379861215200,9.98221533203125,0.24892739951610565,-0.6272054314613342,0.5581013560295105
1725892379880063700,10.001063720703126,0.10873392969369888,-0.25763222575187683,0.34521496295928955
1725892379898912300,10.019912353515625,-0.09957095980644226,-0.5758927464485168,0.23159411549568176
1725892379917760800,10.0387607421875,-0.2205221801996231,-0.2133445292711258,-0.15783219039440155
1725892379936609300,10.057609375,-0.2306014597415924,-0.2793179154396057,-0.34811657667160034
1725892379955457800,10.076457763671876,-0.3035998046398163,-0.3162752389907837,-0.3545306324958801
1725892379974306300,10.095306396484375,-0.3454440236091614,0.10797034949064255,-0.38354671001434326
1725892379993155000,10.114155029296874,-0.24373504519462585,-0.15409064292907715,-0.37774351239204407
1725892380012003600,10.133003662109376,-0.1594357043504715,-0.13515383005142212,-0.37407833337783813
1725892380030852000,10.15185205078125,-0.06322450190782547,-0.1623373180627823,-0.19509494304656982
1725892380049700600,10.17070068359375,0.09926552325487137,-0.6440041661262512,-0.20059272646903992
1725892380068549000,10.189549072265624,-0.04764745384454727,-0.5193877816200256,-0.2833648920059204
1725892380087397600,10.208397705078125,-0.16035200655460358,-0.1305723488330841,-0.39973464608192444
1725892380106246100,10.22724609375,-0.13041962683200836,-0.504421591758728,-0.6150645017623901
1725892380125094700,10.2460947265625,-0.27977606654167175,-0.05299251899123192,-0.5579485893249512
1725892380143943400,10.264943359375,-0.1701258420944214,-0.4864010810852051,-0.6617956161499023
1725892380162792000,10.2837919921875,-0.3906480371952057,-0.24510949850082397,-0.9116393327713013
1725892380181640200,10.30264013671875,-0.7483093738555908,0.07742711156606674,-0.9479857683181763
1725892380200488700,10.32148876953125,-0.6181951761245728,0.09422589093446732,-0.9928843379020691
1725892380219337500,10.34033740234375,-0.4376846253871918,0.24205516278743744,-0.8636864423751831
1725892380238186000,10.35918603515625,-0.43463030457496643,0.15317434072494507,-0.6434696912765503
1725892380257034500,10.378034423828124,-0.24862197041511536,-0.2130390852689743,-0.6608793139457703
1725892380275883000,10.396883056640625,-0.3087921440601349,-0.228921577334404,-0.8035162687301636
1725892380294731500,10.4157314453125,-0.3430005609989166,-0.17394374310970306,-0.8413898944854736
1725892380313580000,10.434580078125,-0.448069304227829,-0.18616104125976562,-0.9467640519142151
1725892380332428500,10.453428466796876,-0.3500255048274994,-0.31230461597442627,-1.2204314470291138
1725892380351277000,10.472277099609375,-0.2974911332130432,-0.4909825623035431,-1.1440733671188354
1725892380370125800,10.491125732421875,-0.48075059056282043,-0.4338667094707489,-0.9586759209632874
1725892380388974300,10.509974365234376,-0.3952295184135437,-0.6061305999755859,-1.0527490377426147
1725892380407822800,10.52882275390625,-0.3912588953971863,-0.69012451171875,-1.1086431741714478
1725892380426671400,10.54767138671875,-0.41874781250953674,-0.8483384847640991,-1.235092282295227
1725892380445520000,10.566519775390624,-0.435241162776947,-1.149800181388855,-1.1355212926864624
1725892380464368400,10.585368408203125,-0.46059203147888184,-1.5428917407989502,-1.046640396118164
1725892380483217000,10.604216796875,-0.4523453712463379,-1.7188208103179932,-1.039310097694397
1725892380502065400,10.6230654296875,-0.4978547990322113,-1.6540690660476685,-0.834059476852417
1725892380520914000,10.641913818359376,-0.34116798639297485,-1.6827797889709473,-0.9785290360450745
1725892380539762400,10.660762451171875,-0.2974911332130432,-1.2762492895126343,-0.9070578217506409
1725892380558611000,10.67961083984375,-0.3094030022621155,-1.3590214252471924,-1.1627047061920166
1725892380577459500,10.69845947265625,-0.4453204274177551,-1.0178533792495728,-1.1016182899475098
1725892380596308000,10.717307861328125,-0.5690205693244934,-0.606436014175415,-1.0322850942611694
1725892380615156700,10.73615673828125,-0.47433650493621826,0.2961167097091675,-1.0677152872085571
1725892380634005200,10.755005126953124,-0.5403099060058594,0.12263110280036926,-1.16789710521698
1725892380652853800,10.773853759765625,-0.629496157169342,0.3462076187133789,-0.8575778007507324
1725892380671702300,10.792702392578125,-0.656679630279541,0.29275694489479065,-0.7219657897949219
1725892380690550800,10.81155078125,-0.7122683525085449,0.22769984602928162,-0.4843394160270691
1725892380709399300,10.8303994140625,-0.5812378525733948,0.641866147518158,-0.13797907531261444
1725892380728247800,10.849247802734375,-0.3344484567642212,0.5099193453788757,-0.1862373948097229
1725892380747096300,10.868096435546875,-0.2922987937927246,0.388662725687027,0.260915607213974
1725892380765945000,10.886945068359376,-0.33231043815612793,0.26618432998657227,0.506483256816864
1725892380784793600,10.905793701171875,-0.32559093832969666,0.36942046880722046,0.7419716119766235
1725892380803642000,10.92464208984375,-0.2309068888425827,0.3462076187133789,0.8314633369445801
1725892380822490600,10.94349072265625,-0.23976442217826843,0.5203040838241577,1.0165553092956543
1725892380841339100,10.962339111328125,-0.12400554865598679,0.8196278214454651,1.1827105283737183
1725892380860187600,10.981187744140625,-0.13041962683200836,1.0413717031478882,1.5177699327468872
1725892380879036200,11.0000361328125,-0.06841685622930527,1.7166827917099,1.634750485420227
1725892380897884700,11.018884765625,0.2813032269477844,2.014479398727417,1.7498985528945923
1725892380916733200,11.037733154296875,0.3393353819847107,1.763108491897583,2.0870959758758545
1725892380935581700,11.056581787109375,0.3845393657684326,1.0737475156784058,2.01593017578125
1725892380954430200,11.07543017578125,0.45020735263824463,1.0560325384140015,1.7801363468170166
1725892380973278700,11.09427880859375,0.5125155448913574,0.8126028776168823,1.6665154695510864
1725892380992127500,11.11312744140625,0.5308414697647095,0.8006910085678101,1.8283946514129639
1725892381010976000,11.13197607421875,0.647516667842865,0.5731438994407654,1.689117431640625
1725892381029824500,11.150824462890625,0.5983420610427856,0.4247037470340729,1.4988330602645874
1725892381048673000,11.169673095703125,0.6798924803733826,0.48884454369544983,1.6124539375305176
1725892381067521500,11.188521484375,1.0051779747009277,0.04993819445371628,1.0724494457244873
1725892381086370000,11.2073701171875,0.8909462690353394,0.25579962134361267,1.339702844619751
1725892381105218600,11.226218505859375,0.9245438575744629,-0.005955931730568409,1.2022582292556763
1725892381124067000,11.245067138671875,0.7644972801208496,0.0038179049734026194,1.2868629693984985
1725892381142915600,11.26391552734375,0.5051851868629456,-0.04780016839504242,1.2948042154312134
1725892381161764400,11.282764404296875,0.591622531414032,-0.13820815086364746,1.0608429908752441
1725892381180612900,11.30161279296875,0.592233419418335,-0.19379685819149017,1.0342704057693481
1725892381199461400,11.32046142578125,0.4355465769767761,-0.20448698103427887,1.014111876487732
1725892381218310000,11.339309814453125,0.2315177470445633,0.09972367435693741,1.0611485242843628
1725892381237158400,11.358158447265625,0.22479823231697083,-0.21914774179458618,0.8543707728385925
1725892381256007000,11.3770068359375,0.205861434340477,-0.4390590488910675,0.39164069294929504
1725892381274855400,11.39585546875,-0.07024945318698883,-0.1464548259973526,0.2502254843711853
1725892381293704000,11.414703857421875,-0.18906265497207642,-0.21456626057624817,0.12866339087486267
1725892381312552400,11.433552490234375,-0.1282816082239151,0.018784092739224434,-0.13858994841575623
1725892381331401200,11.452401123046876,-0.04001164436340332,-0.039858926087617874,-0.35391977429389954
1725892381350249700,11.471249755859375,-0.04917461425065994,-0.24174973368644714,-0.34292420744895935
1725892381369098000,11.490097900390625,-0.1285870373249054,-0.25213444232940674,-0.37285658717155457
1725892381387946800,11.50894677734375,-0.09101885557174683,-0.2438877671957016,-0.5438987016677856
1725892381406795300,11.527795166015625,-0.025045456364750862,-0.001679878099821508,-0.7375428676605225
1725892381425643800,11.546643798828125,0.038789913058280945,-0.24236060678958893,-0.7030289769172668
1725892381444492300,11.5654921875,0.022296564653515816,-0.03222311660647392,-0.6905062794685364
1725892381463340800,11.5843408203125,-0.019242240116000175,0.3633118271827698,-0.7280744314193726
1725892381482189300,11.603189208984375,0.05436696484684944,0.1565341055393219,-0.9754747152328491
1725892381501037800,11.622037841796875,0.08674279600381851,0.3019199073314667,-1.0805433988571167
1725892381519886300,11.64088623046875,0.003359756199643016,0.4659371078014374,-0.9916626214981079
1725892381538734800,11.65973486328125,0.05803215503692627,0.4405862092971802,-1.0585522651672363
1725892381557583600,11.67858349609375,0.2712239623069763,-0.025809036567807198,-1.3282490968704224
1725892381576432000,11.69743212890625,0.2977965772151947,-0.015729768201708794,-1.2106575965881348
1725892381595280600,11.71628076171875,0.12767073512077332,-0.02519817277789116,-1.008461356163025
1725892381614129200,11.735129150390625,-0.047952886670827866,0.145843967795372,-0.9898300170898438
1725892381632977700,11.753977783203124,0.06566796451807022,-0.06520981341600418,-1.138575553894043
1725892381651826200,11.772826171875,0.17623448371887207,-0.33948808908462524,-1.113530158996582
1725892381670674700,11.7916748046875,0.09926552325487137,-0.43722647428512573,-1.0527490377426147
1725892381689523200,11.810523193359375,-0.013744457624852657,-0.7912226319313049,-1.1770601272583008
1725892381708372000,11.8293720703125,-0.16676609218120575,-0.5395463109016418,-1.1541526317596436
1725892381727220500,11.848220458984375,-0.2828303873538971,-0.5123628377914429,-1.0780999660491943
1725892381746069000,11.867069091796875,-0.12034036219120026,-0.44577857851982117,-1.1010074615478516
1725892381764917500,11.88591748046875,-0.08032871782779694,-0.7035635113716125,-1.1336886882781982
1725892381783766000,11.90476611328125,-0.3026835024356842,-0.8785762786865234,-1.1654536724090576
1725892381802614500,11.923614501953125,-0.5589412450790405,-0.653167188167572,-1.0884846448898315
1725892381821463000,11.942463134765624,-0.5051851868629456,-1.004719853401184,-1.1113921403884888
1725892381840311600,11.9613115234375,-0.5070177912712097,-1.0804671049118042,-1.2668571472167969
1725892381859160000,11.98016015625,-0.7073814272880554,-1.3019055128097534,-1.316031813621521
1725892381878008600,11.999008544921875,-0.795040488243103,-1.6030619144439697,-1.2500584125518799
1725892381896857000,12.017857177734374,-0.7703005075454712,-1.483943223953247,-1.1474331617355347
1725892381915705600,12.03670556640625,-0.5476402640342712,-1.2017236948013306,-1.195996880531311
1725892381934554000,12.05555419921875,-0.5464185476303101,-1.1745402812957764,-1.1898882389068604
1725892381953403000,12.07440283203125,-0.6148353815078735,-0.763428270816803,-1.09520423412323
1725892381972251400,12.09325146484375,-0.7162389755249023,-0.20418155193328857,-0.973031222820282
1725892381991100000,12.112099853515625,-0.6423243284225464,-0.0798705667257309,-0.8896481990814209
1725892382009948400,12.130948486328125,-0.730594277381897,0.1455385386943817,-0.7842740416526794
1725892382028797000,12.149796875,-0.8906408548355103,0.523969292640686,-0.6352230310440063
1725892382047645400,12.1686455078125,-0.7211259007453918,0.26129740476608276,-0.6086503863334656
1725892382066494000,12.187493896484375,-0.7290670871734619,0.24572035670280457,-0.2848920524120331
1725892382085342500,12.206342529296874,-0.630107045173645,0.1980729103088379,-0.043600473552942276
1725892382104191200,12.225191162109375,-0.4205803871154785,0.37522369623184204,0.14057525992393494
1725892382123039700,12.244039794921875,-0.36804601550102234,0.35995206236839294,0.36018115282058716
1725892382141888000,12.262887939453124,-0.565049946308136,0.4845684766769409,0.8959095478057861
1725892382160736500,12.281736572265626,-0.31581708788871765,0.6601921319961548,0.9435570240020752
1725892382179585300,12.300585205078125,-0.3854556679725647,0.5560396909713745,1.211421251296997
1725892382198433800,12.319433837890625,-0.40225446224212646,0.9265291690826416,1.533957839012146
1725892382217282300,12.3382822265625,-0.3078758418560028,1.0645846128463745,1.6747621297836304
1725892382236130800,12.357130859375,-0.22388194501399994,1.2786927223205566,1.8729877471923828
1725892382254979300,12.375979248046875,-0.039706211537122726,1.4399609565734863,1.9982150793075562
1725892382273827800,12.394827880859374,0.10934479534626007,1.680947184562683,2.1625375747680664
1725892382292676400,12.41367626953125,0.2926042377948761,1.845575213432312,2.1066434383392334
1725892382311524900,12.43252490234375,0.34636032581329346,1.6006184816360474,2.225762128829956
1725892382330373600,12.45137353515625,0.4309650957584381,1.2304344177246094,2.010432243347168
1725892382349222100,12.47022216796875,0.4944950342178345,1.3990330696105957,1.848247766494751
1725892382368070700,12.489070556640625,0.6505709886550903,0.9476040005683899,1.6145919561386108
1725892382386919200,12.507919189453125,0.739757239818573,0.9066760540008545,1.506163477897644
1725892382405767700,12.526767578125,0.9731075763702393,0.49373146891593933,1.2795326709747314
1725892382424616200,12.5456162109375,0.9978476166725159,0.39049530029296875,1.106657862663269
1725892382443464700,12.564464599609375,1.008537769317627,0.32849252223968506,1.2331069707870483
1725892382462313200,12.583313232421874,1.0845904350280762,-0.16569706797599792,0.9139300584793091
1725892382481161700,12.60216162109375,0.8420770764350891,0.14950916171073914,1.0416008234024048
1725892382500010200,12.62101025390625,0.7492256760597229,-0.009926552884280682,1.1790454387664795
1725892382518858800,12.639858642578124,0.7877101302146912,-0.1052214577794075,0.9982293844223022
1725892382537707300,12.658707275390626,0.6490437984466553,0.0032070400193333626,1.0889428853988647
1725892382556556000,12.67755615234375,0.5125155448913574,-0.14523309469223022,0.9765437245368958
1725892382575404500,12.696404541015625,0.3790415823459625,-0.017867794260382652,0.9576069116592407
1725892382594253000,12.715253173828126,0.2993237376213074,-0.15347976982593536,0.8216894865036011
1725892382613101600,12.7341015625,0.37262752652168274,-0.2383899837732315,0.5944477915763855
1725892382631950000,12.7529501953125,0.2009745091199875,-0.3159697949886322,0.24808746576309204
1725892382650798600,12.771798583984374,0.06780599057674408,-0.11896591633558273,0.13660463690757751
1725892382669647000,12.790647216796875,-0.18723005056381226,-0.25763222575187683,-0.12301289290189743
1725892382688495600,12.80949560546875,-0.40775224566459656,0.15439607203006744,-0.469678670167923
1725892382707344100,12.82834423828125,-0.36712974309921265,0.2390008419752121,-0.5894081592559814
1725892382726192600,12.847192626953126,-0.33047783374786377,0.3520108163356781,-0.6599630117416382
1725892382745041200,12.866041259765625,-0.1802051067352295,0.09636391699314117,-0.6465240120887756
1725892382763889700,12.8848896484375,-0.07483093440532684,-0.29245150089263916,-0.7305179238319397
1725892382782738200,12.90373828125,-0.02412915788590908,-0.1611155867576599,-0.6969203352928162
1725892382801587000,12.9225869140625,0.13622283935546875,-0.2860374450683594,-0.7702241539955139
1725892382820435500,12.941435546875,0.1279761642217636,0.21487168967723846,-0.826423704624176
1725892382839284000,12.960283935546874,0.23304490745067596,-0.04230238497257233,-0.8810960650444031
1725892382858132500,12.979132568359375,0.22235478460788727,0.09544762223958969,-0.9455423355102539
1725892382876981000,12.99798095703125,0.09682206809520721,0.08292489498853683,-1.0243438482284546
1725892382895829500,13.01682958984375,-0.08002328872680664,0.31322091817855835,-1.1831687688827515
1725892382914678000,13.035677978515626,-0.15271618962287903,0.42073312401771545,-1.2121847867965698
1725892382933526500,13.054526611328125,-0.17562362551689148,0.17486004531383514,-0.9476803541183472
1725892382952375000,13.073375,-0.13652828335762024,-0.04657844081521034,-0.8245911002159119
1725892382971223600,13.0922236328125,-0.07819069176912308,-0.4017963111400604,-0.9061415195465088
1725892382990072000,13.111072021484375,-0.1695149689912796,-0.12935061752796173,-1.000214695930481
1725892383008920600,13.129920654296875,-0.16584978997707367,-0.1302669197320938,-1.008766770362854
1725892383027769300,13.148769287109374,-0.24953825771808624,-0.17119485139846802,-1.0420589447021484
1725892383046617900,13.167617919921875,-0.3173442482948303,-0.18035782873630524,-1.0747401714324951
1725892383065466400,13.18646630859375,-0.35643959045410156,-0.4705185890197754,-1.0173189640045166
1725892383084315000,13.20531494140625,-0.5390881896018982,-0.2790125012397766,-0.9574542045593262
1725892383103163400,13.224163330078126,-0.6322450637817383,-0.5624537467956543,-0.8759037256240845
1725892383122012000,13.243011962890625,-0.5980366468429565,-0.7686206102371216,-0.7799979448318481
1725892383140860400,13.2618603515625,-0.5543597936630249,-0.7670934200286865,-0.7888554930686951
1725892383159709000,13.280708984375,-0.43982264399528503,-0.9772309064865112,-0.9623411297798157
1725892383178557400,13.299557373046875,-0.5955931544303894,-1.3000729084014893,-1.1639264822006226
1725892383197406000,13.318406005859375,-0.5503891706466675,-1.4873030185699463,-1.1428515911102295
1725892383216254500,13.33725439453125,-0.5057960152626038,-1.6027565002441406,-1.240895390510559
1725892383235103000,13.35610302734375,-0.31123560667037964,-1.5935934782028198,-1.4815762042999268
1725892383253951700,13.37495166015625,-0.3231474757194519,-1.3107631206512451,-1.378950834274292
1725892383272800300,13.39380029296875,-0.314289927482605,-0.808937668800354,-1.4861576557159424
1725892383291648800,13.412648681640626,-0.3536907136440277,-0.6116283535957336,-1.6791908740997314
1725892383310497300,13.431497314453125,-0.5012145638465881,-0.314748078584671,-1.3377175331115723
1725892383329345800,13.450345703125,-0.6108647584915161,0.10308343172073364,-1.0246492624282837
1725892383348194300,13.4691943359375,-0.619722306728363,0.6910407543182373,-0.8694896697998047
1725892383367042800,13.488042724609375,-0.6340776681900024,0.6473639607429504,-0.8868992924690247
1725892383385891300,13.506891357421875,-0.8955277800559998,0.6366738080978394,-0.15722131729125977
1725892383404739800,13.52573974609375,-0.5693259835243225,0.7628173828125,-0.08391755074262619
1725892383423588400,13.54458837890625,-0.49999281764030457,0.41584619879722595,-0.12301289290189743
1725892383442436900,13.563436767578125,-0.37293294072151184,0.47204574942588806,0.5061778426170349
1725892383461285400,13.582285400390624,-0.28588470816612244,0.4332558512687683,0.8024472594261169
1725892383480134000,13.6011337890625,-0.04306596517562866,0.9231693744659424,1.0849722623825073
1725892383498982400,13.619982421875,0.1328630894422531,1.1849249601364136,1.1738530397415161
1725892383517831000,13.638830810546875,-0.021380268037319183,1.0694714784622192,1.4747039079666138
1725892383536679400,13.657679443359376,-0.11759147047996521,1.2918262481689453,1.7315726280212402
1725892383555528200,13.676528076171875,0.03237583488225937,1.6354377269744873,1.818926215171814
1725892383574376700,13.695376708984375,0.21197007596492767,2.1134393215179443,1.8647410869598389
1725892383593225000,13.714224853515624,0.4725039005279541,2.2808163166046143,2.0226495265960693
1725892383612073700,13.73307373046875,0.6661480665206909,1.7408119440078735,1.8800127506256104
1725892383630922200,13.751922119140625,0.7446441650390625,1.3755147457122803,1.6216169595718384
1725892383649770800,13.770770751953124,0.8710931539535522,0.6632464528083801,1.3922371864318848
1725892383668619300,13.789619384765626,0.9477567076683044,0.48304131627082825,1.4982222318649292
1725892383687467800,13.8084677734375,1.3393210172653198,0.9903645515441895,1.1167371273040771
1725892383706316300,13.82731640625,1.757763385772705,1.1122320890426636,0.9374483823776245
1725892383725164800,13.846164794921876,1.5625921487808228,0.5444332361221313,1.0223585367202759
1725892383744013300,13.865013427734375,1.211344838142395,0.44730573892593384,1.098105788230896
1725892383762861800,13.88386181640625,1.1166608333587646,0.790000855922699,1.0086140632629395
1725892383781710300,13.90271044921875,1.117577075958252,0.11621702462434769,0.9792925715446472
1725892383800558800,13.921558837890625,0.9037744402885437,0.01359174121171236,1.423391342163086
1725892383819407400,13.940407470703125,1.0540472269058228,0.06001746281981468,1.275256633758545
1725892383838256000,13.959256103515624,1.1352921724319458,0.06276635825634003,0.9175952672958374
1725892383857104400,13.9781044921875,0.8985821008682251,-0.05177079141139984,1.1472804546356201
1725892383875953000,13.996952880859375,0.5097666382789612,-0.09453132748603821,1.1882083415985107
1725892383894801400,14.015801513671875,0.4819723069667816,0.0386371985077858,1.183321475982666
1725892383913650200,14.034650146484376,0.6627882719039917,-0.35445427894592285,0.7951168417930603
1725892383932498700,14.053498779296875,0.5287034511566162,-0.005039634648710489,0.5752055644989014
1725892383951347200,14.07234716796875,0.38789913058280945,-0.03649916872382164,0.32963791489601135
1725892383970195700,14.09119580078125,0.07910698652267456,-0.06734783947467804,0.0709366723895073
1725892383989044200,14.110044189453125,-0.056199558079242706,-0.04169152304530144,-0.17310380935668945
1725892384007892700,14.128892822265625,-0.17348559200763702,0.27290382981300354,-0.4424951672554016
1725892384026741200,14.1477412109375,-0.19425499439239502,0.38957902789115906,-0.5878809690475464
1725892384045589800,14.16658984375,-0.281914085149765,0.13729186356067657,-0.5075522661209106
1725892384064438300,14.185438232421875,-0.2834412455558777,0.05818486958742142,-0.36277732253074646
1725892384083286800,14.204286865234375,-0.20280711352825165,0.28756460547447205,-0.45654505491256714
1725892384102135300,14.22313525390625,-0.14233149588108063,0.36392268538475037,-0.826423704624176
1725892384120983800,14.24198388671875,-0.01802051067352295,0.32818710803985596,-0.8746820092201233
1725892384139832300,14.260832275390625,0.16218459606170654,0.1360701322555542,-0.7137191295623779
1725892384158680800,14.279680908203124,0.17318016290664673,-0.04321868345141411,-0.6834813356399536
1725892384177529300,14.298529296875,-0.000610864779446274,0.2646571695804596,-0.6556869745254517
1725892384196378000,14.317378173828125,-0.06322450190782547,0.20418155193328857,-0.8380300998687744
1725892384215226400,14.336226318359374,-0.16249002516269684,0.25671592354774475,-1.0692424774169922
1725892384234075000,14.355074951171876,-0.16249002516269684,0.27107125520706177,-1.179198145866394
1725892384252923400,14.37392333984375,-0.24037529528141022,0.16508620977401733,-1.3117557764053345
1725892384271772200,14.392772216796875,-0.3634645342826843,0.04016435891389847,-1.3013710975646973
1725892384290620700,14.41162060546875,-0.40378162264823914,0.01359174121171236,-1.353600025177002
1725892384309469000,14.430468994140625,-0.3042106628417969,0.04505127668380737,-1.2558616399765015
1725892384328317700,14.449317626953125,-0.04978547990322113,-0.522442102432251,-1.230816125869751
1725892384347166200,14.468166259765624,0.02107483521103859,-0.301003634929657,-1.151098370552063
1725892384366014700,14.4870146484375,-0.04734202101826668,-0.4494437575340271,-0.9959386587142944
1725892384384863200,14.50586328125,-0.23823726177215576,-0.45097091794013977,-1.0026581287384033
1725892384403711700,14.524711669921874,-0.364991694688797,-0.04321868345141411,-0.9153045415878296
1725892384422560300,14.543560302734376,-0.13011419773101807,-0.6116283535957336,-0.8774309158325195
1725892384441408800,14.56240869140625,-0.1533270627260208,-0.6937896609306335,-1.131550669670105
1725892384460257300,14.58125732421875,-0.43951719999313354,-0.33857181668281555,-1.0054070949554443
1725892384479105800,14.600105712890626,-0.31184646487236023,-0.42623090744018555,-0.9354630708694458
1725892384497954300,14.618954345703125,-0.09865466505289078,-0.6003273725509644,-1.3691771030426025
1725892384516802800,14.637802734375,-0.2098320573568344,-0.7057015299797058,-1.4742457866668701
1725892384535651300,14.6566513671875,-0.44898560643196106,-0.8678861260414124,-1.5228095054626465
1725892384554499800,14.675499755859375,-0.2724456787109375,-0.88285231590271,-1.437593936920166
1725892384573348400,14.694348388671875,-0.23243404924869537,-1.2279908657073975,-1.6541454792022705
1725892384592196900,14.71319677734375,-0.14538581669330597,-1.4763075113296509,-1.5997785329818726
1725892384611045400,14.73204541015625,-0.07116574794054031,-1.6882774829864502,-1.4400373697280884
1725892384629894000,14.750893798828125,-0.06627883017063141,-1.5566362142562866,-1.235092282295227
1725892384648742400,14.769742431640625,0.13958260416984558,-0.5074759125709534,-1.0582468509674072
1725892384667591000,14.7885908203125,0.16187916696071625,-0.2887863218784332,-1.13307785987854
1725892384686439400,14.807439453125,-0.02412915788590908,-0.2796233594417572,-0.9293544292449951
1725892384705288000,14.826287841796875,-0.3283398151397705,0.40057456493377686,-0.8933134078979492
1725892384724136400,14.845136474609374,-0.3020726442337036,0.46654796600341797,-0.917747974395752
1725892384742985000,14.86398486328125,-0.3912588953971863,0.393244206905365,-0.4482983946800232
1725892384761833700,14.882833740234375,-0.3503309488296509,0.60490882396698,-0.19998185336589813
1725892384780682000,14.901681884765624,-0.21899501979351044,0.49312058091163635,-0.18440480530261993
1725892384799530500,14.920530517578126,-0.21288637816905975,0.708145022392273,0.45730865001678467
1725892384818379000,14.93937890625,0.005803215317428112,0.9408844709396362,0.5669588446617126
1725892384837227800,14.958227783203125,0.029932374134659767,0.8559742569923401,0.8262709975242615
1725892384856076000,14.977075927734376,0.15668681263923645,1.2270746231079102,1.2468513250350952
1725892384874924500,14.995924560546875,0.4935787320137024,1.7221804857254028,1.34947669506073
1725892384893773000,15.01477294921875,0.467006117105484,1.4057525396347046,1.5373176336288452
1725892384912621600,15.03362158203125,0.28069236874580383,0.5019781589508057,1.7444007396697998
1725892384931470000,15.052469970703125,0.15790854394435883,-0.25763222575187683,1.4887537956237793
1725892384950318600,15.071318603515625,0.12156209349632263,0.1980729103088379,1.5846595764160156
1725892384969167000,15.0901669921875,0.258395791053772,1.1107048988342285,1.9053635597229004
1725892384988015600,15.109015625,0.6258309483528137,1.3889538049697876,2.01898455619812
1725892385006864100,15.127864013671875,0.89705491065979,1.8034255504608154,2.203465700149536
1725892385025712600,15.146712646484374,1.416595458984375,1.8012875318527222,1.4740930795669556
1725892385044561200,15.16556103515625,1.5094468593597412,1.1436915397644043,1.5012766122817993
1725892385063409700,15.18440966796875,1.166751742362976,0.503810703754425,1.2639555931091309
1725892385082258200,15.203258056640625,1.0818414688110352,-0.004734201822429895,1.014111876487732
1725892385101106700,15.222106689453126,0.9260709881782532,-0.08109229803085327,0.7828995585441589
1725892385119955200,15.240955078125,0.7431169748306274,-0.09330959618091583,1.1610249280929565
1725892385138803700,15.2598037109375,0.7971785664558411,-0.39110618829727173,0.8846085667610168
1725892385157652200,15.27865234375,0.5503891706466675,-0.30802857875823975,1.044960618019104
1725892385176500700,15.297500732421875,0.49082985520362854,-0.30833399295806885,1.2862521409988403
1725892385195349200,15.316349365234375,0.5232056975364685,-0.0010690133785828948,1.3256529569625854
1725892385214197800,15.33519775390625,0.7012727856636047,-0.37461283802986145,1.3555853366851807
1725892385233046500,15.354046630859376,0.7382301092147827,-0.6101012229919434,1.1982876062393188
1725892385251894800,15.372894775390625,0.34147340059280396,-0.11102467030286789,1.1240675449371338
1725892385270743300,15.391743408203125,0.17104214429855347,-0.18066325783729553,0.8794162273406982
1725892385289591800,15.410591796875,0.15638138353824615,-0.28695371747016907,0.5571850538253784
1725892385308440300,15.4294404296875,0.2415970265865326,-0.43050694465637207,0.2508363425731659
1725892385327288800,15.448288818359375,0.0769689604640007,-0.17913609743118286,-0.07353284955024719
1725892385346137300,15.467137451171874,0.038789913058280945,0.20723587274551392,-0.14897464215755463
1725892385364986000,15.485986083984375,-0.023823726922273636,0.11682789027690887,-0.22288928925991058
1725892385383834400,15.50483447265625,-0.053756099194288254,0.191964253783226,-0.32826346158981323
1725892385402683000,15.523682861328124,-0.056810423731803894,-0.13484840095043182,-0.4794524908065796
1725892385421531400,15.542531494140626,-0.15088360011577606,0.064598947763443,-0.4684569239616394
1725892385440380200,15.561380126953125,-0.19853104650974274,-0.17608177661895752,-0.4956403970718384
1725892385459228400,15.580228515625,-0.28924447298049927,0.09636391699314117,-0.5048033595085144
1725892385478077000,15.599076904296876,-0.3078758418560028,0.10705405473709106,-0.49258607625961304
1725892385496925700,15.61792578125,-0.27580544352531433,-0.07101303339004517,-0.5359575152397156
1725892385515774000,15.63677392578125,-0.12095122784376144,0.12293653935194016,-0.325514554977417
1725892385534622500,15.65562255859375,-0.08918625861406326,-0.03375028073787689,-0.34720027446746826
1725892385553471000,15.674470947265625,-0.1539379209280014,0.03375028073787689,-0.5115228891372681
1725892385572319700,15.69331982421875,-0.11362084746360779,-0.07803797721862793,-0.613231897354126
1725892385591168000,15.71216796875,-0.1078176349401474,-0.06734783947467804,-0.8157335519790649
1725892385610016500,15.7310166015625,-0.23823726177215576,0.4195113778114319,-0.7604503035545349
1725892385628865300,15.749865234375,-0.18203771114349365,-0.04993819445371628,-0.6523272395133972
1725892385647713500,15.768713623046875,-0.13988803327083588,-0.4390590488910675,-0.6840922236442566
1725892385666562000,15.78756201171875,-0.30970844626426697,-0.20021092891693115,-0.7103593945503235
1725892385685410600,15.80641064453125,-0.2370155304670334,-0.5441278219223022,-0.8969785571098328
1725892385704259300,15.82525927734375,-0.10751219838857651,-0.4292852282524109,-1.222569465637207
1725892385723107600,15.844107666015624,0.04917461425065994,-0.5245801210403442,-1.5344159603118896
1725892385741956000,15.8629560546875,0.022296564653515816,-0.8364266157150269,-1.7549381256103516
1725892385760804900,15.881804931640625,-0.370184063911438,-0.5719221234321594,-1.659643292427063
1725892385779653000,15.900653076171874,-0.6676751971244812,-0.2689332067966461,-1.344131588935852
1725892385798501600,15.919501708984376,-0.4557051360607147,-0.6858484148979187,-1.2665517330169678
1725892385817350100,15.93835009765625,-0.24251331388950348,-0.6479747891426086,-1.2567778825759888
1725892385836198700,15.95719873046875,-0.33628106117248535,-0.8370374441146851,-0.8652135729789734
1725892385855047200,15.976047119140626,-0.47494736313819885,-0.7903063297271729,-0.8407790064811707
1725892385873895700,15.994895751953125,-0.5564978122711182,-0.512668251991272,-0.6743183732032776
1725892385892744200,16.013744140625,-0.2919933497905731,-0.838259220123291,-0.8426116108894348
1725892385911592700,16.0325927734375,-0.49418962001800537,-1.3034327030181885,-1.0057125091552734
1725892385930441200,16.051441162109374,-0.7229584455490112,-0.949436604976654,-0.6953932046890259
1725892385949289700,16.070289794921877,-0.5067123174667358,-0.892626166343689,-0.8123738169670105
1725892385968138200,16.08913818359375,-0.4471530318260193,-0.8074105381965637,-1.2448660135269165
1725892385986986800,16.10798681640625,-0.4272999167442322,-0.5328267812728882,-1.3120611906051636
1725892386005835300,16.126835205078127,-0.46486809849739075,-0.7142536640167236,-1.3700933456420898
1725892386024683800,16.145683837890626,-0.5393936038017273,-0.4021017551422119,-1.1590396165847778
1725892386043532300,16.1645322265625,-0.5039634704589844,0.07803797721862793,-0.9983821511268616
1725892386062380800,16.183380859375,-0.4202749729156494,-0.05940660089254379,-1.0942878723144531
1725892386081229300,16.202229248046876,-0.4868592321872711,0.0007635809597559273,-0.8713222742080688
1725892386100077800,16.221077880859376,-0.5079340934753418,0.17608177661895752,-0.7421243786811829
1725892386118926300,16.23992626953125,-0.5516108870506287,0.4017963111400604,-0.586048424243927
1725892386137774800,16.25877490234375,-0.4105011224746704,0.42684176564216614,-0.35330891609191895
1725892386156623400,16.277623291015626,-0.37323838472366333,0.43600472807884216,-0.08483384549617767
1725892386175471900,16.296471923828125,-0.26542073488235474,0.393244206905365,0.21265730261802673
1725892386194320400,16.3153203125,-0.16035200655460358,0.40607234835624695,0.3320813775062561
1725892386213169000,16.3341689453125,-0.06200277432799339,0.6944005489349365,0.5913934707641602
1725892386232017400,16.353017333984376,-0.032681263983249664,0.6794343590736389,0.747469425201416
1725892386250866000,16.371865966796875,-0.2574795186519623,0.753654420375824,1.1182643175125122
1725892386269714400,16.39071435546875,-0.23976442217826843,0.8373429179191589,1.3323724269866943
1725892386288563000,16.40956298828125,-0.13530655205249786,1.3779581785202026,1.4911972284317017
1725892386307411500,16.428411376953125,0.14752385020256042,2.056934356689453,1.7022510766983032
1725892386326260000,16.447260009765625,0.19822561740875244,1.9255985021591187,1.996382474899292
1725892386345108500,16.4661083984375,0.1438586562871933,1.7304271459579468,2.219959020614624
1725892386363957000,16.48495703125,0.40225446224212646,1.3474149703979492,1.800905704498291
1725892386382805200,16.50380517578125,0.5119046568870544,1.096960425376892,1.7819689512252808
1725892386401654000,16.522654052734374,0.7104357481002808,0.9378301501274109,1.6744567155838013
1725892386420502500,16.54150244140625,0.9111047983169556,0.6513345837593079,1.365053653717041
1725892386439350800,16.560350830078125,0.9550870656967163,0.5071704983711243,1.4991384744644165
1725892386458199600,16.579199462890625,1.0739002227783203,0.25641047954559326,1.2996912002563477
1725892386477048000,16.598048095703124,1.0424407720565796,0.35445427894592285,1.1973713636398315
1725892386495896300,16.616896240234375,1.1209368705749512,0.12446369975805283,1.1616357564926147
1725892386514744800,16.635744873046875,1.2290599346160889,-0.016646064817905426,1.1014655828475952
1725892386533593300,16.65459326171875,1.1505638360977173,0.2787070572376251,1.3247365951538086
1725892386552441900,16.67344189453125,1.1523964405059814,-0.08292489498853683,1.0458768606185913
1725892386571290400,16.692290283203125,0.813671886920929,-0.08109229803085327,1.126205563545227
1725892386590139000,16.711138916015624,0.6914989352226257,-0.005955931730568409,1.1210132837295532
1725892386608987400,16.7299873046875,0.7987056970596313,-0.17852523922920227,0.9258419275283813
1725892386627836000,16.7488359375,0.6542361974716187,0.09239330142736435,0.9249256253242493
1725892386646684400,16.767684326171874,0.5980366468429565,-0.23105959594249725,0.7990874648094177
1725892386665533000,16.786532958984374,0.370184063911438,-0.1571449637413025,0.5535198450088501
1725892386684381400,16.80538134765625,0.29565855860710144,0.036804601550102234,0.4447859227657318
1725892386703230000,16.82422998046875,0.3017672002315521,-0.35384342074394226,0.15706861019134521
1725892386722078500,16.843078369140624,0.018325943499803543,-0.019700389355421066,0.046196650713682175
1725892386740927000,16.861927001953124,-0.14202606678009033,0.09147699922323227,-0.05001455545425415
1725892386759775500,16.880775390625,-0.26939135789871216,0.23167046904563904,-0.28061601519584656
1725892386778624000,16.8996240234375,-0.3139844834804535,0.22006404399871826,-0.2784779667854309
1725892386797472500,16.918472412109374,-0.33689191937446594,-0.05787943676114082,-0.283975750207901
1725892386816321000,16.937321044921877,-0.41233372688293457,0.41187557578086853,-0.42080947756767273
1725892386835169500,16.95616943359375,-0.2730565667152405,-0.07162389904260635,-0.5570323467254639
1725892386854018000,16.97501806640625,-0.16340632736682892,-0.18616104125976562,-0.6004037261009216
1725892386872866300,16.9938662109375,-0.10018182545900345,0.058795735239982605,-0.5194641351699829
1725892386891715000,17.012715087890626,-0.10018182545900345,-0.2942841053009033,-0.6788998246192932
1725892386910563600,17.0315634765625,-0.20311254262924194,0.023976443335413933,-0.677678108215332
1725892386929411800,17.050411865234373,0.03695731982588768,-0.14889828860759735,-0.742429792881012
1725892386948260400,17.06926025390625,0.10720676928758621,-0.04260781779885292,-0.919275164604187
1725892386967108900,17.08810888671875,0.06780599057674408,0.04474584385752678,-0.8013782501220703
1725892386985957400,17.106957275390624,0.06994401663541794,-0.12293653935194016,-0.9189696907997131
1725892387004806000,17.125805908203127,0.061391908675432205,0.19593487679958344,-1.0411427021026611
1725892387023654400,17.144654296875,0.19089524447917938,-0.33001968264579773,-1.12055504322052
1725892387042503000,17.1635029296875,0.1328630894422531,-0.1623373180627823,-0.9339358806610107
1725892387061351400,17.182351318359373,0.12431098520755768,-0.25641047954559326,-0.8853721618652344
1725892387080200000,17.201199951171876,0.08002328872680664,-0.20082180202007294,-1.0735185146331787
1725892387099048400,17.22004833984375,0.12247838824987411,-0.18493930995464325,-1.05733060836792
1725892387117897000,17.23889697265625,0.17287473380565643,-0.21639885008335114,-0.9400445222854614
1725892387136745500,17.257745361328126,0.10109812021255493,0.02916879393160343,-0.9033926725387573
1725892387155594000,17.276593994140626,0.07086031138896942,-0.33429574966430664,-0.6941714882850647
1725892387174442200,17.295442138671874,-0.06230820715427399,-0.393244206905365,-0.546953022480011
1725892387193291000,17.314291015625,-0.20433427393436432,0.01695149764418602,-0.4235583543777466
1725892387212139500,17.333139404296876,-0.04459312930703163,-0.539851725101471,-0.3392590284347534
1725892387230987800,17.35198779296875,-0.21685700118541718,-0.7484620809555054,-0.6346121430397034
1725892387249836300,17.370836181640627,-0.6893609166145325,-0.5233584046363831,-0.65935218334198
1725892387268684800,17.389684814453126,-0.648127555847168,-0.7457131743431091,-0.5182424187660217
1725892387287533300,17.408533203125,-0.4156934916973114,-1.0816887617111206,-0.8474985361099243
1725892387306381800,17.4273818359375,-0.31551164388656616,-1.011439323425293,-0.9641736745834351
1725892387325230300,17.446230224609376,-0.2919933497905731,-0.7338013052940369,-0.8358920812606812
1725892387344078800,17.465078857421876,-0.2360992431640625,-0.5847502946853638,-0.8545234799385071
1725892387362927400,17.48392724609375,-0.25350889563560486,-0.651639997959137,-1.0432807207107544
1725892387381776000,17.50277587890625,-0.4257727563381195,-0.7686206102371216,-1.1651482582092285
1725892387400624400,17.521624267578126,-0.5338957905769348,-0.5300779342651367,-1.0970368385314941
1725892387419472600,17.54047265625,-0.4272999167442322,-0.5893318057060242,-1.065882682800293
1725892387438321400,17.5593212890625,-0.29474225640296936,-0.8373429179191589,-1.1904990673065186
1725892387457170000,17.578169921875,-0.4425715208053589,-0.5206094980239868,-0.9711986184120178
1725892387476018200,17.59701806640625,-0.3943132162094116,-0.012980876490473747,-0.8416953086853027
1725892387494867000,17.615866943359375,-0.39675667881965637,-0.22983787953853607,-0.8685733675956726
1725892387513715200,17.634715087890626,-0.43829548358917236,-0.3761399984359741,-0.7305179238319397
1725892387532563700,17.653563720703126,-0.42088583111763,-0.16905683279037476,-0.5497019290924072
1725892387551412200,17.672412109375,-0.30543237924575806,0.13454297184944153,-0.6055960655212402
1725892387570260700,17.6912607421875,-0.22327107191085815,0.2854265570640564,-0.4876991808414459
1725892387589109200,17.710109130859376,-0.4202749729156494,0.4796815812587738,-0.2690095901489258
1725892387607957800,17.728957763671875,-0.48960810899734497,0.23014330863952637,-0.284586638212204
1725892387626806300,17.74780615234375,-0.3646862804889679,0.2753472924232483,0.02695440873503685
1725892387645654800,17.76665478515625,-0.1334739476442337,0.49770209193229675,0.2920697331428528
1725892387664503300,17.78550341796875,-0.24556763470172882,0.4072940945625305,0.3488801419734955
1725892387683351800,17.804351806640625,-0.38698282837867737,0.3938550651073456,0.7841212749481201
1725892387702200000,17.823199951171876,-0.31673339009284973,0.6345357894897461,0.9805143475532532
1725892387721048600,17.842048583984376,-0.1744018942117691,1.0563379526138306,1.1005492210388184
1725892387739897000,17.86089697265625,-0.14233149588108063,1.3147337436676025,1.3561961650848389
1725892387758745600,17.87974560546875,-0.11423171311616898,1.5315907001495361,1.5742748975753784
1725892387777594000,17.898593994140626,-0.11667517572641373,1.4081960916519165,1.7651700973510742
1725892387796442600,17.917442626953125,-0.11667517572641373,1.30923593044281,1.8986440896987915
1725892387815291100,17.936291015625,0.12522727251052856,1.4408773183822632,1.84855318069458
1725892387834139600,17.9551396484375,0.2098320573568344,1.3312270641326904,1.9136103391647339
1725892387852988200,17.97398828125,0.4050033390522003,1.1122320890426636,1.9023092985153198
1725892387871836400,17.99283642578125,0.6560688018798828,0.31352636218070984,1.6158137321472168
1725892387890685000,18.011684814453126,0.5745183229446411,0.44761115312576294,1.626503825187683
1725892387909533400,18.030533447265626,0.8350521326065063,0.36483898758888245,1.4731767177581787
1725892387928382000,18.0493818359375,1.1307107210159302,0.03527744114398956,1.2208895683288574
1725892387947230500,18.06823046875,1.26021409034729,0.24541492760181427,1.2633447647094727
1725892387966079000,18.087078857421876,1.534186840057373,-0.3416261374950409,1.0849722623825073
1725892387984927500,18.105927490234375,1.3548980951309204,0.14462223649024963,1.004338026046753
1725892388003776000,18.12477587890625,1.266017198562622,0.34406960010528564,1.127121925354004
1725892388022624500,18.14362451171875,1.1142174005508423,-0.5025889873504639,0.8604794144630432
1725892388041473000,18.16247314453125,0.5852084755897522,-0.02825249545276165,1.1011601686477661
1725892388060321300,18.1813212890625,0.684473991394043,-0.22159120440483093,1.0568723678588867
1725892388079170000,18.200170166015624,0.8643736839294434,-0.2551887631416321,0.7960331439971924
1725892388098018300,18.219018310546875,0.758694052696228,-0.05940660089254379,0.9957859516143799
1725892388116866800,18.23786669921875,0.43829548358917236,-0.5258018374443054,0.8659771680831909
1725892388135715300,18.25671533203125,0.19394956529140472,0.1000291109085083,0.8913280963897705
1725892388154563800,18.275563720703126,0.24404047429561615,-0.6339249014854431,0.6549233794212341
1725892388173412400,18.294412353515625,0.23732095956802368,-0.20662501454353333,0.40569058060646057
1725892388192260900,18.3132607421875,0.19700388610363007,-0.49250972270965576,0.41149377822875977
1725892388211109400,18.332109375,-0.15668681263923645,-0.3764454126358032,0.06879864633083344
1725892388229957600,18.35095751953125,-0.2611446976661682,-0.11285726726055145,-0.1706603467464447
1725892388248806400,18.369806396484375,-0.3283398151397705,-0.18066325783729553,-0.3410916328430176
1725892388267654700,18.388654541015626,-0.30451610684394836,0.360868364572525,-0.33681556582450867
1725892388286503200,18.407503173828125,-0.19944734871387482,-0.10613775253295898,-0.35819584131240845
1725892388305351700,18.4263515625,-0.3231474757194519,0.05329795181751251,-0.40981391072273254
1725892388324200200,18.4452001953125,-0.2562577724456787,-0.03405570983886719,-0.4006509482860565
1725892388343048700,18.464048583984376,-0.3271180987358093,-0.09728021919727325,-0.6037634611129761
1725892388361897200,18.482897216796875,-0.3955349326133728,0.09269873052835464,-0.7231875658035278
1725892388380745700,18.501745849609375,-0.29565855860710144,-0.34895649552345276,-0.7604503035545349
1725892388399594000,18.520593994140626,-0.38759371638298035,0.13393209874629974,-0.6941714882850647
1725892388418442800,18.53944287109375,-0.28527384996414185,0.2857320010662079,-0.5805506110191345
1725892388437291000,18.558291015625,-0.4309650957584381,-0.05299251899123192,-0.7778599262237549
1725892388456139500,18.577139404296876,-0.5287034511566162,-0.0001527161948615685,-0.8209258913993835
1725892388474988000,18.595988037109375,-0.2861901521682739,0.12415826320648193,-0.7836631536483765
1725892388493836500,18.61483642578125,-0.10079269111156464,0.08414662629365921,-0.7552579641342163
1725892388512685000,18.63368505859375,-0.14691297709941864,-0.17027856409549713,-0.8294780254364014
1725892388531533600,18.652533447265625,-0.40775224566459656,0.10858121514320374,-0.954094409942627
1725892388550382000,18.671382080078125,-0.42424559593200684,0.12476912885904312,-0.9849430918693542
1725892388569230600,18.690230712890624,-0.5210676789283752,0.20937390625476837,-0.8569669127464294
1725892388588078800,18.709078857421876,-0.4883863925933838,-0.1617264449596405,-0.7552579641342163
1725892388606927400,18.72792724609375,-0.2156352698802948,-0.5548179149627686,-1.0316742658615112
1725892388625775900,18.74677587890625,-0.20189081132411957,-0.33276858925819397,-0.9623411297798157
1725892388644624400,18.765624267578126,-0.07147117704153061,-0.8623883724212646,-0.9996038675308228
1725892388663473000,18.784472900390625,-0.364991694688797,-0.47143489122390747,-1.1153627634048462
1725892388682321400,18.8033212890625,-0.36804601550102234,-0.5523744821548462,-0.9650899767875671
1725892388701170000,18.822169921875,-0.2938259541988373,-0.9986112117767334,-1.0579414367675781
1725892388720018200,18.84101806640625,-0.41447174549102783,-0.8403972387313843,-0.9183588624000549
1725892388738867000,18.859866943359375,-0.10567960888147354,-0.5520690679550171,-0.6700422763824463
1725892388757715200,18.878715087890626,0.014660755172371864,-0.48365217447280884,-1.0765727758407593
1725892388776563700,18.897563720703126,-0.2861901521682739,-0.9347758293151855,-1.335884928703308
1725892388795412200,18.916412109375,-0.4871646761894226,-1.1702642440795898,-1.0942878723144531
1725892388814260700,18.9352607421875,-0.30970844626426697,-1.0471749305725098,-1.0243438482284546
1725892388833109200,18.954109130859376,-0.2816086709499359,-0.7820596098899841,-1.0835977792739868
1725892388851957800,18.972957763671875,-0.24434591829776764,-1.0080796480178833,-1.3450478315353394
1725892388870806000,18.991805908203126,-0.31612253189086914,-0.9149227142333984,-1.2265400886535645
1725892388889654500,19.010654541015626,-0.3402516841888428,-0.6372846961021423,-1.1740057468414307
1725892388908503000,19.0295029296875,-0.3173442482948303,-0.5798633694648743,-1.204243540763855
1725892388927351600,19.0483515625,-0.281914085149765,-0.12476912885904312,-0.9415717124938965
1725892388946200000,19.067199951171876,-0.43951719999313354,0.1568395346403122,-0.7686969637870789
1725892388965048600,19.086048583984375,-0.4572322964668274,0.25610506534576416,-0.7451786994934082
1725892388983897000,19.10489697265625,-0.5671879649162292,0.0062613640911877155,-0.6898953914642334
1725892389002745300,19.123745361328126,-0.2922987937927246,0.443945974111557,-0.4855611324310303
1725892389021593900,19.14259375,-0.11087195575237274,0.43692103028297424,-0.40004006028175354
1725892389040442400,19.1614423828125,-0.08888082206249237,0.6195695996284485,0.059024810791015625
1725892389059291000,19.180290771484376,-0.08674279600381851,0.3975202441215515,0.07215840369462967
1725892389078139400,19.199139404296876,-0.1331685185432434,0.5358811020851135,0.4246273934841156
1725892389096988000,19.21798779296875,0.017104214057326317,0.6317868828773499,0.6860775351524353
1725892389115836400,19.23683642578125,-0.009773836471140385,0.819322407245636,1.0138064622879028
1725892389134684700,19.2556845703125,0.061391908675432205,0.9069814682006836,1.3085486888885498
1725892389153533200,19.274533203125,0.022296564653515816,1.1837031841278076,1.664072036743164
1725892389172381700,19.293381591796877,0.25473061203956604,1.458287000656128,1.7951024770736694
1725892389191230200,19.312230224609376,0.374765545129776,1.297629475593567,2.0626611709594727
1725892389210078700,19.33107861328125,0.38698282837867737,0.9066760540008545,2.2300381660461426
1725892389228927200,19.34992724609375,0.4251618981361389,0.633619487285614,2.023871421813965
1725892389247775700,19.368775634765626,0.546113133430481,0.43203410506248474,1.7941862344741821
1725892389266624000,19.3876240234375,0.5894845128059387,0.4766272306442261,1.8897866010665894
1725892389285472500,19.406472412109373,0.7663298845291138,0.5300779342651367,1.644218921661377
1725892389304321000,19.425321044921876,1.0684025287628174,0.3092502951622009,1.3433680534362793
1725892389323169500,19.44416943359375,0.9914335608482361,0.13515383005142212,1.5406773090362549
1725892389342018000,19.46301806640625,0.8552106618881226,0.1363755613565445,1.5623630285263062
1725892389360866600,19.481866455078126,1.125823736190796,-0.19349141418933868,1.1927897930145264
1725892389379715000,19.500715087890626,1.2547162771224976,0.04932733252644539,1.117653489112854
1725892389398563600,19.5195634765625,1.0445787906646729,-0.0844520553946495,1.2993857860565186
1725892389417411800,19.538411865234377,0.8552106618881226,-0.04046979174017906,1.3125193119049072
1725892389436260400,19.55726025390625,0.7562506198883057,-0.21059563755989075,1.2975531816482544
1725892389455108900,19.57610888671875,0.4874700903892517,-0.22983787953853607,1.0119738578796387
1725892389473957400,19.594957275390627,0.39309149980545044,0.12935061752796173,1.1680498123168945
1725892389492806000,19.613805908203126,0.36835145950317383,-0.5196931958198547,1.1121556758880615
1725892389511654400,19.632654296875,0.3640754222869873,-0.03802633285522461,1.0663408041000366
1725892389530502700,19.651502685546873,0.5302306413650513,-0.07498364895582199,0.959744930267334
1725892389549351200,19.67035107421875,0.44990190863609314,-0.5569559335708618,0.5419133901596069
1725892389568199700,19.68919970703125,-0.06108647957444191,-0.1259908676147461,0.2716057598590851
1725892389587048200,19.708048095703123,-0.31581708788871765,0.01847865991294384,0.091400645673275
1725892389605896700,19.726896728515626,-0.4276053309440613,0.17302745580673218,-0.1407279670238495
1725892389624745200,19.7457451171875,-0.5204567909240723,0.2176205813884735,-0.45654505491256714
1725892389643593500,19.764593505859374,-0.535728394985199,0.3006981909275055,-0.4730384051799774
1725892389662442000,19.78344189453125,-0.38759371638298035,0.2130390852689743,-0.34658941626548767
1725892389681290500,19.80229052734375,-0.2974911332130432,-0.08261945843696594,-0.3707185685634613
1725892389700139000,19.821138916015624,-0.2724456787109375,-0.10308343172073364,-0.35758498311042786
1725892389718987500,19.839987548828127,-0.21807873249053955,-0.16294817626476288,-0.3969857394695282
1725892389737836000,19.8588359375,-0.2715294063091278,0.031001387163996696,-0.5252673625946045
1725892389756684500,19.8776845703125,-0.20891575515270233,0.32910341024398804,-0.519769549369812
1725892389775532800,19.89653271484375,-0.13622283935546875,-0.10827577859163284,-0.6272817850112915
1725892389794381300,19.91538134765625,-0.389120876789093,0.388051837682724,-0.6220894455909729
1725892389813229800,19.934229736328124,-0.43463030457496643,0.6171261668205261,-0.6712640523910522
1725892389832078300,19.953078369140623,-0.26389357447624207,0.2909243404865265,-0.8120683431625366
1725892389850926800,19.9719267578125,-0.1948658674955368,0.05513054504990578,-1.0176243782043457
1725892389869775400,19.990775390625,-0.3796524703502655,0.3309359848499298,-1.0967313051223755
1725892389888623600,20.00962353515625,-0.4535670876502991,0.023365577682852745,-1.3096177577972412
1725892389907472100,20.02847216796875,-0.4572322964668274,0.32330018281936646,-1.1339941024780273
1725892389926320600,20.047320556640624,-0.10690133273601532,-0.305585116147995,-1.149876594543457
1725892389945169200,20.066169189453124,-0.01740964688360691,-0.26160284876823425,-1.3178644180297852
1725892389964017700,20.085017578125,-0.1740964651107788,-0.23503021895885468,-1.268384337425232
1725892389982866200,20.1038662109375,-0.37171122431755066,-0.3767508566379547,-1.314504623413086
1725892390001714400,20.12271435546875,-0.5568032264709473,-0.39538222551345825,-1.323056697845459
1725892390020563000,20.14156298828125,-0.4783071279525757,-0.9699005484580994,-1.3502402305603027
1725892390039411500,20.160411376953125,-0.3894262909889221,-1.0102176666259766,-1.383226990699768
1725892390058260000,20.179260009765624,-0.35216355323791504,-0.8852958083152771,-1.2732713222503662
1725892390077108500,20.1981083984375,-0.28405213356018066,-1.124449372291565,-1.5615994930267334
1725892390095957000,20.21695703125,-0.44348782300949097,-1.0936006307601929,-1.4214060306549072
1725892390114805200,20.23580517578125,-0.46944957971572876,-1.2539526224136353,-1.563126564025879
1725892390133653800,20.25465380859375,-0.6209440231323242,-1.1546871662139893,-1.4235440492630005
1725892390152502300,20.273502197265625,-0.41294458508491516,-1.0206023454666138,-1.5325833559036255
1725892390171350800,20.292350830078124,-0.37171122431755066,-0.8477275967597961,-1.5502984523773193
1725892390190199300,20.31119921875,-0.5103775262832642,-0.947909414768219,-1.630627155303955
1725892390209047800,20.3300478515625,-0.5977311730384827,-0.434783011674881,-1.1239148378372192
1725892390227896300,20.348896240234374,-0.4007273018360138,0.18860450387001038,-0.9922734498977661
1725892390246744600,20.36774462890625,-0.22449280321598053,0.36972591280937195,-0.917747974395752
1725892390265593000,20.386593017578125,-0.21197007596492767,0.3318522870540619,-0.6630173325538635
1725892390284441600,20.405441650390625,-0.21960589289665222,0.4240928590297699,-0.4324159026145935
1725892390303290000,20.4242900390625,-0.40286532044410706,0.3920224606990814,-0.34872743487358093
1725892390322138400,20.443138427734375,-0.29901832342147827,0.44211336970329285,-0.08636100590229034
1725892390340987100,20.461987060546875,-0.22785256803035736,0.6027708053588867,0.04130972921848297
1725892390359835400,20.48083544921875,-0.08460476994514465,0.6125446557998657,0.35559967160224915
1725892390378684000,20.499683837890625,0.07024945318698883,0.7163916826248169,0.6668352484703064
1725892390397532400,20.518532470703125,0.26022839546203613,0.8520036339759827,0.9377537965774536
1725892390416381000,20.537380859375,0.22296564280986786,0.7554870247840881,1.1604139804840088
1725892390435229400,20.5562294921875,0.34574946761131287,0.8144354820251465,1.415450096130371
1725892390454077700,20.57507763671875,0.5393936038017273,1.019685983657837,1.451796531677246
1725892390472926200,20.59392626953125,0.6765327453613281,1.1140646934509277,1.3916263580322266
1725892390491774700,20.612774658203126,0.5241219997406006,0.9949460029602051,1.8057926893234253
1725892390510623200,20.631623291015625,0.5714640021324158,0.836121141910553,1.8916192054748535
1725892390529471500,20.650471435546876,0.6695078015327454,0.7970257997512817,1.7211878299713135
1725892390548320300,20.6693203125,0.5830704569816589,0.9308052062988281,1.8415281772613525
1725892390567168500,20.68816845703125,0.7816014885902405,0.8553634285926819,1.7059162855148315
1725892390586017000,20.70701708984375,1.018311619758606,0.5157225728034973,1.9071961641311646
1725892390604865500,20.725865478515626,0.9669989347457886,0.43111783266067505,1.7605886459350586
1725892390623714000,20.744714111328125,0.7794634699821472,0.32360562682151794,1.6854523420333862
1725892390642562600,20.7635625,0.8918625712394714,0.14859285950660706,1.5278491973876953
1725892390661410800,20.782410888671876,0.8625410795211792,0.04474584385752678,1.7966296672821045
1725892390680259300,20.80125927734375,0.9569196701049805,-0.20906847715377808,1.5840487480163574
1725892390699107800,20.82010791015625,1.0931425094604492,0.15897755324840546,1.5837433338165283
1725892390717956400,20.838956298828126,1.239444613456726,-0.38591381907463074,1.3003020286560059
1725892390736804900,20.857804931640626,0.8701768517494202,0.2591593861579895,1.2334123849868774
1725892390755653400,20.8766533203125,0.9572250843048096,0.15592323243618011,1.2911391258239746
1725892390774501600,20.895501708984376,0.7657189965248108,-0.10461059212684631,0.949971079826355
1725892390793350100,20.91435009765625,0.4682278633117676,0.027947064489126205,0.9615775346755981
1725892390812198700,20.93319873046875,0.2974911332130432,-0.11194097250699997,0.7987820506095886
1725892390831047200,20.952047119140627,0.14752385020256042,-0.02977965772151947,0.385532021522522
1725892390849895700,20.970895751953126,0.0769689604640007,0.16019928455352783,0.38644832372665405
1725892390868744000,20.989743896484374,0.05864302068948746,-0.1363755613565445,0.18577924370765686
1725892390887592400,21.008592529296877,-0.15027274191379547,0.007788525894284248,-0.08788817375898361
1725892390906441000,21.02744091796875,-0.15241076052188873,0.28206682205200195,-0.25587597489356995
1725892390925289500,21.04628955078125,-0.16065743565559387,0.27259841561317444,-0.4330267608165741
1725892390944138000,21.065137939453123,-0.10720676928758621,0.32849252223968506,-0.441884309053421
1725892390962986500,21.083986572265626,-0.08888082206249237,0.01695149764418602,-0.47181668877601624
1725892390981834800,21.102834716796874,-0.20738859474658966,0.18096868693828583,-0.5350412130355835
1725892391000683300,21.121683349609373,-0.24923282861709595,0.11346813291311264,-0.6856193542480469
1725892391019531800,21.14053173828125,-0.3756818473339081,0.35934120416641235,-0.8478039503097534
1725892391038380300,21.15938037109375,-0.2306014597415924,0.10919208079576492,-0.9773072600364685
1725892391057228800,21.178228759765624,-0.3695732057094574,0.1876882016658783,-1.0964258909225464
1725892391076077000,21.1970771484375,-0.45906487107276917,0.48914995789527893,-1.102229118347168
1725892391094925600,21.215925537109374,-0.45448338985443115,-0.09422589093446732,-1.3096177577972412
1725892391113774000,21.234774169921874,-0.3894262909889221,-0.11774418503046036,-1.289764642715454
1725892391132622600,21.25362255859375,-0.3451386094093323,-0.16386447846889496,-1.243338942527771
1725892391151471000,21.27247119140625,-0.22479823231697083,-0.24113887548446655,-1.4015529155731201
1725892391170319600,21.291319580078124,-0.28008151054382324,-0.02214384824037552,-1.2757147550582886
1725892391189167900,21.31016796875,-0.06536252796649933,-0.4247037470340729,-1.2402845621109009
1725892391208016400,21.329016357421875,-0.15118902921676636,-0.33948808908462524,-1.4091887474060059
1725892391226865000,21.347864990234374,-0.3179551064968109,-0.44730573892593384,-1.378645420074463
1725892391245713400,21.36671337890625,-0.37659814953804016,-0.7735075354576111,-1.3013710975646973
1725892391264562000,21.38556201171875,-0.2968802750110626,-0.7893900275230408,-1.2848776578903198
1725892391283410200,21.40441015625,-0.19792018830776215,-1.1259765625,-1.3096177577972412
1725892391302258700,21.4232587890625,-0.1893680840730667,-1.225547432899475,-1.4036909341812134
1725892391321107200,21.442107177734375,-0.2974911332130432,-1.3681844472885132,-1.5808416604995728
1725892391339955700,21.460955810546874,-0.4428769648075104,-1.3315324783325195,-1.5664863586425781
1725892391358804200,21.47980419921875,-0.24312418699264526,-1.0581705570220947,-1.3649009466171265
1725892391377652500,21.498652587890625,-0.21655155718326569,-0.883768618106842,-1.5026509761810303
1725892391396501000,21.5175009765625,-0.46364638209342957,-0.8217658400535583,-1.7188971042633057
1725892391415349500,21.536349609375,-0.6869174242019653,-0.9216422438621521,-1.4956260919570923
1725892391434198000,21.555197998046875,-0.5549706816673279,-0.5835285782814026,-1.5191442966461182
1725892391453046500,21.574046630859375,-0.5977311730384827,-0.028557928279042244,-1.0332014560699463
1725892391471894800,21.592894775390626,-0.4862483739852905,-0.04841103404760361,-0.8126792311668396
1725892391490743300,21.611743408203125,-0.5015199780464172,0.21090106666088104,-0.432721346616745
1725892391509591800,21.630591796875,-0.5974257588386536,0.11591159552335739,-0.3404807448387146
1725892391528440300,21.6494404296875,-0.5968148708343506,0.3422369956970215,0.10545053333044052
1725892391547288600,21.66828857421875,-0.5571087002754211,0.48853909969329834,0.18028147518634796
1725892391566137300,21.687137451171875,-0.4321868419647217,0.2341139316558838,0.21265730261802673
1725892391584985600,21.705985595703126,-0.18081597983837128,0.5795579552650452,0.5635991096496582
1725892391603834000,21.724834228515626,-0.17776164412498474,0.8199332356452942,0.6057487726211548
1725892391622682600,21.7436826171875,-0.23762640357017517,0.40057456493377686,0.43715012073516846
1725892391641531000,21.76253076171875,-0.3686569035053253,0.10674861818552017,0.7047088742256165
1725892391660379600,21.781379638671876,-0.048563748598098755,0.6235402226448059,1.155527114868164
1725892391679228000,21.800227783203123,0.23487751185894012,0.9805907011032104,1.0248019695281982
1725892391698076400,21.819076416015626,0.2919933497905731,1.492189884185791,1.5134938955307007
1725892391716925000,21.837925048828126,0.5418370366096497,1.1238384246826172,1.6060398817062378
1725892391735773200,21.856773193359373,0.38789913058280945,0.801301896572113,1.7401247024536133
1725892391754621700,21.87562158203125,0.31062474846839905,0.8397863507270813,1.9676718711853027
1725892391773470200,21.89447021484375,0.8503237962722778,1.1653772592544556,1.5086069107055664
1725892391792318700,21.913318603515624,0.8197805285453796,1.3443607091903687,1.7578397989273071
1725892391811167200,21.932167236328127,0.8659008145332336,1.3278672695159912,1.9743913412094116
1725892391830015500,21.951015380859374,1.2458586692810059,0.4234820008277893,2.0791547298431396
1725892391848864000,21.969864013671874,1.370169758796692,0.20906847715377808,1.5021928548812866
1725892391867712500,21.98871240234375,1.092226266860962,0.6027708053588867,1.6585742235183716
1725892391886561000,22.00756103515625,1.0213658809661865,0.08170316368341446,1.8018220663070679
1725892391905409500,22.026409423828124,0.6056724190711975,-0.4027126133441925,1.6207005977630615
1725892391924257800,22.0452578125,0.25411975383758545,0.08903354406356812,1.5916845798492432
1725892391943106300,22.064106201171874,0.09040798991918564,0.39507678151130676,1.3112976551055908
1725892391961954800,22.082954833984374,0.2868010103702545,0.45799586176872253,1.38429594039917
1725892391980803300,22.10180322265625,0.7913753390312195,-0.12690715491771698,1.4172827005386353
1725892391999651800,22.12065185546875,1.1465932130813599,-0.35995206236839294,1.0370193719863892
1725892392018500000,22.1395,0.43401941657066345,0.11835505068302155,0.6094139814376831
1725892392037348600,22.1583486328125,0.41263917088508606,0.35017824172973633,0.5122864842414856
1725892392056197000,22.177197021484375,0.4676169753074646,0.0038179049734026194,0.3006218373775482
1725892392075045600,22.196045654296874,0.4917461574077606,0.2383899837732315,0.23678645491600037
1725892392093894000,22.214893798828125,0.24342961609363556,-0.022754713892936707,0.01107192412018776
1725892392143357200,22.264357177734375,-0.2571740746498108,0.33399030566215515,-0.6627119183540344
1725892392162205700,22.283205810546875,-0.6108647584915161,0.3565923273563385,-0.9571487307548523
1725892392181054000,22.302053955078126,-0.6322450637817383,0.2503018379211426,-1.370704174041748
1725892392199902500,22.32090234375,-0.5907062292098999,0.6644681692123413,-1.1941642761230469
1725892392218751000,22.3397509765625,-0.2779434621334076,0.342542439699173,-0.8923971056938171
1725892392237599500,22.358599609375,-0.09162971377372742,-0.18890993297100067,-0.6285035014152527
1725892392256447700,22.37744775390625,0.03909534588456154,-0.4607447683811188,-0.6364447474479675
1725892392275296300,22.396296142578127,-0.017104214057326317,-0.21151192486286163,-0.8679624795913696
1725892392294144800,22.415144775390626,-0.08674279600381851,-0.016035201027989388,-0.8728494048118591
1725892392312993300,22.4339931640625,0.006719512399286032,-0.15531237423419952,-0.9583705067634583
1725892392331841500,22.452841552734377,0.12767073512077332,0.03222311660647392,-1.0402263402938843
1725892392350690000,22.47168994140625,0.18325942754745483,-0.09422589093446732,-1.2069923877716064
1725892392369538600,22.49053857421875,0.013439024798572063,-0.11316270381212234,-1.3316088914871216
1725892392388387000,22.509386962890623,-0.18081597983837128,-0.5719221234321594,-1.4507274627685547
1725892392407235600,22.528235595703126,-0.7128791809082031,-0.34956738352775574,-1.620547890663147
1725892392426083800,22.547083740234374,-0.8478803038597107,-0.38072147965431213,-1.6633083820343018
1725892392444932400,22.565932373046873,-0.7971785664558411,-0.7924443483352661,-1.7482186555862427
1725892392463780900,22.58478076171875,-0.7696896195411682,-0.9158390164375305,-1.7860922813415527
1725892392482629400,22.60362939453125,-0.5375609993934631,-0.9604321718215942,-1.7360013723373413
1725892392501477600,22.6224775390625,-0.5045742988586426,-1.1913390159606934,-1.8954370021820068
1725892392520326100,22.641326171875,-0.676227331161499,-1.5285364389419556,-1.8942153453826904
1725892392539174700,22.660174560546874,-0.7189878225326538,-1.4692825078964233,-1.539302945137024
1725892392558023200,22.679023193359374,-0.5204567909240723,-1.437517523765564,-1.5820634365081787
1725892392576871700,22.69787158203125,-0.5131264328956604,-1.5822924375534058,-1.8795545101165771
1725892392595720000,22.716719970703124,-0.7238747477531433,-1.5951206684112549,-1.7439426183700562
1725892392614568400,22.735568359375,-0.6273581385612488,-0.7741183638572693,-1.3126720190048218
1725892392633417000,22.7544169921875,-0.47097674012184143,-0.2182314395904541,-1.0903172492980957
1725892392652265500,22.773265380859375,-0.5021308660507202,-0.13942988216876984,-0.7946587204933167
1725892392671113700,22.79211376953125,-0.5858193039894104,0.08231402933597565,-0.4623482823371887
1725892392689962200,22.810962158203125,-0.5894845128059387,0.30772313475608826,-0.3132972717285156
1725892392708810800,22.829810791015625,-0.41844236850738525,0.4030180275440216,-0.06711876392364502
1725892392727659300,22.8486591796875,-0.10629047453403473,0.8880446553230286,0.34643667936325073
1725892392746507500,22.867507568359375,-0.12522727251052856,0.7078395485877991,0.46433359384536743
1725892392765356000,22.88635595703125,-0.30115634202957153,0.20021092891693115,0.6268236041069031
1725892392784204500,22.90520458984375,-0.21991132199764252,0.37064221501350403,0.9615775346755981
1725892392803053000,22.924052978515626,0.09957095980644226,1.0291544198989868,1.359250545501709
1725892392821901300,22.9429013671875,0.4972439408302307,1.5569416284561157,1.420947790145874
1725892392840749800,22.961749755859376,0.5326740741729736,0.9253074526786804,1.2963314056396484
1725892392859598300,22.980598388671876,0.2516762912273407,0.8184061050415039,1.654298186302185
1725892392878446800,22.99944677734375,0.4013381600379944,1.2527309656143188,2.023871421813965
1725892392897295000,23.018295166015626,0.6255255341529846,1.1336122751235962,1.709886908531189
1725892392916143600,23.0371435546875,0.6157516837120056,1.4647010564804077,1.855272650718689
1725892392934992100,23.0559921875,0.8283326625823975,1.1391100883483887,2.1515421867370605
1725892392953840600,23.074840576171876,1.0610721111297607,0.6003273725509644,1.6194789409637451
1725892392972689000,23.09368896484375,1.1056652069091797,0.37064221501350403,1.626198410987854
1725892392991537400,23.112537353515624,1.0598503351211548,0.1104138121008873,1.8180099725723267
1725892393010386000,23.131385986328127,0.9065233469009399,-0.356286883354187,1.8442771434783936
1725892393029234400,23.150234375,0.7751874327659607,-0.2811505198478699,1.8674899339675903
1725892393048082700,23.169082763671874,0.5858193039894104,-0.4326449930667877,1.9084179401397705
1725892393066931200,23.18793115234375,0.34147340059280396,0.11285726726055145,2.0623557567596436
1725892393085779700,23.20677978515625,0.758083164691925,-0.31719154119491577,2.080681800842285
1725892393104628200,23.225628173828124,1.2993093729019165,-0.5829176902770996,1.3164899349212646
1725892393123476700,23.244476806640623,0.42882707715034485,0.09880737960338593,0.7606030106544495
1725892393142325000,23.263324951171874,0.12400554865598679,0.1611155867576599,1.0837504863739014
1725892393161173500,23.282173583984374,0.23884813487529755,-0.10705405473709106,0.8461240530014038
1725892393180022000,23.30102197265625,-0.033597562462091446,0.13362666964530945,0.331165075302124
1725892393198870500,23.31987060546875,-0.06291907280683517,-0.20173808932304382,0.14057525992393494
1725892393217718800,23.33871875,-0.15149445831775665,0.16844595968723297,0.26824599504470825
1725892393236567300,23.3575673828125,-0.19242240488529205,0.08048143237829208,0.0709366723895073
1725892393255415800,23.376415771484375,-0.3335321843624115,-0.052076224237680435,-0.2644280791282654
1725892393274264300,23.395264404296874,-0.3176496922969818,0.3987419903278351,-0.34384050965309143
1725892393293112600,23.414112548828125,-0.22846342623233795,-0.0795651376247406,-0.4232529401779175
