time,seconds_elapsed,z,y,x
1725631158852317700,0.019317626953125,-0.3416366779088974,-0.16535247476398943,-0.11077617738060652
1725631158862353000,0.029352783203125,-0.486098924857378,-0.14579378781318664,-0.04498575447835028
1725631158872386800,0.03938671875,-0.41127193967103953,0.22797405837178228,0.03593925532214343
1725631158882420700,0.049420654296875,-0.1366273155391216,0.4861988781005144,0.09767952605076134
1725631158892455000,0.059454833984375,0.19051906472444533,0.6766957309931516,0.19568295029364524
1725631158902488800,0.06948876953125,0.3299339651554823,0.8443938921004533,0.4440601105511188
1725631158912523800,0.079523681640625,0.4804430910527706,0.9933499433368443,0.7650713490605354
1725631158922558000,0.089557861328125,0.7543395271658897,1.130581654509902,0.9009118981361388
1725631158932591900,0.099591796875,1.1779893023729324,1.336713298907876,0.9616023675508797
1725631158942625800,0.109625732421875,1.3915356069415807,1.6288433108478784,0.6626693245325237
1725631158952660700,0.11966064453125,1.043909333229065,2.0455214934766293,-0.6932929377898573
1725631158962695000,0.12969482421875,0.4649994382053613,2.3055793738514185,-0.524202372476086
1725631158972728800,0.139728759765625,0.34327509276568885,2.1275217312932013,0.07486775558814406
1725631158982762800,0.1497626953125,0.3282283302813768,1.249910044723749,-0.39280959658958015
1725631158992798000,0.1597978515625,0.2328893029421568,0.889039089512825,-0.829343914745748
1725631159002832000,0.169831787109375,0.3371212463110685,0.23853753796219823,-0.8533319624461233
1725631159012865800,0.17986572265625,0.6892039149105549,-0.38044191712141034,-0.21522658580578863
1725631159022900700,0.189900634765625,1.232161037543416,-0.4089432044625282,0.5556784378442913
1725631159032935000,0.199934814453125,1.7124702730834482,0.5073410348504781,0.8190015305601059
1725631159042968800,0.20996875,1.8412550584286451,1.728278667590022,0.4397014769501984
1725631159053002800,0.220002685546875,1.4679425547957419,2.0197148520469663,-0.04988762811049819
1725631159063038000,0.230037841796875,0.5730190834194422,1.7690379634797573,-0.4556847896322608
1725631159073071900,0.24007177734375,-0.46529169915020463,1.478009775301814,-0.7166008212063462
1725631159083105800,0.250105712890625,-1.3853507808268068,0.9705337158948183,-0.4303564332388341
1725631159093140000,0.260139892578125,-1.9822797321438788,0.8102157281666994,0.6459731143407523
1725631159103175000,0.2701748046875,-2.482319504070282,1.8113415662020445,1.281854165995121
1725631159113208800,0.280208740234375,-2.7452824582368134,2.667633985888958,1.1319085922647267
1725631159123242800,0.29024267578125,-3.538381047385931,3.314402780652046,0.3306823723699897
1725631159133277000,0.30027685546875,-4.171352202942967,4.256662588220834,-0.7431372382152825
1725631159143311600,0.3103115234375,-3.7823873721480368,5.006308404612541,-1.2857653480894864
1725631159153345800,0.320345703125,-2.8558266534924504,5.2850663092821835,-1.1262309850197285
1725631159163380000,0.3303798828125,-1.8904338076174259,5.331209051775932,-0.7067085188757628
1725631159173413600,0.34041357421875,-0.576115295869112,5.051864287129044,-0.3298814312506467
1725631159183448800,0.35044873046875,0.3963853361845016,4.923705524727702,0.210371254729107
1725631159193482800,0.360482666015625,0.9644891750335692,4.500065686392784,0.6372375808298587
1725631159203517000,0.370516845703125,0.9319891734451055,3.7539053740292787,1.5928633581891656
1725631159213550800,0.38055078125,0.8476865039050578,3.365455507019162,1.7156139779366553
1725631159223585800,0.390585693359375,1.5099340228289364,3.5482834327191113,0.4760018937349319
1725631159233620000,0.400619873046875,1.79320326744318,4.046263934028149,-0.14388780806139112
1725631159243654000,0.41065380859375,1.5698527772188187,4.226616409525275,0.06176818164885044
1725631159253687800,0.420687744140625,1.1951204699158668,3.8386873515188693,0.6207420808419585
1725631159263723000,0.430722900390625,1.3047773609429598,3.0168472365319725,1.4913706305257974
1725631159273756700,0.440756591796875,1.3148510111898184,1.9959496533170342,2.350399635569751
1725631159283790800,0.450790771484375,1.0633177980542183,1.3106085513144732,2.359762214937806
1725631159293825000,0.460824951171875,0.8649503579169511,1.3391726747587323,1.54479403154701
1725631159303860000,0.47085986328125,0.46829614166319367,1.351814129666984,0.8161720062226057
1725631159313894000,0.480893798828125,-0.08734510597586631,0.6722916508153081,0.7367264213249087
1725631159323927800,0.490927734375,-0.633898791795969,0.0629452626042068,0.9539680732801556
1725631159333961700,0.500961669921875,-1.7746008583039043,0.1098443764232099,0.8320774313628673
1725631159343996700,0.51099658203125,-2.6385166124761104,-0.09070040775313973,0.6024029988139867
1725631159354030800,0.52103076171875,-3.602194471126795,-1.4368252397373318,1.0949439394176006
1725631159364065000,0.53106494140625,-4.876703535056114,-2.5013565052345395,1.2220698516398667
1725631159374098700,0.5410986328125,-5.328775687149167,-2.4401005108915266,0.728523533385992
1725631159384134000,0.5511337890625,-4.441870102533698,-1.501849792833626,-0.013792963030934333
1725631159394167800,0.561167724609375,-2.8494091876655814,-1.277555007496476,-0.10697685816287994
1725631159404201700,0.57120166015625,-1.9823177260667084,-2.218765890534222,0.5110130013614893
1725631159414236000,0.58123583984375,-2.158889513981342,-3.3182810833901164,0.8579360952407121
1725631159424270800,0.591270751953125,-3.5899709493696688,-3.3259859586790204,0.683446374297142
1725631159434305000,0.601304931640625,-6.384983945459127,-2.5085136835128066,0.1793313157558441
1725631159444338700,0.611338623046875,-8.73565041527152,-2.005334444516897,-0.6496756221204996
1725631159454372900,0.621372802734375,-9.392014136853813,-2.6212694173380733,-0.9946317998409271
1725631159464407800,0.63140771484375,-9.354264544174075,-3.3630180507391687,-2.041336901268363
1725631159474441700,0.641441650390625,-8.710430049297212,-4.044958988909423,-3.7313831610977646
1725631159484476000,0.651475830078125,-7.312637135526537,-4.361276516644656,-4.479821355265378
1725631159494509800,0.661509765625,-5.520755472075939,-4.504059139943123,-4.128411471360922
1725631159504544800,0.671544677734375,-4.460828485503792,-2.9092969623953104,-4.620128820621967
1725631159514579000,0.681578857421875,-4.329287094926834,-1.2637057842336594,-3.8402643915772434
1725631159524612900,0.69161279296875,-3.5626319838061926,-0.4899713823765516,-2.7269477601230143
1725631159534646500,0.701646484375,0.1945335610628128,1.0112801523029804,-2.260782200747728
1725631159544681500,0.711681396484375,1.5915294792369008,2.899735645584762,-1.226830782431364
1725631159554715600,0.721715576171875,2.8331723386138674,3.3598031803458928,0.5893979712903499
1725631159564749600,0.73174951171875,4.319470634311437,3.2043378933459516,2.5224609603226185
1725631159574783500,0.741783447265625,3.7686259732991454,3.9605046359390017,2.510032855904102
1725631159584818700,0.751818603515625,2.3973650926232337,3.4060049595504998,3.2322786241948602
1725631159594852600,0.7618525390625,2.1396330248475075,2.4438399896807965,4.428784410989285
1725631159604886500,0.771886474609375,2.2172674686700105,1.9010722521401942,5.278565256825089
1725631159614921500,0.78192138671875,1.7980320027738808,1.318889180664718,5.81475361597538
1725631159624955600,0.79195556640625,1.3081480064198374,0.5177750428423286,5.95323094329536
1725631159634989600,0.801989501953125,0.4277256463438272,-0.02181611048877239,5.519918436729908
1725631159645023500,0.8120234375,0.00658522360920906,-0.38821401242762804,5.0614948697835205
1725631159655058700,0.82205859375,0.5542828187674284,-1.0329613843657075,4.368042065256834
1725631159665092600,0.832092529296875,0.1266790452376008,-1.8963003615632652,3.2862773408859964
1725631159675126500,0.84212646484375,-0.9515879001453519,-3.1359692905187604,2.091882262635231
1725631159685160700,0.85216064453125,-2.830773168517649,-4.27215183377564,0.26240181315243244
1725631159695195600,0.862195556640625,-4.674654776057601,-5.217325482964515,-1.8537912993967531
1725631159705229600,0.8722294921875,-7.982404528561234,-6.636402592304348,-4.354134535935521
1725631159715263500,0.882263427734375,-18.734542650526762,-9.983484238243102,-13.491408188045025
1725631159725297700,0.892297607421875,-11.981228081500529,-9.838146377503872,-10.284807610464096
1725631159735332600,0.90233251953125,-2.725609204995632,-5.593296976673603,0.13336685243844984
1725631159745366500,0.912366455078125,-1.3068452532581984,-6.838982097178697,-0.8872136276513337
1725631159755400700,0.922400634765625,-1.4820673801295459,-6.359116513752937,-3.254439018076658
1725631159765434600,0.9324345703125,-1.6722639349013566,-5.188492771711945,-3.7945892665952443
1725631159775469600,0.942469482421875,-1.6152755348749457,-4.992633515003323,-2.6264631865888832
1725631159785503700,0.952503662109375,-0.7047674678105861,-4.672316688498855,-1.3243524145066736
1725631159795537700,0.96253759765625,0.36601409025304016,-3.892420695272088,-0.60955871578753
1725631159805571600,0.972571533203125,1.0921895992081612,-3.023184622859955,-0.327459683996439
1725631159815606500,0.9826064453125,1.7257656618557868,-2.447890872506797,-0.43250469731390473
1725631159825640700,0.992640625,1.998928084605932,-1.746473664972186,-0.8763064491897821
1725631159835674600,1.002674560546875,2.5953303817003963,-1.2508888266280294,-0.6906506065875292
1725631159845708500,1.01270849609375,3.4429566798508167,-0.7234848085664213,-0.11304010372459888
1725631159855743700,1.02274365234375,3.7112615795671937,-0.21680559862554072,0.2672691269278526
1725631159865777400,1.03277734375,2.428551673525572,-0.21922245050892233,0.5502870271295309
1725631159875811600,1.0428115234375,0.2047504191726446,0.36447394813895223,0.6943178969234227
1725631159885845800,1.052845703125,-0.9683511111587285,0.02690525032132864,0.6443155563920736
1725631159895880700,1.062880615234375,0.13180734803676605,-0.2441585927143693,-0.39808863297104835
1725631159905914600,1.07291455078125,0.7915788322359323,0.01868219637721777,-2.1317752970844506
1725631159915948500,1.082948486328125,-0.06433773987591267,-0.2735169352762401,-2.9448054981499907
1725631159925982500,1.092982421875,-0.19548633174300192,-1.0796163141652941,-3.1482243764579296
1725631159936017400,1.103017333984375,-0.13499299233555792,-2.189113971853256,-3.2211610178530212
1725631159946051600,1.113051513671875,-0.7296984223842621,-2.7817507789343594,-3.0087329036593435
1725631159956085800,1.123085693359375,-3.3682810858339067,-2.6020965148344635,-0.5706506007224321
1725631159966119400,1.133119384765625,-1.8085193483881652,-1.424353588438034,1.7466402537107466
1725631159976154600,1.143154541015625,-0.05858312187194824,-1.1340826483681796,-0.4613356550008058
1725631159986188500,1.1531884765625,2.469037997692823,-0.39777474471628665,-0.8304904544323682
1725631159996222500,1.163222412109375,3.4126369449108838,0.4580120635360479,0.26106442706882954
1725631160006256600,1.173256591796875,2.7520670038104056,0.9289417685732245,1.2534212677150964
1725631160016291600,1.18329150390625,3.731218910446763,1.841396804986894,2.5701900952249765
1725631160026325800,1.19332568359375,4.959997319814563,2.4574244245275856,3.0467753418058154
1725631160036359400,1.203359375,5.397148966151476,2.0637837108761072,2.977170475181937
1725631160046393600,1.2133935546875,4.199424451217055,1.0647104214563965,2.277075748422742
1725631160056428500,1.223428466796875,1.7522656923770903,0.4810980478301644,1.2012404141008852
1725631160066462500,1.23346240234375,-1.0893393974088132,0.10132920766472815,0.738171067175269
1725631160076496600,1.24349658203125,-4.052271650010347,-0.9505331303954124,0.31836393887102604
1725631160086530600,1.253530517578125,-4.082748036816716,-1.170774256427586,0.21788988673090934
1725631160096565500,1.2635654296875,-2.4420938766658304,-0.3932546369433403,0.3133411422729492
1725631160106599700,1.273599609375,-1.4125523837462066,-0.3263277573570609,0.7844359747439622
1725631160116633600,1.283633544921875,0.10359422998726367,-0.1576642583489418,1.4253765017449855
1725631160126668800,1.293668701171875,1.221498773753643,0.10974895322471856,1.7180027727693319
1725631160136702500,1.303702392578125,1.8384402932688593,-0.15159604435116053,1.867737991684675
1725631160146736600,1.313736572265625,2.138246246664226,-0.9855901229903101,1.8632891955822706
1725631160156770800,1.323770751953125,1.5167580236300826,-2.155197089204192,1.6968243756622075
1725631160166805500,1.333805419921875,0.14257804063707588,-3.3572926588296887,1.1000748725652694
1725631160176839700,1.343839599609375,-1.1088239962100983,-3.437012092232704,0.2660679344445467
1725631160186873600,1.35387353515625,-1.7219155622988938,-2.346227610582113,-0.10803542730510234
1725631160196907500,1.363907470703125,-1.4334931727051734,-1.1467685269400476,0.5122013343632221
1725631160206942500,1.3739423828125,-1.2739195736035704,-0.26450550743341444,1.0841823069065808
1725631160216976600,1.3839765625,-1.1804159449979663,0.728027274301648,1.2438175730675458
1725631160227010600,1.394010498046875,-0.605252250765264,1.5827882466375827,0.45620647541880605
1725631160237044500,1.40404443359375,0.687210110744834,2.30042915148139,-0.6516559822827577
1725631160247079700,1.41407958984375,2.3455852210253476,2.4132725635901093,-1.305729547101259
1725631160257113600,1.424113525390625,3.3485482113599776,3.0555574909374115,-1.8242051394283771
1725631160267147500,1.4341474609375,2.961840219581127,2.961502658189833,-1.5022469754576682
1725631160277181700,1.444181640625,1.0479828662782906,2.8978996623292566,-0.03285305280983448
1725631160287216600,1.454216552734375,-0.9338567208826541,2.7977225473091005,0.8761024510502815
1725631160297250600,1.46425048828125,-1.0640332528471945,1.4337427635520696,0.5065250422924756
1725631160307284500,1.474284423828125,-1.4653104527264833,1.835171354600787,-0.9662105919986963
1725631160317318700,1.484318603515625,-1.7694553121089933,1.80832835586071,-2.3260715422600504
1725631160327353600,1.494353515625,-2.2219898210167885,0.3293967895388603,-3.462712350678444
1725631160337387500,1.504387451171875,-1.9774764235153792,-0.756886581300199,-3.2258921380281445
1725631160347421700,1.514421630859375,-1.5550100128740072,-1.5792822843432426,-2.085013545909524
1725631160357455600,1.52445556640625,-0.7479886968344449,-1.9028379466384648,-0.5030523977458476
1725631160367490600,1.534490478515625,0.2395727262288332,-0.6387555841773748,0.922073928630352
1725631160377524700,1.544524658203125,1.5382780737817288,0.5761795932769775,2.4994839893609284
1725631160387558700,1.55455859375,1.6622531207576392,1.2116624393939972,3.622798283216357
1725631160397592600,1.564592529296875,3.0182787306398153,0.6281248845696449,4.4616415554523465
1725631160407627500,1.57462744140625,3.729028706926107,-0.7293997316986321,3.334963922643661
1725631160417661700,1.58466162109375,3.9315684643119573,-1.7245777672454714,1.011857075408101
1725631160427695600,1.594695556640625,3.340490577110648,-2.4644383949428796,-0.019884850165247915
1725631160437729500,1.6047294921875,1.7655223565742373,-2.6660934784486887,0.5029413385868072
1725631160447764700,1.6147646484375,0.2267284422248602,-2.703819982513785,1.2708271605461836
1725631160457798400,1.62479833984375,-0.7513876916229725,-4.033348046092689,0.3715314654350281
1725631160467832600,1.63483251953125,-1.9625269839257,-2.2929992937415835,-0.5267267033219337
1725631160477866800,1.64486669921875,-2.6280425647348165,0.01040595094114542,-0.18300269774496555
1725631160487901700,1.654901611328125,-3.336167453214526,-0.06163257257044315,1.186302372688055
1725631160497935600,1.664935546875,-3.4184716424137354,-0.5619730810090899,2.5124954466253517
1725631160507969500,1.674969482421875,-2.289246370948851,0.05186082787960768,3.0110826816558838
1725631160518003700,1.685003662109375,-1.8775161661162971,1.6087369268864393,2.4232184958040714
1725631160528038400,1.695038330078125,-1.8913409855902195,3.3913144631579515,2.418784312748909
1725631160538071800,1.70507177734375,-0.9211118055999279,4.61804353878051,2.9277731148064134
1725631160548106000,1.71510595703125,0.6667962682694196,3.129035691863298,3.640944765281677
1725631160558140000,1.725139892578125,2.0089333457916974,0.767328772598505,3.1977550078243016
1725631160568174800,1.7351748046875,1.611001364687085,0.3897688406541943,1.163034309825301
1725631160578209000,1.745208984375,1.6441285582631826,1.7370444501087068,0.959510217577219
1725631160588242700,1.75524267578125,2.035152075153589,1.6585799852028489,1.433346457710862
1725631160598276900,1.76527685546875,2.682519420331716,0.904675050061941,1.0065665677845477
1725631160608311800,1.775311767578125,2.488165892010927,0.8864207237079739,-0.8722346697062253
1725631160618345700,1.785345703125,1.3291554308742284,0.5051727509006858,-2.261971118271351
1725631160628380000,1.7953798828125,0.39776889949738975,0.15118161833137272,-2.118016820845008
1725631160638413800,1.805413818359375,0.3634644788354635,-0.42231209686249493,-1.8311925140976906
1725631160648449000,1.815448974609375,1.090731874680519,-1.5190917272746562,-3.271930835625529
1725631160658482700,1.825482666015625,0.8017512666821479,-2.561026837821305,-4.7042175551503895
1725631160668516900,1.835516845703125,1.1418208414047957,-2.1961177131354805,-3.9985102492064235
1725631160678551800,1.8455517578125,2.457831544023752,-0.7563716175153851,-2.2793606444895267
1725631160688585700,1.855585693359375,3.832076993468404,0.22662848898172377,-0.993770214575529
1725631160698620000,1.865619873046875,4.721830953252315,-0.8750190397277474,-0.8965794218897819
1725631160708653800,1.87565380859375,4.349975078168511,-1.0239543404370546,-2.558514270478487
1725631160718688800,1.885688720703125,2.4635271253168582,-0.9638310033857822,-2.4872698199540375
1725631160728722700,1.89572265625,0.3567331247538328,-1.4790437945246695,-0.8307318619728088
1725631160738756900,1.9057568359375,-0.942010801243782,-1.829704905888438,0.4345318192273378
1725631160748790800,1.915790771484375,-1.2511574144363402,-1.5933344828322529,0.40450551427602766
1725631160758825700,1.92582568359375,-0.7640022585242986,-1.3409548820003867,-0.7391472187310457
1725631160768860000,1.93585986328125,-1.1373805208697914,-1.584988679291308,-0.7704735003650188
1725631160778893800,1.945893798828125,-2.1099135938882827,-1.712493069437146,0.5522919372111559
1725631160788927700,1.955927734375,-2.3059031989783048,-1.2678963677912949,0.5233475822776555
1725631160798963000,1.965962890625,-1.5647580844283102,-0.8085084858573973,0.0018488427370786666
1725631160808996900,1.975996826171875,-0.9823518717214464,-0.49028775484934445,-0.40235388920009135
1725631160819030800,1.98603076171875,-1.0525117418795824,-0.6387061920776963,-0.19038813182115555
1725631160829065000,1.99606494140625,-0.8670289177566767,-1.331620505813509,-0.4610229357898235
1725631160839100000,2.006099853515625,-0.9733271460056304,-1.600127357842773,-1.0563017818123102
1725631160849133800,2.0161337890625,-1.3724755171626806,-1.4909903990365565,-1.5976491311609744
1725631160859167700,2.026167724609375,-1.2586094840079545,-1.768364886523783,-1.839502077281475
1725631160869202000,2.036201904296875,-0.9712833652183412,-1.8121210261419414,-1.9043401678949594
1725631160879236900,2.04623681640625,-0.9211258341252804,-2.0303876372307537,-1.7344465425699949
1725631160889270800,2.056270751953125,-1.8144582369178532,-0.5875818617790937,-1.505350786691904
1725631160899305000,2.066304931640625,-1.8372776792302727,0.7749415126245468,-1.5959388201117515
1725631160909339000,2.0763388671875,-0.25581717406511306,0.2516084703288972,-1.882895228806138
1725631160919373800,2.086373779296875,1.7203633644208312,-0.3996748792491853,-2.9073113415360448
1725631160929407700,2.09640771484375,2.5300620829761025,-1.0120778785519302,-4.464420957037806
1725631160939442000,2.10644189453125,3.774626090496778,-3.494997248211503,-5.107006913158298
1725631160949475800,2.116475830078125,4.154558304530382,-3.0560107876628635,-3.9557027886152265
1725631160959510800,2.1265107421875,2.4407792869359253,-0.6800162537179887,-0.45236090590655803
1725631160969545000,2.136544921875,1.3003729885041713,0.6603746377240866,3.905081439402699
1725631160979578600,2.14657861328125,0.5668421483501792,1.8013988488584756,7.219329906275868
1725631160989612800,2.15661279296875,0.3034790889501571,2.128573870694637,8.855276327127218
1725631160999647700,2.166647705078125,0.3694955756932497,1.697565841679275,8.172056747323275
1725631161009682000,2.176681884765625,0.2908092847302556,0.7681898464072495,6.2224319150686265
1725631161019715800,2.1867158203125,-0.19719664279222487,-0.2427287791069597,4.423170662760734
1725631161029750800,2.196750732421875,-0.727031541262567,-0.8173320629779249,3.615063889572024
1725631161039785000,2.206784912109375,-1.1193807537987828,-1.0614834952991454,3.5406548375368114
1725631161049819000,2.21681884765625,-1.8120482531666755,-1.4045999634370208,3.1544150477916
1725631161059852800,2.226852783203125,-1.8649582978382706,-1.6920811266578732,1.9073779281556604
1725631161069888000,2.236887939453125,-0.8935869620755315,-2.463745736503601,0.03687280984520912
1725631161079922000,2.246921875,0.4122667959272861,-2.8655557280853388,-1.4175895011305808
1725631161089955800,2.256955810546875,0.9476087673813104,-2.8355560188800095,-1.7079852366238832
1725631161099990000,2.266989990234375,0.9333055167406797,-1.8582842269018292,-0.7718716767251491
1725631161110025000,2.27702490234375,2.1305039619743824,0.4575280063461512,1.4872458056807518
1725631161120059000,2.287058837890625,3.933461730712652,0.16599435286410152,2.34545019646883
1725631161130092800,2.2970927734375,3.256311826211214,-0.4335669197179377,1.5171259801596402
1725631161140127000,2.307126953125,1.9817267744362352,-0.4088621020503342,0.4519482334524393
1725631161150161700,2.31716162109375,0.3933966757625341,-0.25369009890854355,0.5265858335465192
1725631161160195800,2.32719580078125,-1.5745979259192944,0.3722156483069062,1.5840847161889076
1725631161170230000,2.33722998046875,-3.800883982825279,0.39312867247611283,3.103278150272369
1725631161180263700,2.347263671875,-5.576629919511079,-0.33104952518194913,4.020978686124086
1725631161190299000,2.357298828125,-5.735184404698014,-0.3821951905295253,3.0073604462623593
1725631161200332800,2.367332763671875,-4.654454284071922,-0.2303828730791807,0.8466817107766866
1725631161210366700,2.37736669921875,-2.0593366683393715,-0.07932093560472131,-1.1617121213108301
1725631161220401000,2.38740087890625,0.5823527289539575,-0.05190408249944448,-0.9158709823369979
1725631161230435800,2.397435791015625,2.643588508912921,0.33680867323055863,1.1677128230303526
1725631161240470000,2.407469970703125,3.942988268470764,1.0223828533366321,-0.44735739853084083
1725631161250503700,2.417503662109375,3.8462288529396056,1.207394406685978,0.18949790498316288
1725631161260537900,2.427537841796875,3.917167013993859,1.3591979563079775,1.2277648484110832
1725631161270572800,2.43757275390625,3.486270336398482,1.8951207963898777,1.583024393481016
1725631161280606700,2.447606689453125,2.908148961403966,1.815874241195619,1.692121897059679
1725631161290641000,2.457640869140625,3.1457997796595096,1.5062946434132753,0.5688572875648736
1725631161300674800,2.4676748046875,3.852033155304193,1.0899698042668402,-0.8146803063601255
1725631161310710000,2.4777099609375,4.933494512814283,0.9780974291473626,-2.653466928848624
1725631161320743700,2.48774365234375,5.972515489479899,1.1104824309416115,-3.7479555257141586
1725631161330777900,2.49777783203125,6.511386804103851,1.0211983927924186,-4.6964510128021235
1725631161340812800,2.507812744140625,7.160536941045522,0.8053099820770323,-5.726177506899833
1725631161350846700,2.5178466796875,8.020697726598382,0.9713728701326996,-6.684857703393697
1725631161360881000,2.527880859375,8.078480638003349,1.4502224814489484,-7.766664513340592
1725631161370914800,2.537914794921875,6.6774407051354645,1.719015164682269,-9.262689837804436
1725631161380949800,2.54794970703125,5.634343272811174,1.3634635047979653,-10.921915427434444
1725631161390984000,2.55798388671875,5.075859495222568,1.3791491497077046,-11.830774485182761
1725631161401017900,2.568017822265625,5.217519544231891,1.555247036500275,-11.309689587140083
1725631161411051800,2.5780517578125,5.831971292757988,1.6609719949059187,-8.026794289907812
1725631161421086700,2.588086669921875,0.5300929648846388,4.4126483919635415,0.3605062135517597
1725631161431121000,2.598120849609375,-23.229395570707318,10.698769519871473,23.995956281542778
1725631161441155000,2.608155029296875,-19.43110686507225,17.547316733253002,19.413412218427656
1725631161451188700,2.618188720703125,-26.245404602849483,9.905497327721118,6.848790959009528
1725631161461224000,2.628223876953125,-28.59242599415779,1.4015449597805738,4.210542057558894
1725631161471257900,2.6382578125,-4.217874300143122,-0.3503050644677132,6.850181536585092
1725631161481291800,2.648291748046875,7.227467035502195,-3.9426901623070236,2.7400106553137302
1725631161491326000,2.658325927734375,10.907158587807416,-6.095830903503298,-1.210588672682643
1725631161501361000,2.66836083984375,7.234441550689935,-4.055344773845374,-3.6095483410209415
1725631161511394800,2.678394775390625,1.463854408699274,0.4870739073693752,-4.255601096469164
1725631161521428700,2.6884287109375,-2.191635014763474,2.4412055495239793,-4.717976031389832
1725631161531463000,2.698462890625,-3.4256934103608128,2.2089649197489023,-3.464452472344041
1725631161541497600,2.70849755859375,-2.7297300843179224,1.0470731310222297,-0.8526713065803051
1725631161551531800,2.71853173828125,-1.3750585193932057,-0.16737977934051304,-0.12609072395563126
1725631161561566000,2.72856591796875,-0.8276239590853453,-0.3301025266554206,-0.3459235614478588
1725631161571599600,2.738599609375,0.38696868854165073,0.01515150150042027,-0.9623428106546401
1725631161581634800,2.748634765625,1.7433119860708712,0.042108445476368064,-1.3466332198977469
1725631161591668700,2.758668701171875,2.5067010811328885,-0.1548578956913203,-1.2456944728553294
1725631161601702700,2.76870263671875,2.946556141209602,-0.42237632120512425,-0.5692746361941099
1725631161611736800,2.77873681640625,2.820592258504033,-0.8783991836853324,0.3169897279083729
1725631161621771800,2.788771728515625,2.1421225035756826,-1.5114073102518915,1.5195219353854654
1725631161631805700,2.7988056640625,1.250083647724986,-1.9274983406424522,2.5328712951779364
1725631161641839600,2.808839599609375,0.5670452697068452,-2.139299116718024,3.1593358453199265
1725631161651873800,2.818873779296875,-0.10804945583045482,-2.086961026715487,3.2667125164553523
1725631161661909000,2.828908935546875,-0.6593149726033211,-1.952280607460439,2.8393957431733607
1725631161671942700,2.838942626953125,-1.2689923463344572,-1.684393056373298,2.067523189665377
1725631161681976800,2.848976806640625,-1.2193173380613327,-1.378788499701768,1.4248390338674186
1725631161692011800,2.85901171875,-1.337569038954377,-0.8577653417836875,0.6051955521419644
1725631161702045700,2.869045654296875,-2.3370132075130936,0.09927008317783474,0.3485720301300287
1725631161712080000,2.879079833984375,-1.9280787708789109,1.1440744655504822,1.1964338906019925
1725631161722113800,2.88911376953125,-2.6996277915209532,2.146129401129484,1.5025041650891302
1725631161732148700,2.899148681640625,-1.8710481391459701,2.1512568271458146,1.5130509858056902
1725631161742182700,2.9091826171875,1.6515116542518138,0.8962570580676198,1.4301307105347514
1725631161752216800,2.919216796875,3.716680682006478,0.16909535108674317,0.14671324074566364
1725631161762250800,2.929250732421875,4.063640600764751,0.111359274498187,-0.9422767587035894
1725631161772285700,2.93928564453125,2.9502298612862825,-0.14403072366341949,-1.4946084434032438
1725631161782319900,2.94931982421875,1.2433575543403625,-0.9062570585563778,-2.111941884845495
1725631161792353800,2.959353759765625,-1.1579103909403086,-1.4905188360020518,-3.175146577914059
1725631161802387700,2.9693876953125,-3.6049621822744604,-1.7229986813604832,-4.857220251429081
1725631161812422700,2.979422607421875,-3.1792356007933615,-1.8127829971820115,-5.024870481741428
1725631161822456800,2.989456787109375,-0.26890286560952664,-2.6639550051152705,-3.805167943754792
1725631161832490800,2.99949072265625,1.7434195380985735,-3.0492908317580816,-3.1060470304638144
1725631161842524700,3.009524658203125,3.048176440775394,-2.963951512646675,-2.9553900205284354
1725631161852560000,3.019559814453125,3.7586411703795193,-2.5171286593839524,-3.5328427024811506
1725631161862593500,3.029593505859375,3.8739994879186153,-2.0889050003901124,-4.874862875625491
1725631161872627700,3.039627685546875,3.831967687875032,-1.774645428097993,-5.505564332684874
1725631161882662000,3.049661865234375,3.409092988693714,-0.9028823944915085,-5.371103839790821
1725631161892696800,3.05969677734375,2.3919810614973307,-0.42900165762901304,-5.240736169168353
1725631161902730800,3.069730712890625,1.929231448045373,-0.4256469038410112,-5.309079053032398
1725631161912764700,3.0797646484375,2.6886832036584614,-0.5843272438973188,-6.324151583355665
1725631161922798800,3.089798828125,3.816775087179243,-1.1743259575597942,-7.132702008658647
1725631161932833800,3.099833740234375,5.054698049250245,-1.7214188648231326,-6.005576632082462
1725631161942867700,3.10986767578125,0.5937742866784333,-2.424115298513323,2.0086422538906334
1725631161952902000,3.11990185546875,-5.15901708638072,-2.212674880182743,14.165329193627834
1725631161962936800,3.129936767578125,-11.31605269243121,2.960573852907121,22.648390164709088
1725631161972970800,3.139970703125,-6.556700110036134,4.4428336868688465,18.07463029655218
1725631161983005000,3.1500048828125,0.24396263175085187,2.4174111246995627,7.009111284825205
1725631161993038600,3.16003857421875,1.7810142324775455,1.739183507964015,0.5154226344972849
1725631162003073800,3.17007373046875,2.89486277885139,1.2490857227288186,-2.510574123173952
1725631162013107700,3.180107666015625,3.364647697767615,1.0960799577102065,-3.740878134673834
1725631162023142000,3.190141845703125,3.672317808666825,1.1572855370402335,-3.9769291165173053
1725631162033175800,3.20017578125,3.8789375288426875,1.4851577473603188,-2.9485230573683974
1725631162043210800,3.210210693359375,3.6844483914434907,1.8966366077803074,-0.21331834103167055
1725631162053245000,3.220244873046875,0.7017251044400036,1.9032750228814779,4.076822738420963
1725631162063278600,3.230278564453125,-4.615763903410732,0.9178612793713807,7.958062114465236
1725631162073312800,3.240312744140625,-1.8242191679537296,1.011797746436298,5.350363834100961
1725631162083347700,3.25034765625,0.14220306984484196,0.587634614879638,1.3923673815906048
1725631162093381600,3.260381591796875,0.42278292924463745,-0.18983005954697726,-2.019588595318794
1725631162103415800,3.270415771484375,0.2560942374408245,-0.4939670278839767,-3.1847990801393986
1725631162113449700,3.28044970703125,0.08950491435825825,-0.45871173623800277,-3.1482892583876847
1725631162123485000,3.29048486328125,-0.2416913258180022,0.029519378342479467,-2.3195868564158677
1725631162133518600,3.3005185546875,-0.4403180014133453,0.43890667331069705,-1.2903215500891208
1725631162143552800,3.310552734375,-0.4340042882218957,0.4873325583055615,-0.8461287530690431
1725631162153587000,3.3205869140625,-0.6357607862755655,0.49920945858210325,-1.0691787990421056
1725631162163621600,3.33062158203125,-1.0448550896465778,0.5416476474694908,-0.9707306997716426
1725631162173655800,3.34065576171875,-1.0096645337998866,0.5651517110452056,-0.7450725171267986
1725631162183689700,3.350689697265625,-0.4699028462074697,0.6619029432699084,-0.8746545903295277
1725631162193723600,3.3607236328125,-0.12715396927297115,0.6957244027204811,-1.085681605553627
1725631162203758600,3.370758544921875,-0.13045476438403128,0.5494495533920825,-1.008044823643565
1725631162213792800,3.380792724609375,-0.27840222309976814,0.47418870683312414,-0.9379781847268343
1725631162223826700,3.39082666015625,-0.33980566308945415,0.6140307466350495,-0.7453945886880159
1725631162233860600,3.400860595703125,-0.2749965063095093,0.5603231218449771,-0.5596364547550678
1725631162243895800,3.410895751953125,-0.2571636202380061,0.376151234190166,-0.37903497293293476
1725631162253929700,3.4209296875,-0.2812792398408055,0.2935117486219853,-0.11525894881784915
1725631162263963600,3.430963623046875,-0.2864367687344551,0.28339791249521074,0.2566810974180698
1725631162273998800,3.440998779296875,-0.18652619569599627,0.2059904092963785,0.6145838504731654
1725631162284032800,3.45103271484375,-0.23950711364671587,0.009878785261884331,0.5786503673046827
1725631162294066700,3.461066650390625,-0.3552722584210336,0.049230771636962885,0.039865561920404434
1725631162304100900,3.471100830078125,-0.10301263070702552,0.2034820066720247,-0.2507119598805904
1725631162314135800,3.4811357421875,0.1933617408044636,0.14285298512093722,-0.32932956952154635
1725631162324170000,3.491169921875,-0.3793681504100561,-0.04377765733022242,-0.3099637747943401
1725631162334203600,3.50120361328125,-1.4528018304176629,0.16663056840840726,-0.6410463254630565
1725631162344237800,3.51123779296875,-2.497509474417567,0.7684081653330475,-0.9999269836395979
1725631162354272800,3.521272705078125,-2.7360318148106333,1.2426821392968297,-0.7920224843502044
1725631162364306700,3.531306640625,-2.242699431568384,1.5812790111184118,-0.21487316925823688
1725631162374340900,3.5413408203125,-1.1995786183685064,2.067847307053208,-0.37469957407712934
1725631162384374800,3.551374755859375,-0.5850777334710583,2.2770656654201447,-0.47278877690732474
1725631162394409700,3.56140966796875,-0.7571557536303997,2.1862034912340342,-0.5466308427095413
1725631162404443600,3.571443603515625,-1.023554527464509,1.9158986498720942,-0.4862941551685333
1725631162414477800,3.581477783203125,-1.2798112619906663,1.731387739521265,0.015925298884510993
1725631162424511700,3.59151171875,-1.5125567725479603,1.2721880736358464,0.6776601921111345
1725631162434546700,3.601546630859375,-1.327677175015211,0.6624000060718506,0.844411427757144
1725631162444580900,3.611580810546875,-0.8414028935909271,0.31031434179767964,0.6868342631697655
1725631162454614800,3.62161474609375,-0.25619820927195247,-0.07247253101468086,0.783088067266345
1725631162464648700,3.631648681640625,0.15045476536154745,-0.4537687268778681,1.1880617835760117
1725631162474683600,3.64168359375,0.34895503809824585,-0.5557371092289686,1.7235691747248172
1725631162484717800,3.6517177734375,0.27361338138803837,-0.7290702074833214,2.2244670247852802
1725631162494751700,3.661751708984375,0.5232696947358548,-0.483777934563905,1.9538041637659072
1725631162504786700,3.67178662109375,1.4623077637791633,0.09416355381906032,0.6745815153181552
1725631162514820900,3.68182080078125,2.434105654390901,0.14941767739877104,0.030524317601323125
1725631162524854800,3.691854736328125,2.9684418098032475,0.03228920838199556,0.16778291678130625
1725631162534888700,3.701888671875,2.996163344943523,0.1105767823509872,0.17328268324136734
1725631162544924000,3.711923828125,2.6838825253784653,0.21560469840317964,-0.0609463438719511
1725631162554958000,3.7219580078125,2.1998880254544315,0.08837276852317154,-0.5679197144538164
1725631162564992300,3.7319921875,1.802303250352293,0.07141206217631697,-1.0569318964093923
1725631162575026000,3.74202587890625,1.4107470878899098,0.3913361995687708,-1.0312538497954606
1725631162585061000,3.75206103515625,1.0281776572205126,0.9331181774750351,-0.5461176324903965
1725631162595095000,3.762094970703125,0.4857646514017135,1.3172300152808427,0.3702314887523651
1725631162605129200,3.772129150390625,-0.166995419665426,1.1844982458755373,1.0686860470890998
1725631162615163100,3.7821630859375,-0.6093265875320881,0.6060015712952241,0.48694414350986476
1725631162625198000,3.792197998046875,-0.8486557142633945,-0.047368009972386056,-0.4730231701850891
1725631162635232300,3.802232177734375,-1.1616893249571323,-0.3032203649487346,-0.3669727792173624
1725631162645266200,3.81226611328125,-1.1572517809011043,-0.2550631408274174,-0.0028267478585243225
1725631162655300000,3.822300048828125,-0.7224961628552525,-0.2499792616918683,-0.6999696390748024
1725631162665335300,3.832335205078125,-0.3754594525337219,-0.14648118555545805,-1.9334002581626175
1725631162675369000,3.842368896484375,-0.48003173377290365,-0.01224441841468215,-2.318904134848714
1725631162685403100,3.852403076171875,-0.7712623126551509,-0.06539908549711108,-1.8704402363806962
1725631162695437300,3.862437255859375,-0.6965479940630496,-0.04772694294527173,-1.213776070547104
1725631162705472300,3.87247216796875,-0.5400689999759197,0.06482084721773862,-0.6596405512958765
1725631162715506200,3.882506103515625,-0.39289457145929335,0.06902472864836454,-0.7542541869699955
1725631162725540000,3.8925400390625,-0.04751432310789823,-0.003985781700536609,-1.2062567809581757
1725631162735574300,3.90257421875,0.1287313015922904,0.16804332128316163,-1.1468448070466517
1725631162745609000,3.91260888671875,0.26020547215193507,0.44859643880650396,-0.38626258609890934
1725631162755642000,3.92264208984375,0.3134308663830161,0.6726303812503814,0.8338748361736535
1725631162765677300,3.93267724609375,0.35336277153789997,0.9634232993677257,1.5762755037426948
1725631162775711000,3.9427109375,0.498340859054029,1.0859379184022546,1.5327087492167948
1725631162785745200,3.9527451171875,0.5885241110652685,0.545627072494477,0.8339151681840419
1725631162795780000,3.962780029296875,0.6652355948239564,-0.1732999997023493,-0.7990782480806112
1725631162805814000,3.97281396484375,0.6564817950040102,-0.5533806822959333,-1.0673428157866
1725631162815848200,3.98284814453125,0.15867518895715474,-0.5863453057214617,0.772446261742711
1725631162825882000,3.992882080078125,-0.1028045409142971,-0.5643227128751576,1.5631594170600176
1725631162835917300,4.002917236328125,0.16702128475904462,-0.6922231896664947,1.341416362032294
1725631162845951000,4.012950927734375,0.5774032898530364,-0.5371640723146498,-0.7959224143981933
1725631162855985200,4.022985107421875,0.828047737455368,-0.5835541406329721,-1.8412223252028226
1725631162866019300,4.033019287109375,0.3903019246175885,-0.5811030942190438,-0.45591538351774213
1725631162876054000,4.043053955078125,-0.31511779655665156,-0.37514476056136187,1.273795362702012
1725631162886088200,4.053088134765625,-0.7620578464582562,-0.014378873160108923,1.6071207238614558
1725631162896122000,4.0631220703125,-0.7437950445368886,0.10228124769255519,0.5852133790820837
1725631162906156000,4.073156005859375,-0.28099107054919004,-0.4645186689510941,-1.1368453910797833
1725631162916191000,4.08319091796875,-0.27916180929541584,-0.8367420621730387,-1.5879448987483977
1725631162926225200,4.09322509765625,-0.6300237039282918,-0.7541917892582715,-0.6060983462005853
1725631162936259000,4.103259033203125,-0.6725289667025208,-0.6398857572510838,-0.2022106715619564
1725631162946293000,4.11329296875,-0.37590515047460793,-0.580624882248044,-0.5588648858606815
1725631162956328200,4.123328125,-0.06847118641883135,-0.5031371899524704,-1.159949787813425
1725631162966362000,4.133362060546875,0.04608955100178718,-0.44082507415264843,-1.1260422575145959
1725631162976396000,4.14339599609375,-0.16584902610927818,-0.34330344207733865,-0.6721095722466707
1725631162986430200,4.15343017578125,-0.4152548718273639,-0.3315963454097509,-0.7573866397768259
1725631162996465200,4.163465087890625,-0.5721615898072719,-0.35171420061327513,-0.4369517398506403
1725631163006499000,4.1734990234375,-1.0437997353747486,-0.058009705898165696,0.25954291658997536
1725631163016533200,4.183533203125,-1.111267589969933,0.1278497695174068,-0.19415245279073715
1725631163026567200,4.193567138671875,-0.6671905282840133,0.027014300186373293,-0.9125602503538132
1725631163036602000,4.20360205078125,-0.459321100308001,0.18780799740115178,-0.7469435716956854
1725631163046636000,4.213635986328125,-0.5060229379892349,0.49410059113577004,0.059625908923149104
1725631163056670200,4.223670166015625,-0.6172390411570667,0.36157471956610676,0.7879816845268011
1725631163066705200,4.233705078125,-0.6834662480413913,-0.1500735840242356,1.1055880830287932
1725631163076739000,4.243739013671875,-0.5111319515660405,-0.5854269487675279,1.0456950476020574
1725631163086773200,4.253773193359375,-0.037895723152160644,-0.9776041657377034,0.9428764781624078
1725631163096807200,4.26380712890625,0.2539095868781209,-1.1755058880593627,0.6650380264252423
1725631163106842000,4.273842041015625,0.21279563233181834,-1.2155584239192305,0.38074820659160613
1725631163116876000,4.2838759765625,-0.17597148393392562,-1.3949034759394823,0.11036591607928276
1725631163126910200,4.29391015625,-0.4500410846568644,-1.8745336431741713,0.14351882861852644
1725631163136944000,4.303944091796875,-0.3606500059366226,-2.047576964701712,0.3223877875596285
1725631163146979000,4.31397900390625,-0.24533655045256017,-2.1217703281596303,0.7925017922997474
1725631163157013200,4.32401318359375,-0.1198188040792942,-2.170110726828128,1.2240578105866908
1725631163167047000,4.334046875,-0.08942717294692992,-2.003693837703019,1.2022604047983885
1725631163177081000,4.3440810546875,0.04550955915674567,-1.714814351991564,0.9107821347653865
1725631163187116000,4.354115966796875,0.18782690303102134,-1.4051280789643525,0.6909077962189912
1725631163197150200,4.364150146484375,0.22101021070852875,-1.0694738364659249,0.4794622633218765
1725631163207184100,4.37418408203125,0.20875731672644615,-0.6650481094278394,0.39882396150827404
1725631163217219000,4.384218994140625,0.29410101975202557,-0.27096220929212866,0.1286860011458397
1725631163227253200,4.394253173828125,0.6773414815507829,0.10356894941553473,-0.04239887979030609
1725631163237287200,4.404287109375,1.202906228421256,0.6079297994114459,0.018297873234748838
1725631163247321000,4.414321044921875,1.279745357147604,0.8439034782350063,0.05785071594417095
1725631163257356300,4.424356201171875,1.0215735827803611,0.7918675860494375,0.13692366813719273
1725631163267390200,4.43439013671875,0.6151240217644721,0.4367519794948399,-0.17120763053297997
1725631163277424000,4.444424072265625,-0.14806421696320174,0.29826880695596336,-0.5781178678631782
1725631163287458300,4.454458251953125,-0.3282979614514857,0.3998490667723119,-0.6758639563441277
1725631163297493200,4.4644931640625,-0.06850114316567778,0.5110201617546379,-0.6463076069921255
1725631163307527200,4.474527099609375,0.021808511704206467,0.1971805684402585,0.011999065351486206
1725631163317561000,4.48456103515625,-0.3385807244043797,-0.1546978097587824,0.5963637186497449
1725631163327595300,4.49459521484375,-0.8569557789664715,-0.18919585329666733,0.5738403366744518
1725631163337630000,4.5046298828125,-0.5798888961236923,-0.12071838326752185,0.4851777183592319
1725631163347664100,4.5146640625,0.29067681745700535,-0.09602364860251546,0.4042845650017261
1725631163357698300,4.5246982421875,0.5747837550044059,0.17118790291920302,-0.24980887356102466
1725631163367732000,4.53473193359375,0.6079939506888389,0.29136195017695427,-0.5478647684186697
1725631163377767200,4.54476708984375,0.7624724916737526,0.25671134642586113,-0.8524404204338788
1725631163387801000,4.554801025390625,0.8146715385317802,0.5186244992785155,-0.9986240843474864
1725631163397835300,4.564835205078125,0.7138485268235206,0.4948614925056696,-0.5502671533852815
1725631163407869200,4.574869140625,0.4242658612787723,-0.04184329173415899,-0.19820377400815486
1725631163417904000,4.584904052734375,0.2525682552717626,-0.384789883197844,-0.4569061481207609
1725631163427938300,4.594938232421875,0.4553448170881718,-0.4683578087225556,-0.5954699846804141
1725631163437972000,4.604971923828125,0.4362086663983762,-0.7603706240236758,-0.3780822022527456
1725631163448007200,4.615007080078125,0.14516001995429395,-0.41638884429335593,-0.7587187651634216
1725631163458041000,4.625041015625,-0.01920607412084937,-0.11324337121173739,-1.0945891346305607
1725631163468075000,4.635074951171875,-0.18293313964009283,-0.06249401170536875,-1.0555044939547777
1725631163478109200,4.645109130859375,-0.41922713645920157,0.12859174699112771,-1.0468898103445767
1725631163488144100,4.65514404296875,-0.6900130393363535,0.07262757544592023,-0.7514110724985599
1725631163498178300,4.66517822265625,-1.0224174862585962,-0.19130758475363255,-0.6630605888724327
1725631163508212000,4.6752119140625,-1.1742984850309788,-0.40955044964067633,-1.4785101260393858
1725631163518246100,4.68524609375,-0.8734019599199294,-0.4028625693745911,-1.8106588446348904
1725631163528281000,4.695281005859375,-0.5225448875926435,-0.5705260244946927,-1.636414038363099
1725631163538315000,4.70531494140625,0.03354088894352317,-0.4528926016304642,-1.9350509479790925
1725631163548349400,4.715349365234375,0.5989161796115339,-0.3853993203330785,-2.132393721243739
1725631163558383400,4.72538330078125,1.0503120398782193,-0.215828716417402,-2.0878765341252086
1725631163568418600,4.73541845703125,1.181302372443676,-0.0597899403784424,-1.5610165598124264
1725631163578452200,4.7454521484375,0.9468331068336963,0.09935630015656352,-0.6457441278904676
1725631163588486400,4.755486328125,0.5177915555857122,0.48575581050813194,0.1769055499136448
1725631163598521300,4.765521240234375,0.18318916022777557,0.8230587700616567,0.8198685226529836
1725631163608555300,4.77555517578125,-0.23420155458450315,0.7806164895210415,1.4027987592339515
1725631163618589400,4.78558935546875,-0.41950799922719595,0.7079084692500531,1.6345225255280733
1725631163628623400,4.795623291015625,-0.612371873512119,0.3216501940000802,1.7016683085620403
1725631163638658300,4.805658203125,-0.9910418125249445,-0.2018866272393614,1.5310878700166939
1725631163648692500,4.8156923828125,-1.2874516937412321,-0.5009028550291433,1.2007587680637837
1725631163658726400,4.825726318359375,-1.460162422313541,-0.6778500886600464,1.0706722524702548
1725631163668760300,4.83576025390625,-1.5546024549864232,-0.6771065768163651,1.1920768644362687
1725631163678795300,4.845795166015625,-1.6106899606503546,-0.47676432947479186,1.2950585154831409
1725631163688829400,4.855829345703125,-1.397462074381113,0.07986753663681447,1.0584826329827308
1725631163698863400,4.86586328125,-1.1242940256077796,0.5682433203849941,0.7283785719573498
1725631163708897300,4.875897216796875,-1.1402831104435025,0.734371894088015,0.7487199337184429
1725631163718932500,4.885932373046875,-1.3692507098972797,0.612557605342567,0.7884475484728812
1725631163728966400,4.89596630859375,-1.5015173460088669,0.3643558747172355,0.668323039445281
1725631163739000300,4.906000244140625,-1.4270387358687817,0.2389928805142641,0.5470943685680627
1725631163749034500,4.916034423828125,-1.012587289378792,0.2490422365700826,0.38864860445261
1725631163759069400,4.9260693359375,-0.6043078095220029,0.3983509371690452,0.3636684769749641
1725631163769103400,4.936103271484375,-0.13738500203862786,0.43185010586269196,0.3076473145455122
1725631163779137300,4.94613720703125,0.10721052078828215,0.4579323493633419,0.5103355404913426
1725631163789172500,4.95617236328125,0.3479834165871143,0.40437936714570966,0.5360615179002285
1725631163799206400,4.966206298828125,0.5169289474070072,0.2547523213125765,0.10115560466349124
1725631163809240300,4.976240234375,0.653095367436111,0.08902973459456115,-0.5524865830004215
1725631163819274500,4.9862744140625,0.7883741909757256,-0.0185656207928434,-0.8488637309908866
1725631163829309400,4.996309326171875,0.9083825262777506,0.05938563389386981,-0.4914221657067537
1725631163839343400,5.00634326171875,0.8132105260685086,0.17744484442211686,-0.53443596252501
1725631163849377300,5.016377197265625,0.4392797444067895,0.1277578534502536,-0.8826245462954044
1725631163859411500,5.026411376953125,0.26816666028946634,-0.0968415408566594,-0.7923053929448127
1725631163869446400,5.0364462890625,0.24985972696542738,-0.14729725117869674,-0.42646483262777324
1725631163879480300,5.046480224609375,0.12371624990925192,-0.16379998462498188,-0.27090543760359287
1725631163889514500,5.056514404296875,0.27989728396311403,-0.10750826162584125,-0.07196925766766071
1725631163899548400,5.06654833984375,0.8639034792125224,-0.102392087655887,0.2756277899503708
1725631163909583400,5.076583251953125,1.1329742487348615,-0.08999956600740551,0.534990089276433
1725631163919617500,5.086617431640625,1.1117619493581354,-0.2191629023414105,1.0341735366344451
1725631163929651500,5.0966513671875,0.678614862487465,-0.027557722880691287,1.3426204771250485
1725631163939685400,5.106685302734375,0.04705532729402184,0.25349486859738823,1.4674696765869855
1725631163949720300,5.11672021484375,-0.44557183028832076,0.2923796027868986,1.2439859153717756
1725631163959754500,5.12675439453125,-0.5246982662342489,0.3027224253639579,0.6553437308847904
1725631163969788400,5.136788330078125,-0.35758228892907495,0.23911884498149155,-0.051990299478173255
1725631163979823400,5.1468232421875,-0.22016016975045202,-0.015541268002986906,-0.7372609665930271
1725631163989857500,5.156857421875,-0.15400719714611769,-0.2996604074448347,-1.5001087943851947
1725631163999891200,5.16689111328125,-0.13756927256435156,-0.6676083153046667,-2.048369284123182
1725631164009925400,5.17692529296875,-0.20185542838349937,-0.9294779212765395,-2.2257085492789743
1725631164019960300,5.186960205078125,-0.08233224624991417,-0.9130224610380828,-2.4716987413346767
1725631164029994500,5.196994384765625,-0.16425547330752013,-0.9146393947154283,-2.285412199613452
1725631164040028400,5.2070283203125,-0.5500913584269583,-0.8005218710176646,-0.9832733704805373
1725631164050062300,5.217062255859375,-0.801378049455583,-0.5045025965541601,-0.2061445038795471
1725631164060097500,5.22709765625,-0.6763532011657953,-0.14460852355137466,0.042733226311206816
1725631164070131200,5.237131103515625,-0.8884002070873975,-0.3167785693757236,0.5208388143271208
1725631164080165400,5.247165283203125,-1.1135291051611305,-0.5114686361745,-0.17119418652951715
1725631164090199600,5.257199462890625,-1.0278417032644152,-0.6135976159147918,-1.2173708801686762
1725631164100234200,5.267234130859375,-0.8465583766579627,-0.7438659178160131,-1.3862562052339316
1725631164110268400,5.277268310546875,-0.5726926279440522,-0.8618634978175163,-1.431789291396737
1725631164120302300,5.28730224609375,-0.3778653446316719,-1.0629079020790755,-1.3296890993595123
1725631164130337500,5.297337646484375,-0.10147855300754308,-1.1738903426215053,-1.269830550724268
1725631164140371200,5.30737109375,0.15739683958441017,-1.1923406299389898,-0.7954886991560459
1725631164150405400,5.3174052734375,0.10746288811415433,-1.1966051555156707,0.16574351990818975
1725631164160439600,5.327439453125,0.21392127536088226,-1.0222013592898844,0.16418518455028533
1725631164170474200,5.33747412109375,0.4687377479508519,-0.9839319805197417,0.06693477063179015
1725631164180508400,5.34750830078125,0.7248577043548226,-0.902066036607325,-0.06817980225682259
1725631164190542300,5.357542236328125,1.1675579247295855,-0.6255193782463669,-0.2662766087591648
1725631164200576300,5.367576171875,1.2835337896451353,-0.6833661486677826,0.10670271739661694
1725631164210611500,5.377611572265625,1.2108552146643399,-0.5501299368716775,0.26529811911582946
1725631164220645400,5.387645263671875,1.2007327568396926,-0.4433046160086989,0.21952420993447302
1725631164230679300,5.39767919921875,1.1205071274802088,-0.4453344413358718,0.11730243734419345
1725631164240713500,5.40771337890625,1.1088555603921413,-0.5049642957817763,0.22476854032874105
1725631164250748400,5.41774853515625,1.0012424501523376,-0.5756964859351515,0.5635831465542316
1725631164260782600,5.427782470703125,0.3536437804363668,-0.26249124500155446,0.3706026601523161
1725631164270816300,5.437816162109375,-0.26886867107897994,0.18509002541303635,0.0766232209533453
1725631164280851500,5.4478515625,-0.7400036894299089,0.39198205972425637,0.2571089674413204
1725631164290885400,5.457885498046875,-1.2416868446491658,0.25739947482049463,0.6095493634372949
1725631164300919300,5.467919189453125,-1.6154362783946097,-0.12734613084420562,0.35651743617653847
1725631164310953500,5.477953369140625,-1.7605321470715105,-0.36566637279391284,-0.3798515500128269
1725631164320988400,5.487988525390625,-1.8900842635273933,-0.5057682325758039,-0.3153179953038692
1725631164331022600,5.498022705078125,-1.8332381945811211,-0.589638867374137,-0.5818395187348127
1725631164341056300,5.50805615234375,-1.6082979509472846,-0.5700422595657408,-0.9630676177978515
1725631164351090400,5.51809033203125,-1.341401748985052,-0.5783562066636979,-0.9491296933382749
1725631164361125400,5.52812548828125,-1.1566883017994463,-0.5165402768829838,-0.807124191892147
1725631164371159300,5.5381591796875,-0.882127410428226,-0.40294345259107645,-0.6585059943079948
1725631164381193500,5.548193359375,-0.5728615547701716,-0.32340788785498586,-0.3370639631658792
1725631164391227400,5.558227294921875,-0.18569588235169648,-0.26321561375334857,-0.0952577787965536
1725631164401262300,5.568262451171875,0.003672258771955967,-0.4146559560861438,0.5130342780560255
1725631164411296300,5.578296142578125,0.04703881455063819,-0.3833399766504764,1.7367583266437052
1725631164421330400,5.588330322265625,0.1912310123860836,-0.22773466012533752,2.4076924253702163
1725631164431364400,5.5983642578125,0.26106881098300216,-0.2544325513062998,1.8170055833131074
1725631164441399300,5.6083994140625,0.2779774218164384,-0.46322472015041855,0.8792477633386849
1725631164451433500,5.61843359375,0.2074710763081908,-0.34307306738756593,0.2752449281126261
1725631164461467400,5.62846728515625,0.17764774658307433,-0.309770699907653,0.2644213362812996
1725631164471502300,5.63850244140625,-0.05524111796766519,-0.6888188611157238,0.41440848413109777
1725631164481536500,5.64853662109375,-0.2999050298556685,-1.1205533777747303,0.5947901857227087
1725631164491570400,5.6585703125,-0.6333586935698986,-1.401166920248419,0.6089613344162702
1725631164501604400,5.668604248046875,-0.78362421996966,-1.444808639706671,0.7813771716952324
1725631164511639300,5.678639404296875,-0.4235585897922516,-1.252531771529466,1.0641975034981965
1725631164521673500,5.688673583984375,-0.09773907421827316,-0.9712732822157442,1.1125532458662986
1725631164531707400,5.698707275390625,0.0844677969738841,-0.6546048221509904,0.7818892128705978
1725631164541741600,5.708741455078125,0.15412658574208615,-0.41215822098627686,0.35368951927423475
1725631164551776800,5.71877685546875,0.1842621962867677,-0.3162208989603445,-0.01263502516746521
1725631164561810700,5.728810791015625,0.10504223683848976,-0.6066508289841934,-0.46004912232160566
1725631164571844900,5.738844970703125,0.20624621068835258,-0.6824799404177815,-0.2811760717272758
1725631164581878800,5.748878662109375,0.4286915687665343,-0.5842147234335542,-0.3510691076427698
1725631164591913700,5.758913818359375,0.39746896670274434,-0.35097496308591214,-0.6692284638524055
1725631164601948000,5.768947998046875,0.011428425856679678,-0.13148750496525316,-1.0271639501333236
1725631164611981600,5.778981689453125,-0.26723420174494383,0.05019494049400091,-1.0926923610985277
1725631164622016800,5.789016845703125,-0.35426819594502446,0.4818230376364663,-1.2267659005016087
1725631164632050700,5.79905078125,-0.5802830830730498,0.932435017516464,-1.3765262538582086
1725631164642084900,5.8090849609375,-0.7957039493419229,1.366642573225498,-0.6810726309031248
1725631164652118800,5.819118896484375,-0.555500523994118,1.5471034775331616,0.5213911875128746
1725631164662153700,5.82915380859375,-0.18186930980086324,1.386863961868733,1.286100717523694
1725631164672188000,5.83918798828125,0.11268412989377975,1.1876684734094887,1.6142495528280734
1725631164682221600,5.8492216796875,0.17588614373803138,0.8533976480934768,1.701978105163574
1725631164692255700,5.859255859375,0.1665207878910005,0.6639809916529804,0.5976806464672089
1725631164702290700,5.869290771484375,0.4116165153250098,0.47131592787578697,-0.4052864355206489
1725631164712324600,5.87932470703125,0.7161186637125909,0.39754795022308825,-0.5567512547075748
1725631164722358800,5.88935888671875,0.9307397579059005,0.4064544563867151,-0.44588615693449973
1725631164732392700,5.899392822265625,1.0854672321505845,0.2980664893168956,-0.28577099830210206
1725631164742428000,5.909427978515625,1.14438630797863,-0.03190042826011777,-0.27076222974061964
1725631164752461600,5.919461669921875,0.9155497875586152,-0.49761773241125046,-0.7466618321448564
1725631164762495700,5.929495849609375,0.738925538804382,-0.8724054962284863,-1.5941986984461545
1725631164772530700,5.93953076171875,0.46888475520610806,-0.45786111075803637,-1.9626140776872634
1725631164782564600,5.949564697265625,0.3043269379511475,-0.10562770857624709,-1.5519792668759822
1725631164792598800,5.959598876953125,0.10761194119602441,0.04580057799257338,-1.1874655712485314
1725631164802632700,5.9696328125,-0.09861585705280303,-0.02506853641346097,-1.3975433229237795
1725631164812667600,5.979667724609375,-0.2978989507302642,0.11218545965664088,-1.1818734503298998
1725631164822701600,5.98970166015625,-0.7145559444405138,0.008737506272271276,-0.06788871035575866
1725631164832735700,5.99973583984375,-1.1809836618833243,0.05041450152881443,-0.057898646739125245
1725631164842769700,6.009769775390625,-1.240175124911964,0.39902299121171236,-1.0788584815353155
1725631164852804600,6.0198046875,-0.9527019988670945,0.5982037204932421,-1.2215648247271775
1725631164862838800,6.0298388671875,-0.6736981566123664,0.8575611975137144,-0.3295417509675026
1725631164872872700,6.039872802734375,-0.5001369486905635,0.8877606670748441,0.43170624041259287
1725631164882906600,6.04990673828125,-0.2587820152200758,0.586415740609169,0.3783844000697136
1725631164892941800,6.05994189453125,-0.2410372458234429,0.07024049764629453,0.24115678054988382
1725631164902975700,6.069975830078125,-0.17202508439570666,0.16342742498554289,-0.27424305759370327
1725631164913009700,6.080009765625,-0.03678337799608707,0.1067686587722972,-0.3538777353227138
1725631164923044600,6.090044677734375,0.09179945503622293,0.018208587516099214,0.7498281872212886
1725631164933078800,6.100078857421875,0.14145049791187048,0.051186545347236094,1.3957505942881105
1725631164943112700,6.11011279296875,0.16222820526361464,0.42316977313775567,0.9947656553536653
1725631164953146600,6.120146728515625,0.19832593908309937,0.8513362585842609,0.2602659701675176
1725631164963181800,6.130181884765625,0.1451440917328,0.9423003587748855,-0.11117957054972648
1725631164973215700,6.1402158203125,-0.18303192383944988,0.793288339567557,-0.6699784054368734
1725631164983249700,6.150249755859375,-0.23634002791792152,1.0018038834273815,-2.0991817719936368
1725631164993283800,6.160283935546875,0.0922623963728547,1.2980128352440894,-2.833712436839938
1725631165003318800,6.17031884765625,0.6664832567974924,1.417885561467707,-2.6228876661896705
1725631165013352700,6.180352783203125,1.1536097711369395,1.3117355095177887,-2.008740453568101
1725631165023386600,6.19038671875,1.617478451746702,1.0945908881962298,-1.5541770691812038
1725631165033420800,6.2004208984375,1.5985677073106168,0.7450975785028189,-0.6982938148170709
1725631165043455500,6.21045556640625,1.0816703240856527,0.4196675371704623,0.09239595962464808
1725631165053489700,6.22048974609375,0.20223317565470933,0.2178761504665017,0.8860428303062915
1725631165063523800,6.23052392578125,-0.68325435885638,0.19886974536990745,2.009364722946286
1725631165073557500,6.2405576171875,-1.6277216133415697,0.16330527817690743,2.695495221760869
1725631165083592700,6.2505927734375,-2.243219656050205,0.020105379314441233,2.537287942576408
1725631165093626600,6.260626708984375,-2.4596973378956317,0.02882703043045476,1.7624375423014162
1725631165103660800,6.270660888671875,-2.253538805490732,-0.019338760589808223,1.2245213364452123
1725631165113695700,6.28069580078125,-1.9455928002595901,0.08437069327495991,0.8568629130512475
1725631165123729700,6.290729736328125,-1.9271734926022588,0.2848562946099788,0.622887568438053
1725631165133763800,6.300763916015625,-2.2321536337651313,0.46170967594496903,0.5563865130484104
1725631165143797800,6.3107978515625,-2.548025609689951,0.49373190395385025,0.7022153721749782
1725631165153832700,6.320832763671875,-2.504229138061404,0.5935184487538412,0.812571935904026
1725631165163867000,6.330866943359375,-1.9831646982848643,0.6956177274756133,0.8126666284501552
1725631165173900500,6.340900634765625,-1.2732280842080712,0.6853755887940526,0.6976192765563726
1725631165183934700,6.350934814453125,-0.4329711457818746,0.7540417863283306,0.5185340445160865
1725631165193969700,6.3609697265625,0.4428311532780528,0.8091645386133343,0.5341027850478888
1725631165204003800,6.37100390625,1.3726768849536777,0.7252851359866559,0.6834820301324128
1725631165214037800,6.381037841796875,2.3480007577344773,0.4711971238017082,0.7850222501993179
1725631165224071700,6.39107177734375,3.26693141990304,0.20454934364259242,1.05738373183012
1725631165234107000,6.40110693359375,3.087996702249348,-0.04931391987577081,0.6982938148170709
1725631165244140500,6.411140625,2.512735685122013,-0.23220979624539612,0.030327918246388433
1725631165254174700,6.4211748046875,1.8140040634095669,-0.26861608455739916,-0.299805368873477
1725631165264209700,6.431209716796875,0.9661226214542984,-0.05999320786558091,-0.641444384869933
1725631165274243800,6.441243896484375,0.21146599116325376,0.43572161353379485,-0.9825362883776426
1725631165284277800,6.45127783203125,-0.37760581691265105,0.7903720137294381,-1.3144155423820019
1725631165294311700,6.461311767578125,-0.6993900856211781,0.905927534341067,-0.7937836488038301
1725631165304347000,6.471346923828125,-0.9747717918559908,1.266933952499926,0.07601765627563
1725631165314380500,6.481380615234375,-1.1524068250879644,1.5552420680642127,-0.0813327138185501
1725631165324414700,6.491414794921875,-0.7554498264953493,1.6242482381425798,0.024831074395775792
1725631165334449000,6.501448974609375,-0.4614402844190597,1.7720473744288086,0.6666817019790411
1725631165344483600,6.511483642578125,-0.30763971576094623,1.6835411157190798,1.3704963260442018
1725631165354517800,6.521517822265625,-0.17554273712784052,1.5703176182515919,1.5232430017352103
1725631165364551700,6.5315517578125,-0.00476531470566988,1.259435851829499,1.2724836955815553
1725631165374585600,6.541585693359375,0.45581221540421246,0.5589909964583814,0.9514899927288293
1725631165384620500,6.55162060546875,0.8080915756195783,-0.2509785018622875,0.16053367630541324
1725631165394654700,6.56165478515625,0.8903241608873009,-1.0152465717159211,-0.5491296737879514
1725631165404689000,6.57168896484375,0.7418436182081699,-1.6566805813223122,-1.1482464905381202
1725631165414723600,6.5817236328125,0.4609747127339244,-1.8456123768553137,-1.864952160358429
1725631165424757800,6.5917578125,0.2437482583478093,-1.7098016383960841,-2.781083839458227
1725631165434791700,6.601791748046875,-0.011293255169689655,-1.361681005295366,-3.309688611611724
1725631165444825600,6.61182568359375,-0.10316256057173014,-0.7799984306879341,-3.232637520635128
1725631165454860800,6.62186083984375,-0.18607786740660667,-0.18601152417212724,-2.151276700890064
1725631165464894700,6.631894775390625,-0.33326252505630255,0.2538774381741881,-0.7820563861310481
1725631165474928600,6.6419287109375,-0.36990649458169933,-0.1463720260925591,-0.7413532043427229
1725631165484962800,6.651962890625,-0.5869853571906686,-0.47849064181074497,-0.06629179655313491
1725631165494997800,6.661997802734375,-0.8413967561110853,-0.5174953491181135,0.876696325290203
1725631165505032000,6.672031982421875,-0.6535553861632942,-0.5562412593588233,0.389275211918354
1725631165515065600,6.682065673828125,-0.2125713220566511,-0.7000707613617181,-1.1313590686231851
1725631165525099800,6.692099853515625,-0.3396536873981356,-1.193881868031621,-0.7791811229556799
1725631165535134700,6.702134765625,-0.7167617839217185,-1.3143148584865032,-0.008208440896868705
1725631165545168600,6.712168701171875,-1.0733528698563575,-1.1578326495289801,-0.1272509999066591
1725631165555202800,6.722202880859375,-0.9459075164213776,-0.8344283784031867,-0.7481722367078065
1725631165565237800,6.73223779296875,-0.8105404300764203,-0.777883630491048,-1.2240198166638612
1725631165575271700,6.742271728515625,-0.6910021965041756,-0.30159649007394906,-1.401557819262147
1725631165585305600,6.7523056640625,-0.6595289076149463,-0.06782967364490032,-1.0118249267041683
1725631165595339800,6.76233984375,-0.9304027810364961,0.04033332556262612,0.2609691500008106
1725631165605374700,6.772374755859375,-0.968531143900752,0.4825587680324912,0.8803408192723989
1725631165615408600,6.78240869140625,-0.7907984955132007,0.2706627148889005,0.5950649110108613
1725631165625442800,6.79244287109375,-0.3390367245435715,-0.15363164183199404,-0.7631330744743346
1725631165635476700,6.802476806640625,0.09477262562811374,-0.6416160881750286,-1.768950869718194
1725631165645511700,6.81251171875,0.16312544636428356,-1.1456709409616888,-1.6989187175929545
1725631165655545600,6.822545654296875,0.00613689531981945,-1.0900357091099022,-1.254164195036888
1725631165665579800,6.832579833984375,0.1666740787565708,-0.7823854719549417,-1.4135843571424482
1725631165675613700,6.84261376953125,0.5883446628451346,-0.80053275773786,-1.4461545013576744
1725631165685648600,6.852648681640625,0.8835191570475697,-0.9851893601696937,-0.9575924012571573
1725631165695682800,6.862682861328125,0.8200625839203596,-0.9322080768927932,-0.39898879668116566
1725631165705716700,6.872716796875,0.48378509495705363,-0.6152021285019814,0.34034020835757256
1725631165715751700,6.882751708984375,0.2906298365101218,0.10281360100358725,1.7351579057097435
1725631165725785900,6.892785888671875,-0.19696721795052288,0.9593028584368526,3.861563784715533
1725631165735819800,6.90281982421875,-0.7419736743286252,1.5445720593594015,5.123148485141992
1725631165745853700,6.912853759765625,-0.5990130641147494,1.5743845754295587,3.936637438139319
1725631165755888600,6.922888671875,-0.2173880746886134,0.5426841143777593,0.9100245943963527
1725631165765922800,6.9329228515625,-0.2208653954103589,-0.4970562626035884,-0.6512737049669027
1725631165775956700,6.942956787109375,-0.2663043735489249,-1.138279734731838,-0.9891361250340938
1725631165785990700,6.95299072265625,-0.010580722986161709,-1.4625607156269251,-0.6046440557390451
1725631165796025900,6.96302587890625,0.47402270261645313,-1.3121391218826175,-0.15568331366479396
1725631165806059800,6.973059814453125,0.8604992237269878,-0.8677832432553172,0.5664607478171587
1725631165816093700,6.98309375,0.695009386318922,-0.5303604567144066,1.6656243507564066
1725631165826128000,6.9931279296875,0.4180117693200707,-0.43661132891513404,1.3615455423474312
1725631165836162800,7.003162841796875,0.3343780850827694,-0.5342744883529842,0.222017780315876
1725631165846196700,7.01319677734375,0.28048896624594927,-0.33808537863548843,-0.44945290950536726
1725631165856230700,7.023230712890625,0.22225158907175063,0.24388890892751514,-0.6620458588719368
1725631165866265900,7.033265869140625,-0.32286972585767504,0.39419093141276385,0.10716975038647651
1725631165876299500,7.043299560546875,-0.786607473564148,-0.2569487353783101,-0.254054840567708
1725631165886333700,7.053333740234375,-0.7911582687363028,-0.6999522495485841,-1.2158780112624168
1725631165896367900,7.063367919921875,-0.9499284425005317,-0.7911051503095775,-0.9346446563899516
1725631165906402800,7.07340283203125,-1.172298104993999,-0.8327128797221929,-0.40720191375315185
1725631165916436700,7.083436767578125,-1.3242638594403862,-0.9135133132949471,-0.5537362908005714
1725631165926470700,7.093470703125,-1.2430290530383585,-0.8979790595546364,-0.693161128103733
1725631165936504600,7.103504638671875,-0.961777870248258,-1.0257733725577591,-0.21371113974153993
1725631165946539500,7.11353955078125,-0.6452469920232892,-1.023519894542545,0.23276479977965353
1725631165956573700,7.12357373046875,-0.0604454086124897,-0.686885043508932,0.42580666097998615
1725631165966608000,7.13360791015625,0.13346066820174454,-0.8069033156830817,0.709252431204915
1725631165976641500,7.1436416015625,-0.12246873406618833,-1.2447063386008144,1.3130167814999818
1725631165986676700,7.1536767578125,-0.12294365810155868,-1.0519739086758344,1.236681729838252
1725631165996710700,7.163710693359375,0.19215835636407136,-0.5372760082565248,1.0817103638350962
1725631166006744600,7.17374462890625,0.5611863145455718,0.037439503817260265,1.0804057109773157
1725631166016779800,7.18377978515625,0.7661641127333044,0.657239335373044,0.7830728696972131
1725631166026813700,7.193813720703125,0.8071569251179694,0.9811708452433348,0.417272641390562
1725631166036847900,7.203847900390625,0.9022259033441543,1.1669978066287934,-0.007525134807825088
1725631166046881800,7.2138818359375,0.8617436708301305,1.078309323219955,-0.4200397680163383
1725631166056916700,7.223916748046875,0.832048205268383,0.7054156295210122,-0.8065706496626138
1725631166066951000,7.233950927734375,0.9184624601349234,0.3013623890571296,-1.3439724762558936
1725631166076984600,7.243984619140625,1.1681368936613201,0.10500950361266731,-2.0044962401270867
1725631166087018800,7.254018798828125,1.0403650847509502,-0.3650459028080106,-1.5933756916254758
1725631166097053700,7.2640537109375,0.04293196375370025,-0.7703123184539378,-0.3348725906014442
1725631166107087600,7.274087646484375,-0.7507847572937607,-0.7485619666777551,-0.3034410950273275
1725631166117121800,7.284121826171875,-0.8992030483916401,-0.5437395051822066,-0.9435399105072021
1725631166127155700,7.29415576171875,-0.9133882256105542,-0.6480617571830749,-0.8665595466792583
1725631166137191000,7.30419091796875,-0.9776923554778099,-0.4025938354358077,-0.948860813269019
1725631166147224600,7.314224609375,-0.5928603867039084,-0.017303309239447114,-1.4527064072191715
1725631166157258800,7.3242587890625,-0.041748014666140074,0.03471928507313132,-1.1231582265108824
1725631166167293000,7.33429296875,0.41964813835024833,-0.0934748409025371,-0.27014848175644873
1725631166177327600,7.34432763671875,0.6340998673260212,-0.02437032501623034,-0.10334697722792625
1725631166187361800,7.35436181640625,0.8386065408706664,0.17945932604968548,0.3172416568428278
1725631166197395700,7.364395751953125,0.9660425419554114,0.4775564297005534,0.8010165226668119
1725631166207430700,7.3744306640625,0.9082286508902907,0.715490741072595,0.7953688721686601
1725631166217464600,7.384464599609375,0.5622571586474776,0.534903141645342,0.4825158056735992
1725631166227498800,7.394498779296875,0.15837269887924194,0.3579122515358031,0.27408699024915695
1725631166237532700,7.40453271484375,-0.3345087257251143,0.2366558158688247,0.5972673894912004
1725631166247567600,7.414567626953125,-0.6984358536362648,0.06934738473147153,0.18856968422234058
1725631166257601800,7.424601806640625,-0.6629261488378048,-0.24236089564263819,-0.5031237094163894
1725631166267635700,7.4346357421875,-0.6173816644981504,-0.14667159356102347,-0.7519733825564384
1725631166277669600,7.444669677734375,-0.5118731253221631,0.4385200120806694,-0.8022709066420793
1725631166287704800,7.454704833984375,-0.4103790824845433,0.695079382815212,-0.6738572926968336
1725631166297738800,7.46473876953125,-0.4243140843346715,0.8953245995230972,0.012526888617873192
1725631166307772700,7.474772705078125,-0.6528066136226057,0.840671218315512,0.6606278087675571
1725631166317807600,7.4848076171875,-0.8742591612711549,0.5868102928847074,0.38924715486764905
1725631166327841800,7.494841796875,-0.7395689512744545,0.3974867215551436,-0.42606092800199985
1725631166337875700,7.504875732421875,-0.435305433948338,0.11867971704676747,-0.7148433830797671
1725631166347909600,7.51490966796875,-0.027923779714107512,-0.2911173277661204,-0.4047913454800844
1725631166357944800,7.52494482421875,0.3566372631639242,-0.3813698456212878,-0.9566489829272031
1725631166367978800,7.534978759765625,0.3255313462823629,-0.20556465816497801,-1.4551251587986944
1725631166378012700,7.5450126953125,-0.036790976780653,0.045351007594168186,-1.6965356218487024
1725631166388046800,7.555046875,-0.34650106907486916,0.46353214213177557,-1.9425030175507068
1725631166398081800,7.565081787109375,-0.5135872357636689,0.5870989736329764,-1.8197919991612432
1725631166408115700,7.57511572265625,-0.4923685066461563,0.5859356289420277,-1.4179256012171506
1725631166418149600,7.585149658203125,-0.2833253587156534,0.5769155063360929,-0.809608409923315
1725631166428183800,7.595183837890625,0.16949615043997765,0.507028388704732,-0.020696166548132895
1725631166438218800,7.60521875,0.684591452679038,0.36441264640577137,0.8670838628143072
1725631166448252700,7.615252685546875,0.9465630577206611,0.06327957259248941,1.7210305961579084
1725631166458286800,7.625286865234375,0.5484668259650468,-0.4970002946326509,2.471875266945362
1725631166468321800,7.63532177734375,-0.4810433950334787,-1.1469909375190734,2.709146145972609
1725631166478355700,7.645355712890625,-1.4300713815629482,-1.5267492562904954,2.112221870830655
1725631166488389600,7.6553896484375,-1.3078396711230278,-1.508567264520377,0.9990332496702671
1725631166498423800,7.665423828125,-0.5087859729617834,-1.0122131953693925,0.08858896855711937
1725631166508458500,7.67545849609375,0.2402262217015028,-0.18976609093267469,-0.3924649478703737
1725631166518492700,7.68549267578125,0.7410635737463831,0.23687165057659149,-0.0700391663879156
1725631166528526800,7.69552685546875,0.8924351616919041,0.4930066584192216,0.45326691483557224
1725631166538560500,7.705560546875,0.6939125309929252,0.5770433339668437,0.3725421037822962
1725631166548596000,7.715595947265625,0.37484044385254384,0.5427360637607053,0.5094219327777624
1725631166558629600,7.725629638671875,-0.1764823560655117,0.433631838180311,1.043815809726715
1725631166568663800,7.735663818359375,-0.7722779194384812,0.3053767392650246,1.394925833901763
1725631166578698000,7.745697998046875,-1.0326178316250443,0.20135509591223671,1.5698825878351925
1725631166588733000,7.75573291015625,-0.9516220946758985,0.10767028378713875,1.5072265174359083
1725631166598766800,7.765766845703125,-0.3315057445168495,0.32079196973554785,1.3772422931730746
1725631166608800800,7.77580078125,-0.6101245329767465,0.5484072777975351,-0.04605974038541317
1725631166618836000,7.7858359375,-0.7667892588943243,0.3602343378078192,-1.8184113584578037
1725631166628870000,7.795869873046875,-0.25061317568123337,0.07252290949504822,-2.807074605283141
1725631166638903800,7.80590380859375,0.08166647581756115,-0.03748078567571938,-2.6066286053061485
1725631166648938000,7.81593798828125,-0.36720366536378857,0.148001234729588,-0.18453999031484125
1725631166658972700,7.82597265625,-1.1345599104911088,0.5693089768551289,1.4888725300997494
1725631166669006800,7.8360068359375,-0.9381392205074429,0.4919961662024259,0.7155518236100673
1725631166679041000,7.846041015625,0.3205301769942045,0.15810549931041895,-0.5800625721901654
1725631166689074700,7.85607470703125,1.1973574351876974,-0.15245923705175518,0.01260404550731182
1725631166699110000,7.86610986328125,1.5098311469763517,-0.6216697901461273,1.4434212770015
1725631166709143800,7.876143798828125,1.4149702585428952,-0.7148395836874842,0.9264800546348094
1725631166719178000,7.886177978515625,1.4844576362669466,-0.5157089040927588,-0.1397697052180767
1725631166729212000,7.8962119140625,1.6678987254291773,-0.6748480572998523,-0.3383808909833431
1725631166739246800,7.906246826171875,1.7841624673753975,-0.9329093570299446,-0.17484335668683051
1725631166749281000,7.916281005859375,1.526729090285301,-1.0094354012191296,0.16847440617680548
1725631166759314700,7.926314697265625,1.1077192498385906,-0.7835567076914012,0.3188175278574228
1725631166769348900,7.936348876953125,0.6577408551543951,-0.27376082703471183,-0.3065869918376207
1725631166779383800,7.9463837890625,0.5043821850448846,-0.13222981123253702,-1.0468459712028504
1725631166789417700,7.956417724609375,-0.22433833221793173,-0.37222003222107886,-0.45969899370968337
1725631166799452000,7.966451904296875,-1.0796078385978936,0.11449015640243887,0.0280026901692152
1725631166809486800,7.97648681640625,-0.9638473699986934,0.5883205513171851,-1.0333505298137664
1725631166819521000,7.98652099609375,-0.8666045548647642,-0.09545695463046432,-1.6672399692595004
1725631166829554700,7.9965546875,-1.377426417568326,0.10390534176304936,-0.8284744384348393
1725631166839588900,8.0065888671875,-1.3266034083038567,0.748686031448841,-0.34573417635560033
1725631166849623800,8.016623779296875,-0.9592828385621309,0.19398177239894865,-1.290295246604085
1725631166859657700,8.02665771484375,-0.9059621672630309,-0.36271556016430256,-0.9875012173086404
1725631166869692000,8.03669189453125,-1.1585381674498318,-0.47760611406117676,0.12081132224798202
1725631166879725800,8.046725830078126,-1.415973882627487,-0.5989812076717614,1.5160294170945883
1725631166889760800,8.0567607421875,-1.0787129355847835,-1.0976645965531469,1.1856950544446707
1725631166899795000,8.066794921875,-0.4180518090695142,-1.6171445436172187,-0.1637333491295576
1725631166909828900,8.076828857421875,-0.15227145939469336,-1.3529967635802924,0.10253332275748252
1725631166919862800,8.08686279296875,-0.036409868508577345,-0.5321206713199615,1.4872218402832746
1725631166929897700,8.096897705078124,0.37198914607465267,-0.3217996124081313,1.3789642946600913
1725631166939932000,8.106931884765626,1.149405012923479,-0.849437439225614,-0.5442687897533178
1725631166949966000,8.116966064453125,1.3508096287995577,-0.9925509019136428,-1.514358853533864
1725631166960000800,8.127000732421875,0.6988929497539996,-0.4603201943479478,-0.16482055984437466
1725631166970035000,8.137034912109375,0.3138508453607559,-0.2269634200245142,0.5977005202114581
1725631166980068900,8.14706884765625,0.4433639449805021,-0.5263073088660836,-0.3102928606182337
1725631166990102800,8.157102783203126,0.48775662893652916,-0.4373353323407471,-1.4782552744954824
1725631167000137700,8.1671376953125,0.4950000241935253,-0.07297390466555953,-2.884434908339381
1725631167010172000,8.177171875,-0.08886369384527205,-0.2506273503370583,-1.7094208223849534
1725631167020205800,8.187205810546875,-1.196421615642309,-0.39956988450475034,0.3817120831876993
1725631167030239700,8.19723974609375,-1.8154016552478074,0.21584617900885641,1.24781979444623
1725631167040275000,8.20727490234375,-1.71142280985713,0.5295623651392758,-0.3921072204738855
1725631167050308900,8.217308837890625,-1.342463240736723,0.2319523143529892,-1.5390841294676065
1725631167060342800,8.2273427734375,-1.3180191198319196,-0.2579210875418037,-0.9272405176132917
1725631167070377700,8.237377685546875,-1.4736632705301045,-0.46199740684516727,-1.256458443453908
1725631167080412000,8.247411865234374,-1.7315818007886408,-0.783776341791451,-1.7999866439729928
1725631167090445800,8.25744580078125,-1.9798428603857754,-1.0627554149311036,-1.9248358434349297
1725631167100479700,8.267479736328125,-1.9144652560681104,-1.2385408017084,-1.995634888279438
1725631167110515000,8.277514892578125,-1.305724286404252,-1.3628385047674179,-1.698044857367873
1725631167120548600,8.287548583984375,-0.962449485899508,-1.1337873917486518,-1.1111468861997127
1725631167130582800,8.297582763671874,-0.8489309510082006,-0.4962625549426302,0.05584814395010471
1725631167140617000,8.307616943359376,-0.6735416508764028,0.521494611354731,1.7717513140916823
1725631167150652000,8.31765185546875,-0.44349838501513,1.292733725797385,3.2615041341573
1725631167160685800,8.327685791015625,-0.006494622716307639,0.8170835681095718,2.92705239931643
1725631167170719700,8.3377197265625,0.3128556968435645,-0.9084380558572709,0.7917869220286607
1725631167180754000,8.34775390625,0.352846054187417,-1.6193844314984975,-0.6518763470351696
1725631167190788900,8.357788818359374,0.17796528809964657,-1.527378494104743,-0.5225169766724109
1725631167200822800,8.36782275390625,0.23877602289319036,-1.1407800271149724,0.5518056149989367
1725631167210857000,8.37785693359375,0.7642115173608064,-0.6162859051506966,1.9259715694665909
1725631167220891000,8.387890869140625,1.1906032847523689,-0.1473222577557899,3.094412122249603
1725631167230925800,8.39792578125,1.5473334868967532,0.1789066606029868,4.1180408839941025
1725631167240960000,8.4079599609375,1.6487638168483971,0.3165599581889808,4.364381789183616
1725631167250993700,8.41799365234375,1.370180976484716,0.19780237186672164,3.596147592177987
1725631167261028900,8.42802880859375,1.0742983340129255,-0.2395776946648955,2.383742225462198
1725631167271062800,8.438062744140625,0.8650254689797758,-0.8100101956572383,1.2330097633272408
1725631167281097000,8.448096923828125,0.02395019990801811,-1.090647265136987,-0.13942775991261006
1725631167291131000,8.458130859375,-0.5842284596979618,-1.5020157970502972,-0.5116062910795212
1725631167301165800,8.468165771484376,-0.5787292777597904,-1.5882757381379604,-0.33319442825615403
1725631167311200000,8.478199951171876,-0.44849370908439157,-1.3905534640364348,-0.31036709489822384
1725631167321233700,8.488233642578125,-0.2730781054675579,-1.1870095711093396,-0.4011673097640276
1725631167331267800,8.498267822265625,-0.4393079475879669,-0.93888821224384,-0.8009317669928073
1725631167341302800,8.508302734375,-0.8573615102231502,-0.7321647394325583,-1.2572054624289273
1725631167351337000,8.5183369140625,-0.7125552721425891,-0.41029439987577493,-1.5815081436991691
1725631167361371000,8.528370849609376,-0.4413149034962058,-0.14949731850624084,-1.7678811946600674
1725631167371405800,8.53840576171875,-0.48904345387667414,0.07074599948301911,-1.983325441804528
1725631167381440000,8.54843994140625,-0.5750979355201125,0.19892288206294179,-2.230215213048458
1725631167391473700,8.5584736328125,-0.6396864352867007,0.24182722715735433,-2.1138690535157916
1725631167401507800,8.5685078125,-0.640715193812549,0.48203883581161494,-1.9943600460380315
1725631167411542800,8.578542724609376,-0.4887836338967085,0.4944058576926589,-1.4993220279216766
1725631167421576700,8.58857666015625,0.08404138825535774,0.7857860741786659,-1.395671683833003
1725631167431611000,8.59861083984375,0.7272524905368686,0.851254863911122,-0.9232634306758641
1725631167441644800,8.608644775390625,1.298778997310996,0.5242078523688019,0.34525486840605735
1725631167451680000,8.618679931640624,1.2743085729211567,-0.5262491489380597,2.0742250253915784
1725631167461713700,8.628713623046876,0.8737687474057078,-0.6973189784355461,1.4461036479532718
1725631167471747800,8.638747802734375,0.9761226219430565,-0.11634367531463503,0.12539338934123515
1725631167481782000,8.648781982421875,1.4755053912654519,0.29458427322432396,0.7197925299197435
1725631167491816700,8.658816650390625,1.6720348023205995,0.32478549635112286,1.8183073135614394
1725631167501851000,8.668850830078124,1.1230591500505804,0.5427523938409984,1.2348831559836864
1725631167511884800,8.678884765625,0.5335775921300053,0.7261191025927662,-0.33730420166254044
1725631167521919700,8.688919677734376,0.5018070738598704,0.11358327069059014,-0.554182865524292
1725631167531954000,8.698953857421875,0.8680486161932349,-0.6832881149955093,0.2051993319839239
1725631167541987800,8.70898779296875,1.0048916203096507,-0.8288201831325888,0.04747136074900627
1725631167552021500,8.719021484375,0.9042796210035681,-0.6716597826525569,-0.7648048070788384
1725631167562056400,8.729056396484374,0.8541729433149099,-0.7606634694904089,-0.2516612234294414
1725631167572090600,8.739090576171876,0.38689913043677804,-0.9672048637330531,0.8361112169235945
1725631167582124800,8.749124755859375,-0.49789340754747385,-0.5341606527149677,0.5568979697018861
1725631167592158500,8.759158447265625,-0.9517036354795098,0.07577990199699998,-0.5545014299541712
1725631167602193700,8.769193603515625,-0.7398474759548902,0.3535258531451225,-1.0088403579354286
1725631167612227600,8.7792275390625,-0.5131009135514497,0.4062051578007638,-0.7231640521794557
1725631167622261500,8.789261474609376,-0.6611527094244957,0.48396863483041525,-0.7162889057129621
1725631167632296400,8.79929638671875,-0.9722814363449811,0.4542331295192241,-0.7227256607621908
1725631167642330600,8.80933056640625,-0.9648436875596642,0.3765526545979082,-1.0993173321962355
1725631167652364500,8.819364501953125,-0.4551172188773751,0.20923720919787883,-1.2482535096883773
1725631167662398500,8.8293984375,0.2218658046245575,0.05067512522637844,-0.8430787178486585
1725631167672433700,8.83943359375,0.7293675829946994,-0.07140723987072706,-0.3202285636991262
1725631167682467600,8.849467529296875,0.9509060553610325,-0.11517404701337218,-0.218985280752182
1725631167692501500,8.85950146484375,0.9396692065536976,-0.12765154353156685,-0.22105507276356218
1725631167702535700,8.86953564453125,0.7227563481613993,-0.2320690726004541,-0.22982173206508158
1725631167712570600,8.879570556640624,0.3571943125247955,-0.04296973848082125,-0.5942144316613673
1725631167722604500,8.8896044921875,0.20591127964556216,0.029239538487792014,-0.8844032464057207
1725631167732638700,8.899638671875,0.10235153644978999,0.06807108118534087,-1.008509518545866
1725631167742672600,8.909672607421875,-0.020487784494459628,0.2381890167854726,-0.9471791437923908
1725631167752707600,8.91970751953125,-0.1542313612908125,0.3178139037728309,-0.7799801643788814
1725631167762741500,8.929741455078124,-0.17380933746397495,0.43135647712685166,-0.6717284639745951
1725631167772775700,8.939775634765626,-0.12605097646713256,0.4325590578496456,-0.4709498710423708
1725631167782809600,8.9498095703125,-0.29948797348737716,0.27880035557188093,-0.13312193776667117
1725631167792844500,8.959844482421875,-0.5899257945567369,0.21404241752251982,0.10373568428456782
1725631167802878700,8.969878662109375,-0.9852391175955534,-0.003715221130847931,0.5330675967812538
1725631167812912600,8.97991259765625,-1.5385826096862554,-0.13731531606959177,0.8846540062963962
1725631167822947600,8.989947509765624,-1.9830451635584234,-0.10039806429445743,1.1552139914631843
1725631167832981500,8.9999814453125,-2.150348480129242,0.15389242992633953,1.3736673572957514
1725631167843015700,9.010015625,-1.8870038331687449,0.3021059556997381,1.7340923223048448
1725631167853049600,9.020049560546875,-1.2285212197363375,0.16259831721764056,2.1282968073189257
1725631167863084500,9.03008447265625,-0.6655950757861137,-0.1743774196755141,2.147080418244004
1725631167873118700,9.04011865234375,-0.4916489601999521,-0.36711832516789433,1.7777876716464758
1725631167883152400,9.05015234375,-0.3379617887884378,-0.5290125127041712,1.047846088156104
1725631167893186600,9.0601865234375,0.016130466067790984,-0.6713574387051164,-0.025019290444254872
1725631167903221500,9.070221435546875,0.2043926917761564,-0.5467138448178768,-0.3617214345604181
1725631167913255700,9.080255615234375,0.14322130697667598,-0.2032497322861105,0.17945698796212672
1725631167923289600,9.09028955078125,0.9108324036478995,0.28835100485794246,1.1562468416422604
1725631167933324500,9.100324462890624,0.6537351266443729,0.6358735990002751,1.2742811003923415
1725631167943358700,9.110358642578126,-0.18202771523296832,0.5513718997567891,0.8104378464847802
1725631167953392400,9.120392333984375,-0.48735973857343196,0.13924604667015372,0.013999883779883385
1725631167963426600,9.130426513671875,0.04306114309132099,0.0690595807660371,-0.4724374792516231
1725631167973461500,9.14046142578125,1.0862678810089825,0.1925103846721351,-0.43484512296020983
1725631167983495700,9.15049560546875,1.8311995283603668,0.3818342482626438,-0.44029754314720626
1725631167993529600,9.160529541015626,2.349612576845288,0.4096191309627145,0.019720599514245984
1725631168003563500,9.1705634765625,2.434297523701191,0.17905008766166866,1.6683154895365238
1725631168013598700,9.1805986328125,1.8424200105547903,0.0334796602755785,3.067349343279004
1725631168023632600,9.190632568359375,1.5754297005683182,0.3873348184403032,2.2408745542287827
1725631168033666600,9.20066650390625,1.9680910477936266,0.30767157220393415,1.2486813797116278
1725631168043701800,9.21070166015625,2.022369750469923,-0.46488224156647917,1.1241554208546876
1725631168053735400,9.2207353515625,1.248363984325528,-0.8151976812977343,0.6887509104460477
1725631168063769600,9.23076953125,1.2418401355147362,-0.9050859689503907,0.20295652149319648
1725631168073803800,9.2408037109375,1.6513550023853778,-1.0454477217774838,-0.4550158043295145
1725631168083838700,9.250838623046874,1.2866641966253518,-1.2433030476741491,-1.200998422038555
1725631168093872600,9.26087255859375,0.4822030864626169,-1.0479548092275857,-1.1221364822477102
1725631168103906600,9.270906494140625,0.1288385613590479,-0.5535109576120972,-1.1770429614335298
1725631168113940500,9.2809404296875,-0.25216741938591003,-0.3383941888563335,-1.5843880830496548
1725631168123975400,9.290975341796875,-0.6253326235026121,0.42205571094863115,-1.7006471488207577
1725631168134009600,9.301009521484374,-0.44756665736734863,0.7048889752984047,-1.8399071509510279
1725631168144043800,9.311043701171876,-0.6450275040537119,0.400181805858016,-2.3590935218960047
1725631168154077400,9.321077392578125,-1.018254082968831,0.51001376119107,-2.0734154625743626
1725631168164112600,9.331112548828125,-1.1239052454859018,-0.21332440544627607,-2.2927368434131146
1725631168174146600,9.341146484375,-1.195754091644287,-1.0318072458945213,-2.7003134356975553
1725631168184180500,9.351180419921874,-1.4276505841568112,-1.5716813078202305,-3.2129882327914236
1725631168194215400,9.36121533203125,-1.9451362886637449,-0.5114435017332435,-1.8313509195297955
1725631168204249600,9.37124951171875,-1.9957731277063488,0.11429434156939387,-0.43039106616079803
1725631168214283800,9.38128369140625,-1.8652309772998092,-0.24889190484657883,-0.3251391320943832
1725631168224317400,9.3913173828125,-1.6244623192846774,-0.45547523853480815,-0.5525619863241911
1725631168234352600,9.4013525390625,-1.2151420982033014,-0.7018360174685716,-1.5736597682863473
1725631168244386600,9.411386474609374,-0.7127467030614614,-0.7001582935146987,-2.1182067904591557
1725631168254420500,9.42142041015625,-0.3888923500806093,-0.39950098398700357,-1.1726403425604104
1725631168264454700,9.43145458984375,-0.29282997690290213,-0.2870753588989377,-0.14548457573354243
1725631168274489600,9.441489501953125,-0.13996435100734234,-0.46661827157884833,-0.012650807258486748
1725631168284523500,9.4515234375,0.07637742949873208,-0.5116229499533772,-0.10177461334466933
1725631168294557700,9.4615576171875,0.2044210410878062,-0.5709742066536099,-0.36442543282210826
1725631168304591600,9.471591552734376,-0.05686842690855264,-0.3049276072580367,0.0306692790299654
1725631168314626800,9.481626708984376,-0.4730483046263456,0.37563722025342283,0.8386112170457839
1725631168324660500,9.491660400390625,-0.5755205448463558,0.5504078039649873,-0.040297523596882816
1725631168334694700,9.501694580078125,-0.6802724204361439,0.35357451459243894,-1.4434095865637062
1725631168344729600,9.5117294921875,-1.0910755735516549,0.4561859440874308,0.08836334310770035
1725631168354763500,9.521763427734374,-1.3010191774532198,0.6770598150651902,1.1713017874330283
1725631168364797700,9.531797607421876,-1.25448714338094,0.42296778429225085,0.7597878556996583
1725631168374831600,9.54183154296875,-1.1344245936736463,-0.05681267813332379,-0.04447334797680378
1725631168384866600,9.551866455078125,-0.8060258752614259,-0.622400588638708,-0.4553326151937246
1725631168394900500,9.561900390625,-0.2546232881054282,-1.1844228425517678,-0.46579555701911446
1725631168404934700,9.5719345703125,0.2967263998195529,-1.2094799077231437,-0.07496551687419414
1725631168414968600,9.581968505859376,0.7309171505242585,-0.9207626268360763,0.7775695961058139
1725631168425003500,9.59200341796875,1.091315812048316,-0.3923789500873536,2.2894202662110326
1725631168435037700,9.60203759765625,1.2006699207365512,0.10072115876898169,4.990645556056499
1725631168445071600,9.612071533203125,1.5627552201732993,0.39967034920454025,6.46681467192769
1725631168455105500,9.62210546875,2.501740828377008,0.5069193388396874,3.9796629253953695
1725631168465140500,9.632140380859376,2.7241253961786627,0.111993846074678,1.2043956632614135
1725631168475174700,9.642174560546875,2.2023609914392233,-0.14053550195880232,0.12786942406594753
1725631168485208600,9.65220849609375,1.4131564871191977,-0.26398597707133736,-0.29796412492096425
1725631168495243500,9.662243408203125,0.6895864844873547,-0.40726537091080095,-0.6130465579032898
1725631168505277700,9.672277587890624,0.07912234429270029,-0.539053685453534,-0.9075298549711703
1725631168515311400,9.682311279296876,-0.0479494996547699,-0.7418284206390381,-0.5817921724617481
1725631168525345500,9.692345458984375,-0.09570698386877774,-0.5699791677342727,-0.3189747642457485
1725631168535380500,9.70238037109375,-0.40813861008137464,-0.15108002112042157,-0.2357850243836641
1725631168545414700,9.71241455078125,-0.8285498417586088,0.1243023609678261,-0.5339022940397262
1725631168555448300,9.7224482421875,-0.937008755172789,0.22803061086460946,-0.7677642414063215
1725631168565482500,9.732482421875,-0.7757030715815723,0.15533323985179887,-1.0072463667422533
1725631168575517400,9.742517333984376,-0.8319279398895799,0.17126169880777597,-1.5684709674715995
1725631168585551400,9.75255126953125,-0.9668132340669632,-0.041198892883397634,-2.036702227205038
1725631168595585300,9.762585205078125,-1.2775301653161644,-0.20256814323011785,-2.158514835450053
1725631168605620500,9.772620361328125,-1.8454232840240001,-0.770617731141299,-2.0755062973737717
1725631168615654100,9.782654052734374,-2.031565594968945,-1.0636818090610205,-1.7548060245096682
1725631168625688300,9.792688232421876,-1.758784280490875,-1.3036045177713036,-1.3151906184077262
1725631168635722500,9.802722412109375,-1.3096822302497924,-1.3769456483140587,-0.9641261869400739
1725631168645757400,9.81275732421875,-0.7719711915768682,-1.2538431463889776,-1.023026704198122
1725631168655791400,9.822791259765625,-0.26626696414798495,-1.3039317038990557,-0.6771972507745028
1725631168665825300,9.8328251953125,0.0844204507008195,-0.962136912818998,-0.513900539496541
1725631168675859500,9.842859375,0.2569496852263808,-0.723743240306899,0.049371056890487666
1725631168685894100,9.85289404296875,0.40215895114988087,-0.3768812289651483,0.3315548443555832
1725631168695928300,9.86292822265625,0.8816764517903327,0.17010661048851905,1.0281009387224913
1725631168705962500,9.87296240234375,1.3862094434827565,0.5856518435645848,1.7638567614495753
1725631168715996200,9.88299609375,1.4747595413342118,1.0772940086975693,1.8443921874105929
1725631168726031400,9.89303125,1.417592716000974,1.5129725137419998,1.6760329320460556
1725631168736065300,9.903065185546875,1.1612690537184476,1.9131040507175028,1.25938280646801
1725631168746099200,9.91309912109375,1.0503779447212815,2.0672142698466778,0.5961912846922874
1725631168756134100,9.923134033203125,0.8436953884422779,1.5859309285774825,0.43586686722338197
1725631168766168300,9.933168212890624,0.6425777728140354,1.1664059782154856,-0.05991875438988208
1725631168776202500,9.943202392578126,0.5009663852520286,0.8247646241314709,-0.4119137447059154
1725631168786236200,9.953236083984375,0.3121630384042859,0.38616672450900075,-0.12285422625243662
1725631168796271400,9.963271240234375,-0.017748861049860714,0.026586978152394292,0.22457623262703416
1725631168806305500,9.973305419921875,-0.29681203227639197,0.030286124931275842,-0.12749825266599654
1725631168816339200,9.983339111328124,-0.24647505296319722,0.11677636764347553,-0.4339443747282028
1725631168826373400,9.993373291015626,-0.16918313896805048,0.1967674575947225,-0.8440735741049051
1725631168836408300,10.003408203125,-0.11651947027295827,0.14188903545960782,-1.1820131510615348
1725631168846442500,10.0134423828125,-0.11586743610501289,-0.10278408264815807,-1.360533150434494
1725631168856476400,10.023476318359375,-0.06873480579107999,-0.3819863700844347,-1.4764128614991903
1725631168866510300,10.03351025390625,-0.004166764290630817,-0.5912146653234959,-1.561580623435974
1725631168876545500,10.043545654296874,0.043514439816772936,-0.8273074404820799,-0.9831330852270126
1725631168886579200,10.0535791015625,-0.1261141048312187,-1.0206183278821408,-0.19632161352336405
1725631168896613400,10.06361328125,-0.43565614708214995,-0.6956618588782847,-0.4096276795953512
1725631168906648300,10.0736484375,-0.4212944442525506,-0.3844894389465451,-0.9784545720219612
1725631168916682200,10.08368212890625,-0.03652414253801107,-0.3796840844914317,-1.058653897896409
1725631168926716400,10.09371630859375,-0.01787380260378122,-0.12766148040369152,-1.2057745503991841
1725631168936750300,10.103750244140626,-0.04874444942474365,0.380798767735064,-1.746822040018439
1725631168946785500,10.11378564453125,0.38577567936480045,0.5646563287436962,-1.6965747848153114
1725631168956819200,10.123819091796875,0.9916036841914058,0.4095946541085839,-1.0245932228624821
1725631168966853400,10.133853271484375,1.4393591421291232,0.4124307543173432,-0.6252846927076577
1725631168976887300,10.14388720703125,1.549359147505462,0.658074909414351,-0.31193127547502514
1725631168986922200,10.153922119140624,1.5934075480684637,1.0096196717448531,-0.18005787646472454
1725631168996956400,10.163956298828126,1.8382023928597568,1.314868985237926,-0.211198864659667
1725631169006990300,10.173990234375,1.8823346723139285,1.3493860257372259,-0.07850421239435672
1725631169017024300,10.184024169921875,1.5164821292981505,1.1884317859321831,0.2836515219300985
1725631169027059200,10.19405908203125,0.7634151062861084,1.0357681854147462,0.819957369980216
1725631169037093400,10.20409326171875,-0.2732099151536822,0.7351980427138507,1.467707576996088
1725631169047127300,10.214127197265626,-1.098658283765614,0.44702728979364037,2.1489690084695816
1725631169057162200,10.224162353515625,-1.6179153818592429,0.12862367649935186,2.859809001126885
1725631169067196400,10.234196533203125,-1.8312676251605151,-0.18984591470323503,3.066711629897356
1725631169077230300,10.244230224609375,-1.8358397553816437,-0.47157340976819395,2.6890368394017217
1725631169087264300,10.25426416015625,-1.653464249624312,-0.7603151675093919,1.5915005454033613
1725631169097299500,10.264299560546876,-1.2715899616122246,-0.7456934255041182,0.43037294598221776
1725631169107333400,10.27433349609375,-0.8417223348036408,-0.6328200566485523,0.010197568887472152
1725631169117367300,10.2843671875,-0.3692120825767517,-0.3699868298089132,-0.09314999286234378
1725631169127401500,10.2944013671875,0.03504530215710401,0.040092192016821356,-0.22091887916326522
1725631169137436400,10.3044365234375,0.09893120661228895,0.34020576832294463,-0.28067864359915257
1725631169147470300,10.31447021484375,-0.41248102319985624,0.3523113262562081,-0.4830032969295978
1725631169157504300,10.324504150390625,-1.302098789383471,0.2335290438841097,-0.270019302418828
1725631169167539500,10.33453955078125,-1.8067174135327337,0.17242683359701186,0.6020218905419111
1725631169177573400,10.344573486328125,-1.2725053228914738,0.049206833638949316,0.7590355760276317
1725631169187607300,10.354607177734374,-0.6159168526425958,0.06924228038918226,0.15199030436575411
1725631169197641500,10.364641357421876,0.7524006680577993,0.4381758017528802,-0.3198977243095636
1725631169207676400,10.374676513671876,1.2813555688232183,0.7573481343973427,-0.7952122203022242
1725631169217710300,10.38471044921875,0.9588435703620314,0.6760201698191464,-0.41700551488697524
1725631169227744300,10.394744140625,0.6261445244073868,0.5619603311253711,0.07141162378489971
1725631169237778400,10.4047783203125,0.37608167608529325,0.9679075321096926,-0.18199498200714587
1725631169247813400,10.4148134765625,0.2725470673307776,1.3943383894026278,0.11499708301126957
1725631169257847300,10.424847412109376,-0.1117237604290247,1.7418854603990912,0.8923720333278179
1725631169267881500,10.434881591796875,-0.4427440595164895,1.9862094728082418,1.4243804764449595
1725631169277915100,10.4449150390625,-0.535200809417665,1.9978304986275732,1.3969722450375557
1725631169287950300,10.454950439453125,-0.28162761488705873,1.7143723073124884,1.253686640653014
1725631169297984300,10.464984375,0.06449585304707288,1.2802210118353365,1.0346645350217818
1725631169308018400,10.475018310546876,0.6634992725506424,0.8570348355520516,0.9508324056029319
1725631169318053000,10.48505322265625,1.058667049638927,0.6303552739702165,0.8562392281949519
1725631169328087300,10.49508740234375,1.2163280931174754,0.3673936349779367,0.4170382481127977
1725631169338121500,10.50512158203125,1.2596329818367957,-0.10188881430886686,0.17583587485551833
1725631169348155100,10.515155029296874,1.2767895760819314,-0.545205997538194,0.03461071013212204
1725631169358190300,10.5251904296875,1.4655787482738494,-0.725203375987336,-0.21263035876750944
1725631169368224300,10.535224365234376,1.5204326204895973,-0.9128823949802667,-0.7386720024347305
1725631169378258200,10.545258056640625,1.1131634867191313,-1.2615969753861427,-1.0533546224445105
1725631169388292400,10.555292236328125,0.4594096553742885,-1.3464736454218624,-0.9596657003998755
1725631169398327300,10.565327392578125,-0.07240677230209112,-1.1545844613879919,-1.024334279665351
1725631169408361500,10.575361572265624,-0.18377514342218637,-1.028012822047621,-1.7557102798730133
1725631169418395400,10.5853955078125,-0.22011837643533944,-0.9450909393414855,-1.7628385243177414
1725631169428429300,10.59542919921875,-0.02511836690455675,-0.6664287501312792,-1.0932716222912073
1725631169438464500,10.605464599609375,-0.16989333306401966,-0.6729298025883734,-1.3598755633085966
1725631169448498200,10.615498291015625,-0.44851767448186874,-0.2389483107201755,-1.8855407748788595
1725631169458532400,10.625532470703124,-0.39512247664183375,0.11402516923919319,-1.5344067853063343
1725631169468567300,10.6355673828125,-0.5046279764994979,0.5128245808281005,-0.7199801614463329
1725631169478601500,10.6456015625,-0.8158063877806067,0.6346398194216192,-0.2595364868491888
1725631169488635400,10.655635498046875,-1.274561963160336,0.5357394463390112,-0.7514964126944541
1725631169498669300,10.66566943359375,-1.759103429442644,1.02255952507779,-0.9246925866961478
1725631169508704500,10.67570458984375,-2.0374355099156496,1.352298990574479,-0.07987024005055426
1725631169518738200,10.68573828125,-2.121725612235069,0.9884224238067865,0.7448878082096576
1725631169528772400,10.6957724609375,-1.4463260585322975,0.49861339238509533,0.31568332148492334
1725631169538806500,10.705806640625,-0.62335021751374,0.06684855365306139,-0.42881753323376176
1725631169548842000,10.715842041015625,-0.07019961764663457,-0.3187959005475044,-0.7706798365920782
1725631169558876000,10.7258759765625,0.05070055192857981,0.13439137318059802,0.20481705466806888
1725631169568909800,10.735909912109374,0.04014291755706072,0.22896131584346294,0.9841963305443525
1725631169578944000,10.745944091796876,0.05162234294861555,-0.22916209911257027,-0.3249316268235445
1725631169588978700,10.755978759765625,-0.052311786517500874,-0.46917628549858925,-1.0541560019552707
1725631169599012900,10.766012939453125,-0.19567162518203257,-0.40805107792839407,-0.8189391328483819
1725631169609047000,10.776047119140625,-0.3257277456372976,-0.4568609938047826,-0.7815852614879608
1725631169619082000,10.78608203125,-0.4180050473183393,-0.4260847472690046,-0.869739930281043
1725631169629116000,10.796115966796876,-0.40828678638041016,-0.37635106761120257,-0.5051747967272997
1725631169639149800,10.80614990234375,-0.43193303490579127,-0.3212452664609998,-0.08808803329765796
1725631169649184000,10.81618408203125,-0.2646042916327715,-0.33706535140536725,-0.3319546573281288
1725631169659218700,10.82621875,-0.1343628777384758,-0.5600858059577644,-0.6785884128719568
1725631169669252900,10.8362529296875,-0.21577011809796093,-0.9525229159731418,-0.8664771290928125
1725631169679287000,10.846287109375,-0.40663463525921106,-1.1338697362698613,-1.0741051495283842
1725631169689320700,10.85632080078125,-0.32127427335977554,-1.0803181788243352,-0.9637579381495713
1725631169699356000,10.86635595703125,-0.3454842932477593,-0.8748080273255705,-0.24639117407202718
1725631169709389800,10.876389892578125,-0.5069114112615585,-0.4446513544425368,0.5460504124730825
1725631169719423700,10.886423828125,-0.6074328096747398,0.11157141941152512,1.2997387822538613
1725631169729458700,10.896458740234374,-0.4115282525196671,0.5050277164068073,1.527089155769348
1725631169739492900,10.906492919921876,-0.14336217675209045,0.4994442902512848,1.1655027457654477
1725631169749527000,10.916527099609375,0.04091755519136786,0.29162430917387827,0.6206541102975607
1725631169759560700,10.926560791015625,0.25625118156820537,0.13266958175613544,0.26819617864489553
1725631169769596000,10.936595947265625,0.3076313863240182,0.1204901457359083,0.14807166961729526
1725631169779629800,10.9466298828125,-0.17172756275385617,0.18768764069080351,0.20273089604377745
1725631169789663700,10.956663818359376,-0.5621662654936314,-0.15846978431185707,0.46279929781258106
1725631169799698000,10.966697998046875,-0.6893254954636097,-0.4305225470533594,0.8999363311022519
1725631169809732900,10.97673291015625,-0.7318177526257932,-0.4401275934077799,1.254401510924101
1725631169819767000,10.98676708984375,-0.4995723005451262,-0.4787080474210903,1.4863532407552003
1725631169829801000,10.996801025390624,-0.44521059576049443,-0.5867097185870632,1.3243658585101366
1725631169839835000,11.0068349609375,-0.3215725256539881,-0.39721722043137997,1.026784595426917
1725631169849870000,11.0168701171875,0.06388824254274368,-0.20422197485174984,0.992642087328434
1725631169859903700,11.02690380859375,0.27777167011126874,-0.055079159738449374,0.7386223180741072
1725631169869938000,11.03693798828125,0.2862180114172399,-0.1018699086789973,0.4603220940440893
1725631169879972900,11.046972900390625,0.0408287078641355,-0.2027888915750198,0.1858972501426935
1725631169890006800,11.0570068359375,-0.4870610478878021,-0.16876358011541887,-0.290454187682271
1725631169900041000,11.067041015625,-1.0654970417894423,-0.3040329965058714,-0.4023217404961586
1725631169910075000,11.077074951171875,-1.3962896696008742,-0.8089997765056789,0.23799627069234847
1725631169920110000,11.087110107421875,-1.063102840129286,-0.823809880689904,0.6410925026923417
1725631169930143700,11.097143798828125,-0.3144889971338212,-0.8837930055528879,1.0260872608125209
1725631169940178000,11.107177978515624,0.1895521193884313,-0.9491606729984283,1.219109832790494
1725631169950212000,11.117212158203126,0.7173578501187264,-0.48053654148988423,0.5958651214778423
1725631169960246800,11.127246826171875,1.0416273597717285,-0.1412473765552044,0.021702713242173193
1725631169970281000,11.137281005859375,0.856488088389486,0.2061268220923841,-0.8313689908325672
1725631169980315000,11.14731494140625,0.8775238621555268,0.7214966304238886,-1.4247405419290065
1725631169990348800,11.157348876953124,0.9462484388135373,1.332535720962286,-1.6960241651952266
1725631170000383700,11.1673837890625,0.7567781524896621,1.8181034615524112,-1.5670640232831239
1725631170010418000,11.17741796875,0.26774010544046756,2.0409267130322752,-1.0295739338845014
1725631170020451800,11.187451904296875,-0.40006899313330646,1.576441946350783,-0.11944704815745354
1725631170030485800,11.19748583984375,-0.7764497982956469,0.6615645050957799,0.02497369773685932
1725631170040521000,11.20752099609375,-0.5104093363799155,-0.018292174146324395,-0.4747176991432905
1725631170050555000,11.217554931640626,-0.04210676497593522,-0.42717473446279763,-0.5777075334966182
1725631170060588800,11.2275888671875,0.316443930593878,-0.4564404303051531,-0.888621156361699
1725631170070624000,11.2376240234375,0.6256652164578438,-0.0065976446993649,-1.432322375360131
1725631170080658000,11.247657958984375,0.8852113479182123,0.29293358340784903,-0.6673387045830488
1725631170090691800,11.25769189453125,0.984517086931318,0.3941207522533834,0.14385785131454468
1725631170100726000,11.26772607421875,0.8423753918848931,0.514244676759094,0.18793372440636158
1725631170110761000,11.277760986328126,0.6892516995750367,0.31619594718217847,0.1354033267021179
1725631170120795000,11.287794921875,0.8443662734411657,-0.3647032268501818,0.33551088850498195
1725631170130828800,11.297828857421875,0.9002557723149657,-1.036643872270733,0.2771644979983568
1725631170140863000,11.307863037109374,0.6996928679600357,-0.9269080707885324,-0.6096580845087767
1725631170150898000,11.31789794921875,0.5699285700581967,-0.7530848509296775,-1.142327621883154
1725631170160931800,11.327931884765626,0.5016517371676862,-0.8900751545622945,-0.5054881004601717
1725631170170966000,11.337966064453125,0.18780220698118208,-0.9109959236465394,-0.5280769488871098
1725631170181000000,11.348,-0.0762938428685069,-0.4989812027841806,-1.266833122473955
1725631170191035000,11.358034912109375,-0.14523235453814268,-0.2551394209340215,-1.0675473984479904
1725631170201068800,11.36806884765625,-0.31088615033626554,0.1438816705815494,-0.8722159650057554
1725631170211103000,11.37810302734375,-0.2777228625334799,0.6260556770801544,-0.9162164347738027
1725631170221138000,11.388137939453125,0.09702128133773803,0.7775906388938426,-0.48452305384278294
1725631170231171800,11.398171875,0.5331773407660424,0.7745808626186103,-0.2975157966315746
1725631170241206000,11.4082060546875,1.2003611470483242,0.852600579431653,-0.4579343221247196
1725631170251239700,11.41823974609375,1.7477540601715444,0.7762970188867301,-0.3951058177679777
1725631170261275000,11.42827490234375,1.6681860179379582,0.6611813509970903,-0.021422142735123634
1725631170271308800,11.438308837890625,1.3395526139870286,0.8522599493004381,0.3339595674097538
1725631170281343000,11.448343017578125,0.7780928893275558,0.9254259424719959,0.9268471343815327
1725631170291377000,11.458376953125,-0.16942250068187711,0.7942280315704643,1.7965087387293577
1725631170301411800,11.468411865234375,-1.056507241256535,0.49131242172196504,2.5021540853530166
1725631170311446000,11.478446044921874,-1.6758830021813511,0.10375526576787232,2.5600585773110387
1725631170321479700,11.488479736328125,-1.7082254751205443,-0.09203987619597465,1.8254910875856876
1725631170331513900,11.498513916015625,-1.1761951124325394,0.03025916385911405,0.8575771988004446
1725631170341548800,11.508548828125,-0.7983852973803878,0.2354399007404223,0.32796587995290755
1725631170351583000,11.5185830078125,-0.710138274128735,0.41213714166563004,-0.31388299406468867
1725631170361617000,11.528616943359374,-0.6862696150243282,0.5967162584144622,-0.9221621914356947
1725631170371651800,11.53865185546875,-0.9038298314094543,0.7002591235406697,-0.9947504577845334
1725631170381686000,11.54868603515625,-1.2067872345730661,0.5889201246455311,-0.9317442587733268
1725631170391720000,11.558719970703125,-1.4025203806839883,0.49543501807730644,-1.0027268434911967
1725631170401753900,11.56875390625,-1.2637712506853043,0.3782886115450412,-1.1033633927166462
1725631170411789000,11.5787890625,-1.0448236715950072,0.2773372242167592,-0.9685971948742866
1725631170421822700,11.58882275390625,-0.9774212834514677,0.08309491031863726,-0.44222003564238543
1725631170431857000,11.59885693359375,-0.9308101927936077,-0.12511959563484415,-0.1643348221540451
1725631170441891000,11.60889111328125,-0.6103013508483767,-0.3086233930360526,-0.38681086763143535
1725631170451926000,11.618926025390625,-0.26997444036379453,-0.2505129119108431,0.025617840859293937
1725631170461960000,11.6289599609375,-0.13610022292509674,-0.24093838855884966,0.6589303571999072
1725631170471993900,11.638993896484376,0.025304244865477082,-0.4124364168731495,0.7823229281127453
1725631170482027800,11.64902783203125,0.2689884980663657,-0.47281906244773414,0.7365794140696525
1725631170492062700,11.659062744140625,0.7809460868015885,-0.18916589654982088,1.6693196981430052
1725631170502097000,11.669096923828125,0.7664040589690208,-0.0033913046724162992,1.7293442509949206
1725631170512131000,11.679131103515624,0.8744260422706603,0.3201874279711395,0.4508703750878572
1725631170522165800,11.689165771484374,1.2750380562394856,0.7687820401467382,-0.768294987282157
1725631170532200000,11.699199951171876,1.3525368909835815,0.9206383428692817,-0.5808265422999859
1725631170542233900,11.70923388671875,0.9701265963986515,0.9756726131532341,-0.10912614515125751
1725631170552267300,11.719267333984375,0.7730503651157021,1.3228066463693975,1.0369301418662071
1725631170562302500,11.729302490234375,0.8197498647093773,2.0279186167687175,2.7486370293617246
1725631170572336400,11.73933642578125,0.8314823880791664,2.201846319915354,2.4657033003121613
1725631170582370300,11.749370361328126,0.8696545900851488,2.0949960107415913,2.037021376156807
1725631170592404500,11.759404541015625,0.9386509694218635,1.8278584012389183,1.5763912390768526
1725631170602439400,11.769439453125,1.0358470228046177,1.125427194356173,0.8553267895251512
1725631170612473600,11.7794736328125,0.8122025180697441,0.266808669809252,-0.4039905504912138
1725631170622507300,11.78950732421875,0.3828723591387272,-0.5757764193035662,-1.5338602573394775
1725631170632541400,11.79954150390625,0.15018471624851226,-1.2685881494477391,-2.2385843974649906
1725631170642576400,11.809576416015625,0.11946721416264772,-1.7202458755210042,-2.4606799191921946
1725631170652610300,11.8196103515625,0.11810030972361564,-1.7993685120746492,-2.65146084972322
1725631170662644500,11.82964453125,0.10943769531846045,-1.3825292936652898,-1.8959300669461487
1725631170672679400,11.839679443359374,0.005992810674011707,-1.286506960237026,-1.120683945351839
1725631170682713300,11.84971337890625,-0.09735270524919032,-0.8888679707296192,-1.1982231121063232
1725631170692747300,11.859747314453125,-0.1442901052519679,-0.6316489670425653,-0.7049749000161886
1725631170702781400,11.869781494140625,-0.3322705914095044,-0.4255540013931691,-0.4066910416215658
1725631170712816400,11.87981640625,-0.40764352004081006,-0.35686113504767414,-0.7408411631673574
1725631170722850300,11.889850341796874,-0.5062976632773876,-0.3574175998866558,-0.9082628454208374
1725631170732884500,11.899884521484376,-0.5889616256996989,-0.2869605003476143,-1.0055506687402724
1725631170742918400,11.90991845703125,-0.6530141188934445,-0.2697324483014643,-0.9977081385463475
1725631170752953300,11.919953369140625,-0.7306289812326431,-0.30043972125425933,-0.7164747836738824
1725631170762987300,11.9299873046875,-0.860581056791544,-0.3218688782520592,0.22015900070667266
1725631170773021400,11.940021484375,-0.9396285822823643,0.053184623829275364,0.8315057689547538
1725631170783055400,11.950055419921876,-0.8088765885174274,0.3292499284140765,0.5987053133398295
1725631170793090300,11.96009033203125,-0.7458212896674871,0.34267011260986324,0.16783084757626054
1725631170803124500,11.97012451171875,-0.7578028193622827,0.4948934950791299,0.15425474216639995
1725631170813158400,11.980158447265625,-0.6494821453750134,0.2921897793032229,-0.4124152644872665
1725631170823193300,11.990193359375,-0.48966392386257646,-0.19236425419971345,-1.7185533923894165
1725631170833227500,12.0002275390625,-0.43358956994116304,-0.16033523112386464,-2.0540385619312524
1725631170843261400,12.010261474609376,-0.4408756352961063,0.13666377509199082,-1.588281583356857
1725631170853295400,12.02029541015625,-0.44721594423353667,0.17393946664966642,-1.2525468229681254
1725631170863330300,12.030330322265625,-0.3800634391978383,0.09045220514573156,-1.6405723270863293
1725631170873364500,12.040364501953125,-0.33059827428311106,-0.288708513058722,-1.9042226789951324
1725631170883398400,12.0503984375,-0.40337738702893255,-0.49850423292219637,-1.8023311612725257
1725631170893432300,12.060432373046876,-0.354013636662066,-0.5093356427337974,-1.5829028129279612
1725631170903467500,12.070467529296875,-0.11325813038945197,-0.41128735643588005,-1.314452367261052
1725631170913501400,12.08050146484375,0.32425504273623224,-0.17109774041771889,-0.8203717960000038
1725631170923535400,12.090535400390625,0.49577217760980125,0.15256569310091436,0.211189512309432
1725631170933569500,12.100569580078124,0.3264610283479094,0.7152033024333417,1.5418682072281837
1725631170943604500,12.1106044921875,0.10999474467933178,1.2287027137830853,2.6669652928471566
1725631170953638400,12.120638427734375,0.14389000001847743,1.1443445877287537,3.0331033748060463
1725631170963672300,12.13067236328125,0.6133280051931739,0.2893001405426301,1.9408307004243135
1725631170973707500,12.14070751953125,1.4838944494262336,-0.6147019969601184,-0.359897726264596
1725631170983741200,12.1507412109375,1.0738663723364472,-0.9147096834726631,-1.2604992432773112
1725631170993775400,12.160775390625,-0.15514993744045494,-0.8457521017763763,-0.7242308046281337
1725631171003809500,12.1708095703125,-0.9415282784238457,-0.7715817538678645,0.06347849269807339
1725631171013844500,12.180844482421875,-1.0498968832060693,-0.5062765474241226,0.9050491440713405
1725631171023878400,12.19087841796875,-0.6236018541872501,-0.06269315100666135,1.5649328564733267
1725631171033912300,12.200912353515625,0.12448445780277251,0.252897286296729,1.7511971863627434
1725631171043946500,12.210946533203124,0.6874976955145597,0.41226022005602714,1.3740870440125466
1725631171053981200,12.220981201171876,0.6109735510215163,0.42170543620623646,0.9905261180877685
1725631171064015400,12.231015380859375,0.053172202739119524,0.40933015795350075,0.9609002106308937
1725631171074049500,12.241049560546875,-0.3752878953590989,0.3994832656672224,1.3049854507356882
1725631171084083200,12.251083251953125,-0.29974720894545315,0.29843093871511517,1.4712638081729412
1725631171094118400,12.261118408203124,0.014516016608476639,0.06689582686088978,1.3544143752932547
1725631171104152300,12.27115234375,0.4282555154368281,-0.13121135490499436,0.7738239798367023
1725631171114186200,12.281186279296875,0.7317720137879252,-0.256614973379299,0.30534780543148515
1725631171124221400,12.291221435546875,0.7209945991858839,-0.646604105720669,0.41078737102448937
1725631171134255400,12.30125537109375,0.33814445187896486,-1.07959826705195,0.8071347132861614
1725631171144289500,12.31128955078125,0.15990239266455172,-1.1694179464478045,1.1488263362526894
1725631171154324200,12.32132421875,0.40175738461166616,-1.0451298149347306,1.2613280953168868
1725631171164358400,12.3313583984375,1.0322580584019423,-0.8653430104963481,1.2288958982676268
1725631171174392600,12.341392578125,0.8892004175543785,-0.9097729577228426,1.162803423678875
1725631171184426200,12.35142626953125,0.2844602079644799,-0.8457477178622037,0.5138584539204836
1725631171194461400,12.36146142578125,0.24351649541854856,-0.4413432528078556,-0.6214905611217022
1725631171204495400,12.371495361328124,0.35658348715007304,-0.27457024372145533,-1.1485258920013903
1725631171214529300,12.381529296875,0.6075877079755068,-0.009127309307456016,-1.586769425228238
1725631171224564200,12.391564208984375,0.8182206093154847,0.39643955058977004,-2.106180837100744
1725631171234598400,12.401598388671875,0.6036131052561104,0.7779245470233261,-2.582546887972951
1725631171244632600,12.411632568359375,0.08159501801654696,1.1301530538342892,-2.7791075709491966
1725631171254666200,12.421666259765624,-0.42394218228235836,1.4550605691298841,-2.6051865898042914
1725631171264701400,12.431701416015626,-0.6478942916616797,1.6425960879988968,-2.1876287017315623
1725631171274735400,12.4417353515625,-0.3525833115980029,1.6289380033940075,-1.5682693074196576
1725631171284769300,12.451769287109375,-0.29138971496671434,0.923703867919743,0.40270226424634453
1725631171294803500,12.461803466796875,-0.33742928934693334,0.19428133986741303,1.7766566217899322
1725631171304838400,12.47183837890625,0.08747837696671486,0.4087243010148406,0.4501420608133077
1725631171314872600,12.48187255859375,0.8240747421711683,0.6332422275833786,-0.2455325114160776
1725631171324906200,12.49190625,1.2681466892905533,0.36001784551292654,1.2790385240525006
1725631171334940400,12.5019404296875,1.2857730930045246,0.3875374283403158,0.5577566323578358
1725631171344975400,12.511975341796875,1.158019404272735,0.6487668367125093,-1.7252257097601889
1725631171355009300,12.52200927734375,0.9934344067499041,0.0578537846840918,-1.5696230601161718
1725631171365043500,12.53204345703125,0.6434812975250184,-0.5955791441433131,-0.5275654922336339
1725631171375077400,12.542077392578125,0.050705958756059405,-0.6394204778268933,-0.731382429948449
1725631171385112300,12.5521123046875,-0.3859355461016297,-0.3906273571796715,-1.6089584606826304
