time,seconds_elapsed,z,y,x
1725629318706616000,0.027615966796875,-0.48835167222023007,-0.10001227984726428,-0.7006755953870714
1725629318716650200,0.037650146484375,-0.675025751954317,-0.08369535129666328,-0.9533703996479511
1725629318726684200,0.04768408203125,-0.7549503525406122,-0.08024901023507118,-0.9377733828697353
1725629318736717800,0.0577177734375,-0.554967878422141,-0.25320202313065526,-0.9785914962746203
1725629318746752000,0.067751953125,-0.116359603536129,-0.6365764865726232,-0.922933102742955
1725629318756786000,0.077785888671875,0.11268588345944881,-0.32657062620222566,-1.1581016026634723
1725629318766819800,0.08781982421875,0.06554185496866703,-0.054176995867490765,-1.4564593300119042
1725629318776854000,0.09785400390625,0.30228081907629967,0.8251596147984266,-1.5522593989916145
1725629318786888000,0.107887939453125,0.1639244877874851,1.4454033907294273,-1.5342890041455626
1725629318796921900,0.117921875,0.21325229005813598,1.6304513305664061,-2.207161669719219
1725629318806955800,0.127955810546875,0.8672609729468822,0.5255477226704359,-1.8579519262075423
1725629318816990000,0.137989990234375,2.0837667607188224,-0.7049135252177715,-0.7426066384699195
1725629318827024000,0.14802392578125,2.482753803834319,-1.6273393360257147,-0.33967275742478664
1725629318837057800,0.158057861328125,2.281653723862767,-1.2220704361617565,-0.5546962218739092
1725629318847092000,0.168092041015625,1.7336077536582946,-0.955444283312559,-1.1587886350795626
1725629318857126000,0.1781259765625,1.700620260813832,-1.1221838285207748,-0.850417536304146
1725629318867159800,0.188159912109375,1.295446053496003,0.03082300828695297,-0.35366635759435594
1725629318877195000,0.198195068359375,0.6771352914541959,0.412429293012619,0.07656359972059726
1725629318887228000,0.208227783203125,0.016342647513747213,0.19549568409323692,0.6889214447073638
1725629318897262800,0.218262939453125,-1.6642261743962763,-0.027839608561992645,1.3015624905496834
1725629318907296800,0.228296875,-1.65610658082664,0.08961655803918837,0.886153231878206
1725629318917331000,0.2383310546875,-0.11304185729026794,0.23128829748630522,-0.613378639401868
1725629318927364900,0.24836474609375,-0.055773909670114516,-0.03642097442448139,-1.1698743849784135
1725629318937398800,0.258398681640625,0.3595814999222755,-0.06666881317198275,-1.004720136200264
1725629318947433000,0.268432861328125,0.6374257968783378,0.16972703658640384,-0.6026349078737199
1725629318957467000,0.278466796875,0.848846195334196,0.054821723511815065,0.15680398825779557
1725629318967500800,0.288500732421875,0.9406851055979728,-0.21257190657854078,0.6113871733237057
1725629318977535000,0.298534912109375,0.9383873500496148,-0.1045557684957981,0.4076225503180176
1725629318987569000,0.30856884765625,0.6919435690075159,-0.08777005338966846,0.17971520050689577
1725629318997602800,0.318602783203125,0.47549452873468395,-0.20788637911081312,-0.21431524311453104
1725629319007637000,0.328636962890625,0.1862105538755655,-0.3711871820420027,-0.6243342601150274
1725629319017671000,0.3386708984375,0.10229600687026977,-0.6171773740977049,-0.7469740398991852
1725629319027704800,0.348704833984375,0.4139414511412382,-0.7559136446148157,-0.807469352068007
1725629319037739000,0.358739013671875,0.8539876498758793,-0.861416338571906,-0.6617337241828442
1725629319047773000,0.36877294921875,1.108662083646655,-0.9161667504131793,-0.42228206705041227
1725629319057806800,0.378806884765625,1.1004290928304195,-0.6582032119691371,-0.002698079977557063
1725629319067840800,0.3888408203125,0.7901280489057302,-0.6849772371262312,-0.37103805589489636
1725629319077875000,0.398875,0.5222603715628386,-0.23275603195130823,-0.6252907571222632
1725629319087908900,0.408908935546875,0.8639461493104695,0.91778821413517,-2.064316794839501
1725629319097942800,0.41894287109375,0.5866548100620508,0.16922960845828056,-1.1628106571372598
1725629319107977000,0.42897705078125,0.7031780797272921,-1.0132903230816126,-0.8585964588455856
1725629319118011000,0.439010986328125,0.10912614515125751,-1.4441893387645481,0.468371471921727
1725629319128044800,0.449044921875,0.07966507286727428,-1.5564859306454657,0.8021052677515894
1725629319138079000,0.459078857421875,-0.002602291452884674,-1.3874497989326715,0.837101908461377
1725629319148113000,0.46911279296875,0.235947521468997,-1.3435118730068205,0.7331066964577883
1725629319158146800,0.479146728515625,0.40350247471332545,-1.2339806541860103,0.29183205190673467
1725629319168181000,0.489180908203125,0.3030594022333622,-1.0569967783391474,0.3626819866882637
1725629319178215000,0.49921484375,0.551278960776329,-0.7003443176060915,0.39999505111426115
1725629319188248800,0.509248779296875,0.5794032314985991,-0.4962643450409174,0.2523263910735957
1725629319198283000,0.519282958984375,0.42865737423598765,-0.6539397093057632,0.25835209937021136
1725629319208317000,0.52931689453125,0.3815174373984337,-0.6499000785261392,0.4093743624214083
1725629319218350800,0.539350830078125,0.222448572948575,-0.3540969310313463,0.5733314373042434
1725629319228385000,0.549385009765625,0.17864976323246956,0.3224509159237146,0.9855391234554349
1725629319238419000,0.5594189453125,-0.1741553744226694,-0.07650164040029049,0.8626946148794143
1725629319248452900,0.569452880859375,-0.07933364895582198,-0.5763771616756915,-0.06854090892048552
1725629319258487000,0.579487060546875,0.01156535010933876,-0.36958208493292327,-0.7549639426745474
1725629319268521000,0.58952099609375,-0.7878916681557894,-1.2889525998234748,0.33290644162762906
1725629319278555000,0.599554931640625,-0.9224754951685666,-1.2925474094450473,-0.004226312458142638
1725629319288589000,0.609589111328125,-0.9813023626685142,-0.8234849595844745,-0.61289344970081
1725629319298622700,0.619622802734375,-0.6712263596713542,-0.6872878521561622,-0.8997196196116507
1725629319308657000,0.629656982421875,-0.4710235208004713,-0.7399497672855854,-0.659096288351342
1725629319318691000,0.639691162109375,-0.24990648871660232,-0.5303787960886955,-0.5122857612436637
1725629319328724700,0.649724853515625,-0.03821019592881202,0.0009586158990859985,-0.498696102232486
1725629319338759000,0.659759033203125,0.10573416462540626,0.14033727597296236,-0.3623160029200837
1725629319348793000,0.66979296875,0.4027893580079078,0.045668110719323154,-0.23965353638008235
1725629319358826800,0.67982666015625,0.8940192160129546,0.04615501745343208,-0.1832225145081058
1725629319368861000,0.68986083984375,1.4545242702960968,-0.022583587729930875,0.053059426547028124
1725629319378895000,0.69989501953125,1.878868457508087,-0.12960545407831667,0.2963761616097763
1725629319388928800,0.7099287109375,1.8478233309030532,-0.10695581537485122,0.33165443227253855
1725629319398963000,0.719962890625,1.5370207671970129,-0.04960194303691387,0.38503574771769344
1725629319408996900,0.729996826171875,1.2094178753376006,0.05716331820189952,0.46722314213681965
1725629319419030800,0.74003076171875,0.8656330794841051,0.1785077244132757,0.4276539328144863
1725629319429065000,0.75006494140625,0.6168985571563244,0.20475743343532085,0.4442347729982808
1725629319439099000,0.760098876953125,0.5147954425096511,0.16440087312757967,0.48767768194880334
1725629319449132800,0.7701328125,0.5217699576973914,0.2051344500541687,0.5210869073366746
1725629319459167000,0.7801669921875,0.5929314061135054,0.21360651032328604,0.5422611031927168
1725629319469201000,0.790200927734375,0.7014262676239014,0.2173380980670452,0.6473512708261608
1725629319479234800,0.80023486328125,0.6712380501091479,0.25766484775841236,0.7722370029062032
1725629319489269000,0.81026904296875,0.42978959313631054,0.32228374266326426,0.6387193438202142
1725629319499303000,0.820302978515625,0.11021627847552298,0.3638035015314817,0.6943462462350726
1725629319509336800,0.8303369140625,-0.015808394506573675,0.4524684579342603,0.7324588270083069
1725629319519371000,0.84037109375,-0.10491232684850692,0.612035335034132,0.6894795169815421
1725629319529405000,0.850405029296875,-0.2811374932825565,0.7907160779267549,0.8835665033206344
1725629319539438800,0.86043896484375,-0.27386370288729667,0.6935626946419478,0.8723639951743185
1725629319549473000,0.87047314453125,-0.12377718631625174,0.6118669927299022,0.9680827425461261
1725629319559507000,0.8805068359375,0.015045008918642997,0.6157195765048266,1.0394384714253246
1725629319569540900,0.890540771484375,-0.02563596103787422,0.33713293674886224,0.8897740527238697
1725629319579574800,0.90057470703125,0.11057108326256275,0.06667933456599712,1.0118642358012497
1725629319589609000,0.91060888671875,0.271388252684474,0.07774842559099197,1.1032948575250803
1725629319599643000,0.920642822265625,0.329447642943263,0.1661737280189991,1.3120372689433395
1725629319609676800,0.9306767578125,0.22034195605814455,0.14267244092226028,1.3960133368775247
1725629319619711000,0.9407109375,0.18086627023816107,0.002853635865449905,1.3332212190084158
1725629319629745000,0.950744873046875,0.14678338337242602,-0.20947686317265032,1.2950237364307045
1725629319639778800,0.96077880859375,0.05663549493551254,-0.3717383861839771,1.1658800546452401
1725629319649813000,0.97081298828125,-0.12820786224007605,-0.48029403797090053,1.036738126425445
1725629319659847000,0.980846923828125,-0.2984101151227951,-0.508216064119339,1.0103351265378295
1725629319669880800,0.990880859375,-0.4205903876364231,-0.498629905128479,0.9845628988344222
1725629319679915000,1.0009150390625,-0.42114159177839755,-0.5408598580926657,0.9298286344103515
1725629319689949000,1.010948974609375,-0.39011809248328205,-0.5979167933106422,0.9867444075919687
1725629319699982800,1.02098291015625,-0.4832254152476787,-0.5716735140293836,1.031508336013183
1725629319710017800,1.031017822265625,-0.7832984951466322,-0.5145464361846447,1.0271819241814315
1725629319720050700,1.04105078125,-1.1807207731634377,-0.5033323837310075,0.9410979972478002
1725629319730086000,1.0510859375,-1.592840269574523,-0.43869536864757536,0.5387880933199077
1725629319740119600,1.06111962890625,-2.0148440311402083,-0.49332010828256606,0.2027474818523973
1725629319750153200,1.0711533203125,-2.2829981242090462,-0.5380348637998104,-0.13639452969655394
1725629319760187400,1.0811875,-2.361905656707287,-0.4993476980090141,-0.48053719907701015
1725629319770221600,1.0912216796875,-2.085162598991394,-0.48324996516704555,-0.6133891607958823
1725629319780255200,1.101255126953125,-1.5843442439079283,-0.5010042330443859,-0.4974296624932438
1725629319790289400,1.111289306640625,-0.9635562780976294,-0.4711971238017082,-0.18109788703694937
1725629319800323600,1.121323486328125,-0.38161271446645256,-0.4243804275691509,0.04295819417349994
1725629319810357200,1.131357177734375,0.09777765266299247,-0.3951502414315939,0.12172229961305855
1725629319820391400,1.141391357421875,0.4038748151570558,-0.38702889429628845,0.16249109398350117
1725629319830425600,1.151425537109375,0.5709668270647525,-0.30149229904711244,0.2458984221190214
1725629319840459300,1.161459228515625,0.5724702173650265,-0.12087795774340629,0.40981034268587824
1725629319850493400,1.171493408203125,0.49219198103547096,0.029650457376241682,0.6557396713998168
1725629319860527400,1.18152734375,0.500931167808175,0.17035539761781693,0.7657776706989854
1725629319870561300,1.191561279296875,0.3954103536725044,0.26532734521031376,0.8329076716419309
1725629319880595500,1.201595458984375,0.10915770933330059,0.3385550785064697,0.8252099567461758
1725629319890629400,1.21162939453125,-0.13477788828015327,0.4162491435617208,0.7519594270963221
1725629319900663300,1.221663330078125,-0.23933833295106888,0.5116185660392045,0.7019384549297392
1725629319910697500,1.231697509765625,-0.21034020200371742,0.4118851031333208,0.6572646890100091
1725629319920731400,1.2417314453125,-0.16685177341103552,0.2850818469941616,0.5127557533755898
1725629319930765300,1.251765380859375,-0.176843590593338,0.20481530110239982,0.37228286832422014
1725629319940799500,1.261799560546875,-0.14396891047358512,0.2044330237865448,0.3982123324159533
1725629319950833400,1.27183349609375,-0.10439560949802398,0.31433599852919575,0.66070642696172
1725629319960867300,1.281867431640625,-0.08111585619747638,0.35583763721883294,0.7304686761043966
1725629319970901500,1.291901611328125,-0.07173135725855827,0.4591360991299152,0.7240892042003572
1725629319980935400,1.301935302734375,-0.0760305157572031,0.5594634362757206,0.7675662346161901
1725629319990969300,1.31196923828125,-0.14406769467294214,0.5637397984206676,0.7971709531545639
1725629320001003500,1.32200341796875,-0.1860159080862999,0.5059188930928706,0.6171839499689639
1725629320011037400,1.332037353515625,-0.1770750612616539,0.3856517607241869,0.35588549494855104
1725629320021071400,1.3420712890625,-0.06431260543465614,0.19379297182857988,0.14410941492281854
1725629320031105300,1.352105224609375,-0.06444003120660781,0.21916122184097767,-0.3370961849350482
1725629320041139500,1.362139404296875,-0.19149404723644256,0.32290625847578047,-0.5138057738851756
1725629320051173400,1.37217333984375,-0.37051731995642184,0.4186667260974645,-0.6830297563202679
1725629320061207300,1.382207275390625,-0.20696692617833612,0.28166239393949505,-0.5776710739437491
1725629320071241500,1.392241455078125,0.30421207939982414,0.36257308295369145,-0.22492226958572864
1725629320081275400,1.402275390625,0.865778625434637,0.5129565366446972,-0.05900558506771922
1725629320091309300,1.412309326171875,1.2836170840144157,0.5779664766937493,0.15789806710481644
1725629320101343500,1.422343505859375,1.528163507002592,0.4956605339288711,0.11122465180046856
1725629320111377400,1.43237744140625,1.510296426400542,0.4249146805763244,-0.5827480118818581
1725629320121411300,1.442411376953125,1.2172048759520053,0.5282201567500829,-0.9823696996390819
1725629320131445500,1.452445556640625,0.9365449370533228,0.7978753020316361,-1.2616975131511687
1725629320141479400,1.4624794921875,0.7983370743244886,1.1193249319583176,-1.3148501344069838
1725629320151513300,1.472513427734375,0.7873948245495558,1.3396400000095368,-1.310526718249917
1725629320161547500,1.482547607421875,1.0251076021254062,1.4176625663667917,-1.5463777936071157
1725629320171581400,1.49258154296875,1.0163573094367981,1.7326935614228247,-1.816769436469674
1725629320181615400,1.502615478515625,0.5358861613333225,1.7998364218473433,-2.0375435003347695
1725629320191649500,1.5126494140625,-0.4905909755796194,1.4469436059087515,-1.340419167688489
1725629320201683200,1.52268310546875,-1.1707751332104206,3.0965006189614535,-1.3379315886564551
1725629320211717400,1.53271728515625,-1.0382529149025679,4.1990638012111186,-2.474338734449446
1725629320221751600,1.54275146484375,-0.8574877669513224,3.8423032039284704,-2.120418182898313
1725629320231785200,1.55278515625,-0.7651607809096574,3.469371808567643,-1.2279910583823919
1725629320241819400,1.5628193359375,-0.49631753653287886,3.3032138626396654,-1.4088669732317327
1725629320251853600,1.572853515625,0.5280220038294792,3.3369629875063893,-1.8689912066161631
1725629320261887200,1.58288720703125,1.5422352869749067,3.3685037886738773,-2.660149475352466
1725629320271921400,1.59292138671875,1.5835492941379545,3.0412463492512702,-0.20400719958990812
1725629320281955600,1.60295556640625,2.919696775856614,4.1911265784710645,0.3749465345755219
1725629320291989200,1.6129892578125,3.028143122050166,4.694591064149141,0.2242792955070734
1725629320302023400,1.6230234375,2.0489228263527153,4.60466295594275,0.2661445068120956
1725629320312057600,1.6330576171875,1.1813222461879254,3.8676720384627576,0.09492956975549459
1725629320322091300,1.64309130859375,0.22545886068046092,3.3030493197277186,0.8228466616809368
1725629320332125400,1.65312548828125,-0.41081542807519433,3.5319901773050426,2.0429025431498884
1725629320342159400,1.663159423828125,-0.7123135723412036,3.8350367200568316,2.422797640043497
1725629320352193300,1.673193359375,-0.5981061784029007,4.823126843169331,0.6909294235289096
1725629320362227500,1.6832275390625,-0.5584978061139583,6.0560933518767355,-1.0730243685543537
1725629320372261400,1.693261474609375,-0.8734452145397663,5.975110182148218,0.569755697709322
1725629320382295300,1.70329541015625,-0.617406506678462,5.392520721828937,2.9031922157794234
1725629320392329500,1.71332958984375,-0.7925520611822605,5.5346659240067,4.18882180866003
1725629320402363400,1.72336328125,-0.3840080851703882,4.917018009787798,3.8528047241985797
1725629320412397300,1.733397216796875,-0.32717794444561005,4.544968657958507,3.122003309008479
1725629320422432500,1.7434326171875,-0.7040238829016685,4.537210591177642,2.930225184133649
1725629320432466400,1.753466552734375,-1.3455167830884456,4.602997653079033,3.0347014576524494
1725629320442500400,1.763500244140625,-2.140034006863832,4.567869641074538,2.656020120462775
1725629320452534500,1.773534423828125,-2.649643863429129,4.179177782002091,1.6059136861592531
1725629320462568200,1.783568115234375,-2.9269764114707706,4.015204486636817,0.25457448052763937
1725629320472602400,1.793602294921875,-2.931606701619923,3.3262469477027654,-1.2250287014454602
1725629320482636500,1.803636474609375,-2.722109380181134,1.7436282124131917,-2.9562761557132005
1725629320492670200,1.813670166015625,-2.7890295377656815,-0.18578812721241264,-5.4766480348020785
1725629320502704400,1.823704345703125,-2.826681807550788,-2.02729902356565,-8.393487083140014
1725629320512738600,1.833738525390625,-2.5896777627661822,-3.9935269078359004,-10.760157177770138
1725629320522772200,1.843772216796875,-1.531874636480212,-6.128406308415531,-12.375932332730292
1725629320532806400,1.853806396484375,-0.20668284853994845,-7.7663821892678735,-11.91815115534067
1725629320542840600,1.863840576171875,0.17557693165838717,-8.32042476953864,-8.722282399654388
1725629320552874200,1.873874267578125,0.7091495553523302,-8.670591959905623,-5.751403718093037
1725629320562908400,1.883908447265625,1.441249924311787,-8.182555929505824,-5.738420317879319
1725629320572942600,1.893942626953125,2.9737700190886853,-7.645437596029042,-7.117014025661349
1725629320582976300,1.903976318359375,4.195944207885861,-8.1948729747653,-7.7284034640073775
1725629320593010400,1.914010498046875,8.09110572629869,-8.426652270638943,-8.039000276008247
1725629320603044400,1.92404443359375,15.200575912451743,-8.116368177849054,-7.743688711422681
1725629320613078300,1.934078369140625,30.111738670706746,-4.108146681967377,-5.417116818425059
1725629320623112400,1.944112548828125,6.840764888942242,1.1030120950609446,0.5354173747777938
1725629320633146400,1.954146484375,1.7037673266679048,0.31420301979929205,-1.7210744352996348
1725629320643180300,1.96418017578125,3.1753532064020633,-0.6429352079495787,1.6798481064200401
1725629320653214500,1.97421435546875,3.0882144366532565,0.7314613404035568,2.598561618706584
1725629320663248400,1.984248291015625,1.833778438937664,-0.11020078864544629,0.5832458784013986
1725629320673282300,1.9942822265625,0.8972492839753627,-0.20081571007221935,1.27111357627213
1725629320683316500,2.00431640625,0.11163893168978392,0.9453785241112113,0.5641974790602922
1725629320693350400,2.014350341796875,0.1509950097180903,1.2104527713432907,0.19169746085405348
1725629320703384300,2.02438427734375,1.2408968633152544,-1.2725450703799723,-0.33973464367985723
1725629320713418500,2.03441845703125,0.8933249501384795,-3.220062993483245,-0.5243126279175281
1725629320723452400,2.044452392578125,0.2805297366477549,-3.6256715005651112,0.3258060715705156
1725629320733486300,2.054486328125,0.18783362503275275,-3.070566844020784,-1.2875351342409849
1725629320743521500,2.064521484375,1.8568647154927254,-4.027710624727606,-2.084280555459857
1725629320753555200,2.07455517578125,0.8986809242136776,-6.288123407641053,-4.372145408922433
1725629320763589400,2.08458935546875,-3.9068449419438838,-4.180710398396849,-4.283454149034619
1725629320773623600,2.09462353515625,-3.858447406260669,7.028503383037448,1.3520382938116788
1725629320783657200,2.1046572265625,-3.585516600309312,10.186813684701919,4.344989106449485
1725629320793691400,2.11469140625,1.2680559422671793,7.276890699362754,2.5646657788455487
1725629320803725600,2.1247255859375,2.961191400283575,1.6122876051053403,-0.9597925416499375
1725629320813759200,2.13475927734375,1.5817586113288997,0.22537527405023575,-1.2575345482528208
1725629320823793400,2.14479345703125,1.770698297907412,0.5520683575883507,-1.830935908988118
1725629320833827600,2.15482763671875,1.335685709425807,0.6557549420341849,-1.1252245113909245
1725629320843861200,2.164861328125,0.54072132640481,0.9807210556492209,-0.7502922976016998
1725629320853895400,2.1748955078125,-0.10083704023361205,1.7846560961112379,-0.14926526331603526
1725629320863929300,2.184929443359375,-0.5497752782151103,1.0600775009587406,0.19618074374794958
1725629320873963300,2.19496337890625,-0.9499557688988745,-0.7047562888294457,-0.25826164460778234
1725629320883997400,2.20499755859375,-0.17596680775880813,-0.3268544115796685,-2.024404471167922
1725629320894031400,2.21503125,-0.060415305735170836,0.9785776138797402,-2.773220850998163
1725629320904065300,2.225065185546875,0.5003974993228912,1.369832016916573,-2.9174732545882462
1725629320914099500,2.235099365234375,0.3869347862720489,0.9168228762343525,-1.9408979204416275
1725629320924133400,2.24513330078125,0.35994945645183324,1.25972738212198,0.12951193057596683
1725629320934167300,2.255167236328125,0.7312304542571306,1.0388695854961871,1.5889152050852775
1725629320944201500,2.265201416015625,0.2639279998064041,0.9586533084869384,4.598289913779497
1725629320954235400,2.2752353515625,-1.3327356274485587,-0.062163902968168254,6.023785657989978
1725629320964269300,2.285269287109375,-3.5278292582333086,-3.038762131220102,3.317842107450962
1725629320974304500,2.295304443359375,-6.3219385834813115,-6.6489873485893005,0.11423662003278731
1725629320984338200,2.305338134765625,-6.854772371506691,-6.658824267470837,0.288732770717144
1725629320994372400,2.315372314453125,-5.6390685477674,-6.660647391244769,-0.8188497009992599
1725629321004406500,2.325406494140625,-7.682489269572496,-5.860233510646224,-3.9133331349194047
1725629321014440200,2.335440185546875,0.050834845832735294,0.07115209606587887,-1.0991139185786247
1725629321024474400,2.345474365234375,5.394166735470295,2.996476648676395,-0.5596645118057727
1725629321034508500,2.355508544921875,4.2331484416425225,2.178543478000164,-0.6373404566824435
1725629321044542200,2.365542236328125,0.6599836656451225,0.6004115327358246,-1.7584627934515475
1725629321054576400,2.375576416015625,1.3926280783534049,-0.21476561723053453,-3.4800907709807154
1725629321064610600,2.385610595703125,5.397869097119569,-1.560634867018461,-2.0710084014326333
1725629321074644200,2.395644287109375,0.8686147256433964,-4.679815519821643,-3.321886998927593
1725629321084678400,2.405678466796875,-0.18391630545854568,-5.396420067355036,-3.651934945851564
1725629321094712600,2.415712646484375,7.565664386612177,-1.4556038822263477,-2.3978648588389158
1725629321104746200,2.425746337890625,7.48391432416439,2.3924609539687633,0.0573170474588871
1725629321114780400,2.435780517578125,3.3934313091814516,3.0614485948026178,-0.04276946666836738
1725629321124814300,2.445814453125,2.9066461556255816,2.3742484209299084,-1.231692835509777
1725629321134848300,2.45584814453125,3.255619752293825,0.7228080783486366,-1.9853952338159082
1725629321144882400,2.46588232421875,1.8552759849965572,-0.09331132090389728,-3.7636353254050015
1725629321154917400,2.47591748046875,1.2197251882098614,-0.3898942205995321,-5.4700517052769655
1725629321164951300,2.485951416015625,-0.4766647415578365,0.7304255676150322,-5.5220723998934025
1725629321174985500,2.4959853515625,-2.0804526677347717,2.0769687711417673,-4.29475354168415
1725629321185019400,2.506019287109375,-4.172766453655064,1.907996352314949,-4.545177916795015
1725629321195052300,2.51605224609375,-3.990499376708269,1.959920016297698,-4.4896290480524295
1725629321205086500,2.52608642578125,-3.713483931791782,2.473555767378211,-3.767891813805699
1725629321215120400,2.536120361328125,-3.0464789892077446,3.199820708182454,-0.32072716087102887
1725629321225154300,2.546154296875,-3.110883949100971,3.1691379851490256,2.9299136339664456
1725629321235188500,2.5561884765625,-3.91162633100152,2.4854472807019947,3.4702626199275253
1725629321245222400,2.566222412109375,-4.056226525115966,1.9561592024594545,1.6153408551961184
1725629321255256300,2.57625634765625,-3.5799633500963446,0.5715419966042041,-0.8919622834831475
1725629321265290500,2.58629052734375,-1.5907318991184234,-0.9181719527557491,-2.314084751868248
1725629321275324400,2.596324462890625,2.261148111450672,-1.3046972814440727,-1.0657768816441298
1725629321285358300,2.6063583984375,6.551040184578299,-2.5093513033807278,2.8145576545149087
1725629321295392300,2.616392333984375,6.373606811398267,-3.66499842556417,4.464831291404367
1725629321305426400,2.626426513671875,4.1442479229182005,-4.384622028657794,4.234422114840149
1725629321315460400,2.63646044921875,3.1619103719830512,-4.810747546328604,2.432711715814471
1725629321325494300,2.646494384765625,2.751813321310282,-4.772528874832392,0.6464823790371418
1725629321335528400,2.656528564453125,2.669164848718047,-4.476231514079869,-0.825181242108345
1725629321345562400,2.666562255859375,1.8097072429984806,-3.3446678627952933,-0.3912771993905306
1725629321355596300,2.67659619140625,0.47274026159048077,-1.4381965280905364,0.43088206454813477
1725629321365630500,2.68663037109375,-1.56101013007164,0.00047784664481878277,-0.4986585467010736
1725629321375664400,2.696664306640625,-2.720105346882343,0.7291209147572517,-0.08243395305871963
1725629321385699300,2.70669921875,-2.4367174443244934,1.0504717604845761,-0.12039572718441485
1725629321395733200,2.716733154296875,-2.262427629867196,0.5330287260755896,-0.2584925307542085
1725629321405767400,2.726767333984375,-2.410505144703388,-0.16939911980628966,0.23026012348234653
1725629321415801300,2.73680126953125,-2.6221172663390635,-0.7294105453535914,1.1864034949749707
1725629321425835300,2.746835205078125,-2.7493080604910847,-1.3645605062544346,2.6706688235402107
1725629321435869400,2.756869384765625,-2.539749948775768,-2.007877991519868,3.4057577067911624
1725629321445903400,2.7669033203125,-1.7201275098383426,-2.235659449928999,3.476833815011382
1725629321455937300,2.776937255859375,-1.0982779792111366,-2.4228733356282115,3.0597184100091455
1725629321465971500,2.786971435546875,-1.1298837353736162,-2.272576975698769,2.1867016500145198
1725629321476005400,2.79700537109375,-1.513579101333022,-1.5799568226039409,2.116714506074786
1725629321486039300,2.807039306640625,-1.3093961067847906,-0.417466702657938,0.9632266077518462
1725629321496073500,2.817073486328125,-0.660264236152172,1.4677584304004907,-1.2607540948212146
1725629321506107400,2.827107421875,0.19523264924287795,2.4072835523083804,-2.3525211577683685
1725629321516141300,2.837141357421875,0.6180363290145993,1.297576051262021,-2.459508537325263
1725629321526175500,2.847175537109375,1.853054801815748,0.06544950051009654,-2.5073487313866614
1725629321536209400,2.85720947265625,3.8270308159947395,-0.7534313262797891,-1.8205992238909006
1725629321546243300,2.867243408203125,5.464798022532463,-2.217457292153686,-1.0078232898473738
1725629321556277200,2.87727734375,7.0156713739931575,-4.06438820426166,-0.543121373283863
1725629321566311400,2.8873115234375,7.292986094117164,-4.705874674707651,0.0827712221890688
1725629321576345300,2.897345458984375,4.2002392747312784,-1.1076058525919914,1.5380109472781418
1725629321586379300,2.907379150390625,-0.03201777102947235,2.2466659971117973,3.3123253898561
1725629321596413400,2.917413330078125,-3.936892874205112,4.343414989000559,3.389948727762699
1725629321606447400,2.927447265625,-5.779209424385428,6.1370017028033725,2.1213450884848832
1725629321616481300,2.937481201171875,-7.63028094342947,5.230929645425081,0.5456377400189638
1725629321626515500,2.947515380859375,-6.364919062551856,3.6151913153439756,-1.3963853850603103
1725629321636549400,2.95754931640625,-1.8953963984608648,4.74866956807822,-2.43534323336184
1725629321646583300,2.967583251953125,1.2501704492256045,4.119287961445749,-2.33149999704957
1725629321656617500,2.977617431640625,4.09804351336509,1.9276146604984998,-1.2669944505155086
1725629321666651400,2.9876513671875,6.49870735527277,0.5595622204750776,0.33865269366204737
1725629321676685300,2.997685302734375,6.574856528973579,-0.3493151035822928,1.5399913074404001
1725629321686719500,3.007719482421875,4.9324102247089145,-1.0517945335209369,2.56000012512207
1725629321696753400,3.01775341796875,2.8615321716576814,-0.9847615632116794,3.4088211860150097
1725629321706787300,3.027787353515625,1.1841316045202315,-1.1149375106543302,2.8764368953227994
1725629321716821500,3.037821533203125,0.471572386854887,-1.012040030759573,1.6787784313619136
1725629321726855200,3.047855224609375,-0.22550153077840804,-0.4215834903270006,1.346698686349392
1725629321736888800,3.057888916015625,-0.8708972836226224,-0.3309440189808607,0.3370943583041429
1725629321746923000,3.067923095703125,-0.7692815871667117,-0.3146189071238041,0.07104337499439715
1725629321756957700,3.077957763671875,-0.7003156760334969,-0.514665094128251,0.3299707900345325
1725629321766992000,3.087991943359375,-1.4258078788995743,-0.5422025048732757,1.4811702851593493
1725629321777026000,3.098026123046875,-2.639790870195627,-0.4782274608299136,2.011134655228257
1725629321787059700,3.108059814453125,-1.4158932186067104,1.6246905750826,2.0067542481869456
1725629321797094000,3.118093994140625,-3.965097224426269,5.0712008557617665,2.8847733465135095
1725629321807128000,3.128128173828125,-6.481318998098373,4.836901101499795,1.7835510574787854
1725629321817161700,3.13816162109375,-5.65863366445899,2.930970741803944,-1.1106395211994646
1725629321827196000,3.14819580078125,-6.312471082434058,1.703227812963724,-2.0080600700885056
1725629321837230000,3.15822998046875,-10.427336259001493,1.6000830803096293,1.1656371858000754
1725629321847263700,3.168263671875,-15.171838478267192,0.2592716984331608,5.150122416785359
1725629321857298000,3.1782978515625,-10.502872853761911,-1.6788073651954531,2.388705400827527
1725629321867332000,3.18833203125,-7.16632370775342,-2.21743639549613,3.6677556153178212
1725629321877365800,3.19836572265625,-0.5114730200886726,2.3407886343985793,7.992265997362137
1725629321887400000,3.20839990234375,4.144256690746546,4.3760006230458615,4.953426124730706
1725629321897434000,3.21843408203125,10.160650484919547,1.847928252582252,-0.5612701934367418
1725629321907467800,3.2284677734375,27.21121947352886,0.00879296278655529,-12.72625851305127
1725629321917502000,3.238501953125,24.124632930338382,-0.7146890693008899,-19.876419021511076
1725629321927535900,3.248535888671875,-1.5893103418827057,0.18138415663242338,-11.122268488430976
1725629321937569800,3.25856982421875,-8.399176234692334,1.8897586848348378,-2.734581616002321
1725629321947604000,3.26860400390625,-8.888700457823276,2.2320541189134118,-1.9487574017703533
1725629321957638000,3.278637939453125,-3.1898294755220413,0.025606150421500204,-1.7792039681851863
1725629321967671800,3.288671875,-0.32336803076863285,-1.6029551286146044,-2.213211471277475
1725629321977706000,3.2987060546875,-1.6915642631769179,-4.000265276180207,-2.1866946357518433
1725629321987740000,3.308739990234375,-0.4740683683890849,-4.749165827162564,-1.3814128568559885
1725629321997773800,3.31877392578125,1.2245557501714677,-3.830513689674437,-1.4921236408501863
1725629322007808000,3.32880810546875,1.5069383481442928,-4.076107868149876,-1.9606056604743003
1725629322017842000,3.338842041015625,1.072862967447564,-4.026847870418429,-1.6644091297477484
1725629322027875800,3.348875732421875,0.783058256649971,-3.667228668834269,-1.4979454788714646
1725629322037910000,3.358909912109375,0.5652186022689566,-3.6478070522665975,-1.5789806710481642
1725629322047944000,3.36894384765625,0.0052080535044893616,-3.475261451128125,-1.3577882356405258
1725629322057977900,3.378977783203125,-0.9975918186902999,-2.9292747515410182,-1.3729805440753697
1725629322068012000,3.389011962890625,-2.0981202802419663,-1.9690531708240508,-1.1822896299153565
1725629322078046000,3.3990458984375,-3.031578357195854,-1.5729913675054907,-0.3881125978797674
1725629322088081000,3.409080810546875,-3.388568087059259,-1.2998378587141632,0.10831482876837253
1725629322098115000,3.419114990234375,-3.398313236004114,-0.5506099754735827,0.5044330384492873
1725629322108148700,3.429148681640625,-3.604133914756775,0.0255824772849679,1.5492881280958652
1725629322118183000,3.439182861328125,-3.992041345453262,0.24989947445392607,2.1177426800787447
1725629322128217000,3.449217041015625,-4.328426678705215,0.8962043049670755,2.7735283095121384
1725629322138250800,3.459250732421875,-3.572591944545507,0.9422437332168221,2.7547674949407575
1725629322148285000,3.469284912109375,-0.1871264996767044,-0.42191111484616994,3.2642461263418197
1725629322158319000,3.479319091796875,0.704327980414778,3.0817151377618313,2.874054384100437
1725629322168352800,3.489352783203125,-0.8394068974681198,5.082865574592351,3.3856209276914595
1725629322178387000,3.499386962890625,-0.6387830567061901,4.695106612455844,4.0607647530674935
1725629322188420900,3.5094208984375,1.2209925777971744,4.3158968674778935,3.7485400476038455
1725629322198454800,3.519454833984375,2.2874070266924798,4.633605849571526,3.3851936421900986
1725629322208489000,3.529489013671875,1.6368750800035894,2.3131746512860056,4.53716762881875
1725629322218523000,3.53952294921875,1.6756944938719271,2.3555391904152927,5.116094474977254
1725629322228556800,3.549556884765625,2.337538400430977,5.452518386673927,4.014161991846561
1725629322238591000,3.559591064453125,1.5422854097269474,5.943501576441526,5.3954059218764305
1725629322248625000,3.569625,1.684719804109633,7.16117465442717,4.735303598287701
1725629322258658800,3.579658935546875,0.6109843646764755,8.309636833542585,2.1655466337829825
1725629322268693000,3.58969287109375,0.19906272892504928,9.560603693842888,-1.6139987929373978
1725629322278727000,3.599726806640625,1.0056500374615192,9.737384156072139,-5.696523542392254
1725629322288760800,3.6097607421875,2.1004957772016524,8.79573868100941,-12.67232467828989
1725629322298795000,3.619794921875,1.9258269002988933,5.48815259463489,-12.863840937358141
1725629322308829000,3.629828857421875,1.4280308156460524,2.006267341452837,-10.523299555718898
1725629322318862800,3.63986279296875,0.7279591775014996,0.4027816861581057,-7.398425075188278
1725629322328897000,3.64989697265625,0.7111947974443436,0.30949878763109445,-2.386473111730814
1725629322338931000,3.659930908203125,-0.12045827102661132,-0.34793161333464084,0.8216419620662927
1725629322348964900,3.66996484375,-1.7270345127478242,-2.199432390641421,2.31898596791327
1725629322358998800,3.679998779296875,-2.657470611532032,-3.2011773834884165,3.457564466395974
1725629322369033700,3.69003369140625,-2.1491069556355473,-2.6009844619393347,3.6968431781142947
1725629322379068000,3.70006787109375,-0.8017924754753708,-1.2457901883147655,3.116204851862788
1725629322389102000,3.71010205078125,-0.5523123954772949,-0.1307566334074363,2.2457214097380636
1725629322399135700,3.7201357421875,-0.918970409657061,0.14909838231652975,1.314189332410693
1725629322409170000,3.730169921875,-0.7078650684997438,-0.24681699826866388,0.7917699708938598
1725629322419204000,3.7402041015625,-0.15786036544293164,-0.8270426520660519,-0.15181553232073783
1725629322429237800,3.75023779296875,0.5574453744515776,-1.5411705803528428,-0.9435878413021563
1725629322439272000,3.76027197265625,1.0298670716121792,-1.9300538703441619,-1.030611460238695
1725629322449305900,3.770305908203125,1.1370163637325168,-1.2756268159128725,-1.200014087176323
1725629322459339800,3.78033984375,0.825970054398477,-0.2151737961726263,-1.143161150097847
1725629322469374000,3.7903740234375,0.2574175949990749,0.2026973225677386,-0.680963909831643
1725629322479407900,3.800407958984375,0.02935819643139839,0.2966055499188602,-0.4020195426791906
1725629322489441800,3.81044189453125,-0.05729600467085838,0.287027647299692,-0.09469488421678543
1725629322499476000,3.82047607421875,-0.17043313902914523,0.015155154762230812,0.32877602729201316
1725629322509510000,3.830510009765625,0.09336334335207938,0.0061177522279322145,0.6016904666304588
1725629322519543800,3.840543701171875,0.2680886266171932,0.057698301861435174,0.5712374606996774
1725629322529578000,3.850577880859375,0.2842500723451376,0.05505681090932339,0.25199732351601123
1725629322539612000,3.86061181640625,0.25792612904310225,-0.05456796794645488,-0.2411275544553995
1725629322549645800,3.870645751953125,0.4315606944620609,-0.04700129555184394,-0.7080459780246019
1725629322559680000,3.880679931640625,-0.03779781573563814,-0.4632359356641769,-0.7903069126039743
1725629322569714000,3.8907138671875,-0.2061025644339621,-0.6562708556670696,-0.6079220544964075
1725629322579747800,3.900747802734375,-0.017303893761336803,-0.5363245892832056,-0.23867723869383334
1725629322589782000,3.910781982421875,0.2585319859817624,-0.418166448425129,0.07269757194221019
1725629322599816000,3.92081591796875,0.2907683681979775,-0.4155224732549861,0.18132628896534442
1725629322609849900,3.930849853515625,0.3016159254267812,0.22196778542799875,-0.23528175103664398
1725629322619883800,3.9408837890625,0.24152473707944153,0.15282403350984677,-0.2500415132731199
1725629322629918700,3.950918701171875,0.29609774652719495,0.4252625806985423,-0.6362713661462068
1725629322639953000,3.960952880859375,0.40787031453400846,0.5814727677816525,-0.6908516821175813
1725629322649987000,3.970987060546875,0.508175147587061,0.5119232480742038,-0.3764367731332779
1725629322660020700,3.981020751953125,0.22629764959216117,-0.20541861902410163,0.4851180971264839
1725629322670055000,3.991054931640625,-0.25569237864166494,-0.8670942380778491,2.072029561173916
1725629322680089000,4.001089111328125,-0.7043579371616244,-1.3314815357342362,3.287328311243653
1725629322690122800,4.011122802734375,-0.6849496184669435,-1.1980322657093405,3.6222996860444545
1725629322700157000,4.021156982421875,-0.32543504630103703,-0.948536768946424,3.792382696461677
1725629322710190800,4.03119091796875,0.4785549392186105,-0.19690609888043253,3.5154233656466003
1725629322720224800,4.041224853515625,1.824248394048214,1.094290151683986,2.1844547478705643
1725629322730259000,4.051259033203125,4.615808034813404,2.6338012743920087,-3.050558367475867
1725629322740292900,4.06129296875,3.3976690928816793,1.766071953281015,-10.945979024589061
1725629322750326800,4.071326904296875,-1.3602315371394156,-0.8378252542998641,-10.774541092431544
1725629322760360700,4.081360595703125,-0.1973614779651165,-1.1423754065476357,-3.512600709441304
1725629322770395000,4.091394775390625,0.6750123079508542,-1.9435931508749722,0.12273206117749214
1725629322780428500,4.101428466796875,0.582443329846859,-2.383528290450573,1.0094523523539305
1725629322790462700,4.111462646484375,-0.34167174922227855,-2.3090125631704925,1.2129244221538305
1725629322800497000,4.121496826171875,-1.2633353434860706,-1.757428774228692,1.228658582380414
1725629322810530600,4.131530517578125,-1.6603870346248149,-1.4282048570387065,1.0547235727101565
1725629322820564700,4.141564697265625,-1.4768857397079467,-1.1873884143590927,1.0707283665716647
1725629322830599000,4.151598876953125,-1.171479482087493,-1.0404389537047594,1.0857266137391328
1725629322840632600,4.161632568359375,-0.7715840919554233,-0.5976719517040997,1.2305366512119769
1725629322850666800,4.171666748046875,-0.5847803214270622,-0.07996675922758877,1.2576771715939044
1725629322860701000,4.181700927734375,-0.5812502841373905,0.309625482750684,1.1623808143526315
1725629322870735600,4.191735595703125,-0.3172229156097397,0.8005680482469498,0.9109048843622207
1725629322880769800,4.201769775390625,0.14525310506522654,1.3158236556142568,0.5159013579249382
1725629322890803700,4.2118037109375,0.7373352008730173,1.6269351391389966,0.03661152856051922
1725629322900837600,4.221837646484375,1.318313134342432,1.7597443576946854,-0.3325245661705732
1725629322910871800,4.231871826171875,1.3812164575010537,1.5463932834371923,-0.42138475288450716
1725629322920905700,4.24190576171875,0.9458756599783897,0.9077204091072082,-0.1654196947813034
1725629322930939600,4.251939697265625,0.1696153929054737,0.2402026946954429,0.180403913423419
1725629322940973800,4.261973876953125,-0.6736539521444589,-0.03345832522660493,0.4553992506891489
1725629322951007700,4.2720078125,-1.2677350397497416,-0.14981252193525432,0.4596241749078035
1725629322961041700,4.282041748046875,-1.4931569294206797,-0.09261632437705992,0.16253683282136916
1725629322971075800,4.292075927734375,-1.1580541833251714,0.11546133952215314,-0.5152817647218704
1725629322981109800,4.30210986328125,-0.5593454359192401,0.3360385656408965,-1.170475858002901
1725629322991143700,4.312143798828125,-0.30851058031134304,0.45591889064908026,-1.3307061674475669
1725629323001177900,4.322177734375,-0.29593517637662586,0.3941141763821244,-0.9374731578141451
1725629323011211800,4.332211669921875,-0.26761231434233484,0.19434636792764068,-0.47040743472874164
1725629323021245700,4.34224560546875,-0.13660101205408573,0.028671237080544233,-0.010351882666349411
1725629323031279900,4.35227978515625,-0.06857493905425072,-0.03789740365259349,0.34247955847382544
1725629323041313500,4.3623134765625,-0.13708499617874623,-0.14249284657165406,0.38088206210434433
1725629323051347700,4.37234765625,-0.06564874940924346,-0.20850984477140008,0.27718437174260613
1725629323061382000,4.3823818359375,0.15862345876991749,-0.20918394464068113,0.16878303373456
1725629323071415600,4.39241552734375,0.49483577354252334,-0.21711305713951587,0.08523732004165649
1725629323081449700,4.40244970703125,0.8587351366639137,-0.02285385603867471,0.1984247232824564
1725629323091484700,4.412484619140625,1.1417541328441352,0.14432904902286828,0.11721183645129203
1725629323101518800,4.422518798828125,1.3001350880950688,0.05538344904780387,-0.04683598545491695
1725629323111552800,4.432552734375,1.225809111233428,0.024951668568141756,0.12975100002884865
1725629323121586700,4.442586669921875,0.8936001138180494,0.1075449769070372,0.48082478384673594
1725629323131620600,4.45262060546875,0.7489028890699148,0.11594930570218712,0.8241454693198204
1725629323141654800,4.46265478515625,0.9227110574901104,0.23575086638573556,0.9357494027614593
1725629323151688700,4.472688720703125,1.0082705221582204,0.21721965931914747,0.5384802694797516
1725629323161722600,4.48272265625,1.003572646665573,0.19622308505233377,0.15897709451317787
1725629323171756800,4.4927568359375,0.9489864124100654,0.2933125727880746,0.056602177187800404
1725629323181790700,4.502790771484375,0.7908685650747269,0.29252460074815895,0.05639934809207916
1725629323191824600,4.51282470703125,0.6300918007284403,0.2862465433919802,0.01012275008559227
1725629323201858800,4.52285888671875,0.628646862617135,0.30005399160599333,-0.369377502271533
1725629323211892700,4.532892822265625,0.6004647242277861,0.1872586198900826,-0.8202098834365605
1725629323221926700,4.5429267578125,0.4626590856242925,0.21628743823664262,-0.8245300847232341
1725629323231960800,4.5529609375,0.4536077641624957,0.18142887255698442,-0.7948790428251028
1725629323241994800,4.562994873046875,0.43426878437697886,0.11491639159102923,-1.0122072040200232
1725629323252028700,4.573028564453125,0.31608897967636584,0.07376240642843768,-1.0401894359230994
1725629323262062800,4.583062744140625,0.43248314306922253,0.0911717333256267,-1.1491951695650815
1725629323272096800,4.5930966796875,0.5635035054467619,0.06246631998084485,-1.4796388378083705
1725629323282130700,4.603130615234375,0.5539671769469976,0.12760375886708497,-1.382829153394699
1725629323292164900,4.613164794921875,0.42691155348196624,0.22276943893339485,-1.0323428140759467
1725629323302199800,4.62319970703125,0.3798702547132969,0.27449743421357126,-0.8015601280242204
1725629323312233700,4.633233642578125,0.3215285403817892,0.5163960826393217,-0.15040391195714473
1725629323322267600,4.643267578125,0.16471125425100325,0.7182411357592791,0.556452564021945
1725629323332301800,4.6533017578125,0.06787190535143017,0.8316466387301683,0.5825801079690456
1725629323342335700,4.663335693359375,0.03900558409020304,0.9130850048802792,0.060866264373064034
1725629323352369700,4.67336962890625,0.023922288987785575,1.0562697792388498,-0.5226496631413697
1725629323362403800,4.68340380859375,0.09154781836271285,1.0616456270582972,-0.6144511640042066
1725629323372437800,4.693437744140625,0.24204306186512112,0.9364056747131049,-0.5376186842143535
1725629323382471700,4.7034716796875,0.34563422311246395,0.9311281727015972,-0.3829886789947748
1725629323392505600,4.713505615234375,0.3850112708635628,0.6711562170445918,-0.41703298741579053
1725629323402539800,4.723539794921875,0.41007103944867845,0.2750591232169419,-0.1439256558537483
1725629323412573700,4.73357373046875,0.34863603527694936,-0.011576602155715227,0.1181716213941574
1725629323422607600,4.743607666015625,0.2945204142078757,-0.3064773939833045,0.18961656292676923
1725629323432641800,4.753641845703125,0.04541384369730949,-0.5864379524409771,0.4477835149884224
1725629323442675700,4.76367578125,0.012858604790270328,-0.7918776690520346,1.0688421144336462
1725629323452709600,4.773709716796875,-0.3181485425546765,-1.3086780216433107,0.790113435858488
1725629323462743800,4.783743896484375,-0.38416882869005203,-1.4909671642914413,0.7963228118926287
1725629323472777700,4.79377783203125,-0.24141806183457373,-1.447008926229924,1.2293968335270882
1725629323482811600,4.803811767578125,-0.2949865704149008,-1.575213281338662,1.3353320736825465
1725629323492845800,4.813845703125,-0.32079584219306706,-1.6659505139708517,1.4025614433467388
1725629323502880800,4.823880859375,-0.21480945637226104,-1.6138387800700962,1.4442331779062747
1725629323512914700,4.833914794921875,-0.07949819186776876,-1.3688318999633193,1.159987197214365
1725629323522948900,4.843948974609375,-0.05519084908515215,-0.9492267239719628,0.6744909144252538
1725629323532982800,4.853982666015625,-0.32555998785495754,-0.30532354777306314,0.15076806909441948
1725629323543016700,4.8640166015625,-0.16500643780529498,0.1843937867771834,-0.5605757814317941
1725629323553051000,4.87405078125,-0.029088731840252874,0.4592428474400192,-0.7699936078935861
1725629323563084800,4.884084716796875,0.005395721563696861,0.6864556391157209,-0.04928513217270374
1725629323573118700,4.89411865234375,-0.016531448084115982,0.740693059933558,0.6900964798361062
1725629323583153000,4.90415283203125,-0.030533962212502954,0.7114782174956054,0.8250561544239521
1725629323593186800,4.914186767578125,-0.12052870591431855,0.6983876305803656,0.3840899182349443
1725629323603220700,4.924220703125,-0.2245189494818449,0.608215411419794,0.18501169947981833
1725629323613255000,4.9342548828125,-0.2278404951199889,0.281559445021674,0.16547931601405141
1725629323623288800,4.944288818359375,-0.089703067278862,0.1191443388838321,0.0709153647005558
1725629323633322800,4.95432275390625,0.05939677634239197,0.06981668274365366,-0.18375965359210966
1725629323643357000,4.96435693359375,0.21006021601855754,-0.014710954658687114,-0.22670447682738304
1725629323653390600,4.974390625,0.32365912266969676,-0.06530373536385596,-0.24347908601760862
1725629323663424800,4.9844248046875,0.37306583539545535,-0.062030924238264555,-0.4318447721004486
1725629323673458700,4.994458740234375,0.3579498070672154,-0.1860071402579546,-0.6221668529480695
1725629323683492600,5.00449267578125,0.2988844546362758,-0.39859855525456367,-0.5072621243953704
1725629323693527800,5.01452783203125,0.2224026879802346,-0.595074482556805,-0.3286562003046274
1725629323703561700,5.024561767578125,0.1786217061817646,-0.7505399887524544,-0.3790267896264791
1725629323713596000,5.034595947265625,0.22151859862208365,-0.8480099637057632,-0.5858563531607389
1725629323723629800,5.0446298828125,0.16720774724185467,-0.8971636515185236,-0.6123141519755124
1725629323733663700,5.054663818359375,0.11293255169689655,-0.8447161828573793,-0.495256044781208
1725629323743697400,5.064697509765625,0.1428770235836506,-0.7927655578024685,-0.7410352244347334
1725629323753731600,5.074731689453125,0.16838614337146282,-0.734847037319094,-1.0734440552711486
1725629323763765200,5.08476513671875,0.06569324613809585,-0.6840542770624161,-0.8353595217734575
1725629323773799400,5.09479931640625,0.04202273995429277,-0.5039828104637563,-0.32354338733553883
1725629323783833600,5.10483349609375,0.15567045418322084,-0.3283565597709268,-0.05302899487614631
1725629323793867300,5.1148671875,0.1924596773982048,-0.21587103945547714,-0.1905026981115341
1725629323803901400,5.1249013671875,0.20223697504699228,-0.07348294559966306,-0.5240343954980373
1725629323813935400,5.134935302734375,0.11461012952029705,0.0653257416996872,-0.7159510520607233
1725629323823969300,5.14496923828125,0.04323971452862024,0.0325754734108923,-0.9669260467916726
1725629323834003500,5.15500341796875,0.08419804012179374,-0.23548304576240478,-1.1644979526370762
1725629323844037400,5.165037353515625,0.11090952143669128,-0.4789089402880519,-0.8959370323330164
1725629323854071300,5.1750712890625,0.1087804004535079,-0.8672668181657791,-0.5901069963425397
1725629323864106500,5.1851064453125,0.2236711004808545,-1.5121908618450164,-0.5485357995480299
1725629323874140400,5.195140380859375,0.4414724321454763,-1.868132397829741,-0.10123685320615768
1725629323884174300,5.20517431640625,0.41199382420480246,-1.7740588603816925,0.4191086246460676
1725629323894208500,5.21520849609375,-0.008252864560484886,-1.520770766402781,0.8194634489834308
1725629323904242200,5.2252421875,-0.3624734219714999,-0.9405104796834289,1.1722370224565266
1725629323914276400,5.2352763671875,-0.39439737723767754,-0.519120246906206,1.1292279018133877
1725629323924310500,5.245310546875,-0.2802490200102329,-0.26539872994609176,0.7329033559054136
1725629323934344200,5.25534423828125,-0.14926993949115275,-0.09938720675148069,0.16056524048745632
1725629323944378400,5.26537841796875,-0.14343524198830127,0.12273147665560245,-0.23274200342595575
1725629323954412500,5.27541259765625,-0.17429799776375293,0.3450171141274273,-0.42921500811874863
1725629323964446200,5.2854462890625,-0.2808662751257419,0.5594062992610037,-0.41921559215188026
1725629323974480400,5.29548046875,-0.4856964815363288,0.5997450316511094,-0.31052316224277016
1725629323984514600,5.3055146484375,-0.5726204394906759,0.5641410726979375,-0.0486550175756216
1725629323994548200,5.31554833984375,-0.54381695433259,0.731149497975409,0.45872927189469337
1725629324004582400,5.32558251953125,-0.4994806767389178,0.7249054890193045,0.9686889648109673
1725629324014616600,5.335616455078125,-0.4253156625926494,0.6441993826664983,1.3540952263414858
1725629324024650200,5.345650146484375,-0.24629823509156704,0.1296826109677553,1.1101689810782671
1725629324034684400,5.355684326171875,0.037333997616171836,-0.3553549682684243,0.5175397727817297
1725629324044719400,5.36571923828125,0.031788346187770364,-0.3919755569182336,0.2077402486383915
1725629324054753300,5.375753173828125,-0.08609598269760609,-0.47988472651764746,-0.17983342005908487
1725629324064787500,5.385787353515625,-0.009563070376217364,-0.4673544768989086,-0.5904723225235938
1725629324074821400,5.3958212890625,0.1400660578161478,-0.2983461099758744,-0.7301923433810472
1725629324084855300,5.405855224609375,0.19374679459929464,-0.12564648731946945,-0.5770049381852149
1725629324094889500,5.415889404296875,0.1682043570637703,0.01814348639063537,-0.24544834026396273
1725629324104923400,5.42592333984375,0.03799216926395893,-0.018468188300356268,-0.128920394423604
1725629324114957300,5.435957275390625,-0.029121757327020166,-0.09097571756318211,-0.2330097144514322
1725629324124991500,5.445991455078125,0.02888064204752445,0.0332643370244652,-0.15230594618618487
1725629324135025400,5.456025390625,-0.024828444047272205,0.08282492513768375,-0.14293839838206768
1725629324145059300,5.466059326171875,-0.17203677483350038,-0.024793080472946167,-0.2649269477158785
1725629324155093500,5.476093505859375,-0.17527853323370218,-0.08139554992169142,-0.4095703964501619
1725629324165127200,5.486127197265625,-0.0631207653015852,-0.14220745375901458,-0.5221124875247478
1725629324175161300,5.496161376953125,0.13544862714856862,-0.044017640098556875,-0.3655278411060571
1725629324185195500,5.506195556640625,0.5254387093380093,0.1088492644386366,-0.3078641721665859
1725629324195230500,5.51623046875,0.813974496178329,0.0880700592495501,-0.3835983353257179
1725629324205264400,5.526264404296875,0.8169692940801382,-0.06905841172225773,-0.225656429079175
1725629324215298300,5.53629833984375,0.6137243110343814,-0.2105031922793947,-0.1385404556840658
1725629324225332500,5.54633251953125,0.16406185043156146,-0.547962639302574,-0.2562245858222246
1725629324235366400,5.556366455078125,-0.1673281587511301,-0.7333950849451124,-0.19810089815557003
1725629324245400300,5.566400390625,-0.20332360123991966,-0.8027821440998464,-0.14857786557376385
1725629324255434200,5.576434326171875,-0.1046387706041336,-0.7819235535316169,-0.276250305762887
1725629324265468400,5.586468505859375,-0.0442892235815525,-0.6587430179342627,-0.31044717439711095
1725629324275502300,5.59650244140625,-0.1711801580041647,-0.5990596797354519,-0.25339900700747964
1725629324285536300,5.606536376953125,-0.3127899381309748,-0.4962236111717298,-0.3640320495903492
1725629324295570400,5.6165703125,-0.26156770041584965,-0.36345278839766976,-0.5205822092175484
1725629324305604400,5.626604248046875,-0.07747077769339084,-0.3077135481821373,-0.3735293612539768
1725629324315638300,5.63663818359375,0.130940209813416,-0.31739271921869366,0.21435937451720236
1725629324325672400,5.64667236328125,0.23206834194809198,-0.36256464391890914,0.48261868152618403
1725629324335706400,5.656706298828125,0.25712416501045227,-0.29748182129673656,0.13354454709291458
1725629324345740300,5.666740234375,0.23740941071510313,-0.2427060558184981,-0.3012204963684082
1725629324355775200,5.676775146484375,0.32047406289279456,-0.24613427670150995,-0.6035322951048612
1725629324365809400,5.686809326171875,0.38530338567793365,-0.16892931033745406,-0.7827303398698567
1725629324375843300,5.69684326171875,0.321366627818346,-0.02646437468603253,-0.7230033086597919
1725629324385877200,5.706877197265625,0.12807400672733782,0.053568143254145974,-0.6629080286592245
1725629324395911400,5.716911376953125,-0.09804419464468955,0.11831548684425651,-0.6872393368393183
1725629324405945300,5.7269453125,-0.177479550409317,0.17709756535440682,-0.48084231950342654
1725629324415979300,5.736979248046875,-0.29130057537853715,0.09572364274263381,-0.015173603734374045
1725629324426013400,5.747013427734375,-0.3654249652534723,0.06872106952667235,0.3937123175829649
1725629324436047400,5.75704736328125,-0.5182487978339195,0.05822634432353079,0.2304524311840534
1725629324446081300,5.767081298828125,-0.5092559285610914,0.10309782477244735,-0.1841366702109575
1725629324456115500,5.777115478515625,-0.2962140663832426,-0.12852693812660873,-0.45435061841905117
1725629324466149400,5.7871494140625,-0.2880307599276304,-0.41046303444094956,-0.7696499090224505
1725629324476183300,5.797183349609375,-0.7033990290015936,-0.4530731458291411,-0.8176105145931244
1725629324486217500,5.807217529296875,-0.8208388289898634,-0.27595497607812286,-0.1488186885923147
1725629324496251400,5.81725146484375,-0.686627926942706,-0.23810228835009037,0.5850386070370673
1725629324506286300,5.827286376953125,-0.5219838927090168,-0.20744038890898225,1.5710539697021244
1725629324516320500,5.837320556640625,-0.9277110577344894,-0.8195566802248359,1.0236714318424462
1725629324526354400,5.8473544921875,-0.24881167921721933,-0.7780717004090547,1.064426051557064
1725629324536388400,5.857388427734375,0.14214695574343203,-0.5089513926565646,1.2432535094439983
1725629324546422500,5.867422607421875,-0.009842179578542708,-0.30032427818104623,0.956332172062993
1725629324556456400,5.87745654296875,-0.1378869602113962,0.029893910743296146,0.9676818335950375
1725629324566490400,5.887490478515625,0.5776338837385178,0.20188158573806284,0.9272656520545483
1725629324576524500,5.897524658203125,1.3439905964344738,0.22895020992755888,0.26560850023925303
1725629324586558500,5.907558349609375,1.2157704592347145,0.3604463000580668,0.10277473029792308
1725629324596592400,5.91759228515625,1.2703998750448227,0.32218802720382805,0.3605529753029346
1725629324606626300,5.927626220703125,1.4710153863698243,0.09815152747668325,0.5374585252165794
1725629324616660500,5.937660400390625,1.3907131846427916,0.025389585061371324,0.9271668678551912
1725629324626694400,5.9476943359375,1.0445452930450438,-0.004579729005694389,1.0596645362436772
1725629324636728300,5.957728271484375,0.5704986250311136,-0.06501658898554742,0.7319733815789222
1725629324646762500,5.967762451171875,0.02465045713186264,0.026933526567742228,0.33308044648766516
1725629324656797400,5.97779736328125,-0.09555763852596283,0.05909216737262904,0.05138531932234764
1725629324666831600,5.98783154296875,-0.10292261433601378,-0.060582259799912566,-0.19228256726562976
1725629324676865300,5.997865234375,-0.24379531235992907,-0.1132994853131473,0.05373568184077739
1725629324686899500,6.0078994140625,-0.5494990916222333,-0.09671842593364417,0.8602829506278038
1725629324696933400,6.017933349609375,-0.6877724208027124,-0.17866656823679805,0.6971469828695058
1725629324706967300,6.02796728515625,-0.5653098242163658,-0.18342676837593316,-0.19542086529135702
1725629324717001500,6.03800146484375,-0.4089133938461542,-0.10583119525909424,-0.7566670933306217
1725629324727035400,6.048035400390625,-0.4462345319807529,0.010039163455367088,-0.8101163594454527
1725629324737069300,6.0580693359375,-0.5554442637622357,0.14571816529370843,-0.8317126897037028
1725629324747103200,6.068103271484375,-0.6451525917381048,0.1701467233031988,-0.9710662153363228
1725629324757137400,6.078137451171875,-0.5593880329519509,0.1338720985468477,-0.9866332023024559
1725629324767171000,6.088171142578125,-0.3073714202135801,0.08874488977119326,-0.7991349467039108
1725629324777205200,6.098205322265625,-0.12284428938031196,0.041430144356004894,-0.5772726492106914
1725629324787239400,6.108239501953125,-0.15838029766380787,-0.021793569863401353,-0.46376901962757106
1725629324797274400,6.1182744140625,-0.15067746820151806,-0.068672079285793,-0.38467560916841026
1725629324807308300,6.128308349609375,-0.1367985804527998,-0.037263197402283545,-0.26624446005523206
1725629324817342200,6.13834228515625,-0.21210487358868121,-0.07303093208242208,-0.024524200403690338
1725629324827376400,6.14837646484375,-0.17764672366976736,-0.1719644585159607,-0.08604922094643115
1725629324837410300,6.158410400390625,-0.03437456328868866,-0.26538923146538435,-0.35496553055942054
1725629324847444200,6.1684443359375,0.0034960254222154616,-0.30938020275272426,-0.3458873210906982
1725629324857478400,6.178478515625,-0.03791267428696155,-0.3439638422148302,-0.3104132721275091
1725629324867512300,6.18851220703125,-0.08091711875498295,-0.5322251180751248,-0.5571177499324083
1725629324877546200,6.198546142578125,-0.05602876121401786,-0.779830672905594,-0.574824671536684
1725629324887580200,6.208580078125,0.052420507588982576,-0.8586714237779378,-0.4955962365210056
1725629324897614300,6.2186142578125,-0.018913374784588814,-0.8842972287479788,-0.4248012833297252
1725629324907648300,6.228648193359375,-0.06850128929615021,-0.9043068012714386,-0.3645850072979927
1725629324917682200,6.23868212890625,-0.18336334775090216,-1.0581666989013552,-0.2892465654581785
1725629324927716400,6.24871630859375,-0.08687222776710987,-0.9368443583913146,-0.22369711170494555
1725629324937751300,6.258751220703125,-0.02650163795650005,-0.7283000998936593,-0.03373392729759216
1725629324947785500,6.268785400390625,-0.011040449452400207,-0.7241988020546734,0.038487843826413154
1725629324957819100,6.278819091796875,-0.16001052921414374,-0.5599950224017725,0.011956395253539085
1725629324967853300,6.288853271484375,-0.4574748879194259,0.01960574096292257,0.22662556637227535
1725629324977887200,6.29888720703125,-0.7695435260385275,0.5549832951869815,0.3879425020098686
1725629324987921200,6.308921142578125,-0.7579547950536012,0.8995849603813141,0.2822416551321745
1725629324997955300,6.318955322265625,-0.4368202224254608,1.049713781724125,0.018721651604771614
1725629325007989200,6.3289892578125,-0.24230098214894533,1.0685405011385678,-0.22696108193695544
1725629325018023200,6.339023193359375,0.04854746554791927,0.9582977730475366,-0.21330197441875934
1725629325028057300,6.349057373046875,0.5611164641797542,0.8668012464806437,0.07860767276883125
1725629325038091300,6.35909130859375,0.9286603212833404,0.6835865864854306,0.2566261523604393
1725629325048125200,6.369125244140625,0.9576713117122649,0.6709237965282052,0.5788356607437134
1725629325058159400,6.379159423828125,0.7627753470778464,0.6765775845061988,0.9741735337018966
1725629325068194000,6.389194091796875,0.5874602812260389,0.5778711265604942,1.1682511676907539
1725629325078228200,6.399228271484375,0.48385728341042994,0.35813371226675805,1.1193366223961114
1725629325088262400,6.409262451171875,0.40493747595250607,0.06898636939935386,0.7383171976476908
1725629325098296000,6.419296142578125,0.2929568181529641,-0.2422070933204144,0.13588555726110935
1725629325108330200,6.429330322265625,-0.05790741456747055,-0.42233043623678385,-0.341928354331851
1725629325118364400,6.439364501953125,-0.30601182229816914,-0.33021395114064217,-0.26027824512720105
1725629325128398000,6.449398193359375,-0.4599871630012989,-0.23338322393894195,0.04419102390408516
1725629325138432300,6.459432373046875,-0.7447673967003822,-0.28189386460781096,0.1798322510153055
1725629325148466400,6.469466552734375,-0.9114707015514373,-0.218917695408687,0.1550502764582634
1725629325158500000,6.4795,-0.9058978698551654,-0.20801899251453576,-0.11105156025588511
1725629325168534300,6.4895341796875,-0.8162655297249555,-0.4014160238280892,-0.6265840848684311
1725629325178568400,6.499568359375,-0.65882251291126,-0.3581042669765651,-0.6249538533180952
1725629325188602000,6.50960205078125,-0.5098725991547107,-0.059776861701160665,-0.25006489414870736
1725629325198637300,6.51963720703125,-0.38349662851691246,0.14514694127701222,-0.2597849086523056
1725629325208671200,6.529671142578125,-0.2107628113299608,0.39310262471940366,-0.1983066498607397
1725629325218705200,6.539705078125,0.04931202017962932,0.7773549304418266,-0.03756079210937023
1725629325228739300,6.5497392578125,0.24148352828621863,0.9338457610972225,-0.06629004298746585
1725629325238773200,6.559773193359375,0.3981640362948179,0.9595360826708376,-0.24789339532852173
1725629325248807200,6.56980712890625,0.6472159540086985,1.0458348213989288,-0.21359306631982325
1725629325258841300,6.57984130859375,0.8222586326599121,1.0633745697427541,-0.02647474994957447
1725629332985303800,14.3063037109375,1.5898773281157015,-0.0898725786268711,0.15872392346970737
1725629332995336700,14.316336669921874,1.608425961241126,-0.44202948150634763,-0.1375931283639744
1725629333005371000,14.326370849609376,1.574521938073635,-0.45680268774628635,-0.7176079524222762
1725629333015404800,14.33640478515625,1.3226684069424868,-0.21913491835594176,-1.0775986176673322
1725629333025438700,14.346438720703125,1.3303238901317118,0.04132745116651058,-1.1458347532212734
1725629333035471600,14.3564716796875,1.254210956788063,0.18011925126314163,-1.0352087249010802
1725629333045505800,14.366505859375,0.9756874453961849,0.3500654835581779,-0.8049046161465346
1725629333055540000,14.3765400390625,0.7403940039217471,0.5021493114262819,-0.6175523448899388
1725629333065573600,14.38657373046875,0.7050111403733491,0.5275374351829291,-0.5976111248949543
1725629333075607800,14.39660791015625,0.7044879932820797,0.4907891285002231,-0.6949842518776654
1725629333085640700,14.406640625,0.6744920834690332,0.4037602488666773,-0.7688482372507452
1725629333095675000,14.4166748046875,0.5296949054777622,0.2964443680077791,-0.7625625811100005
1725629333105708800,14.426708740234375,0.32665771996378895,0.26375030515193937,-0.7117742047674953
1725629333115742700,14.43674267578125,0.09653846625685691,0.2929272997975349,-0.6423816657200455
1725629333125776600,14.446776611328126,-0.11700725378990173,0.29282091681361194,-0.5949397137286141
1725629333135809500,14.4568095703125,-0.20764964774549005,0.25663550471067426,-0.6015864947993308
1725629333145843700,14.46684375,-0.25139468144774435,0.24723756176829337,-0.5915595332384109
1725629333155878000,14.4768779296875,-0.3764519707024097,0.3024076603263616,-0.5348892227178439
1725629333165911600,14.48691162109375,-0.5333160185843706,0.35902620412707326,-0.43135698858350513
1725629333175944700,14.49694482421875,-0.5841536408960819,0.3770207105010748,-0.289166668622382
1725629333185978600,14.506978515625,-0.5001175133377314,0.3237847948759794,-0.1623952689262107
1725629333196012800,14.5170126953125,-0.3699117552787065,0.2681453252404928,-0.035095297044981266
1725629333206046700,14.527046630859376,-0.43983869346380233,0.2316717438459396,0.0020979586599394677
1725629333216080600,14.53708056640625,-0.7272726565420627,0.23879940376877784,-0.04447627058625221
1725629333226113800,14.54711376953125,-0.7954805158495902,0.2585088973671198,-0.17259828117378054
1725629333236148000,14.55714794921875,-0.5943640692651272,0.24322014282047746,-0.2518873238028958
1725629333246181600,14.567181640625,-0.334298590105772,0.1976274354249239,-0.29099026732034977
1725629333256215800,14.5772158203125,-0.11278817479014396,0.1161895076662302,-0.3334256431961432
1725629333266249700,14.587249755859375,0.07439443898797035,0.08329670736789703,-0.35672194577269256
1725629333276283000,14.597282958984374,0.2583756263762712,0.09311901320219039,-0.3065327408997342
1725629333286316800,14.60731689453125,0.3386182068705559,0.08383446750640869,-0.23703623002115637
1725629333296350700,14.617350830078125,0.23691490519642827,0.07743161472678184,-0.15004954556152222
1725629333306385000,14.627385009765625,-0.062358548757433886,0.07460895852148533,-0.12132361915167421
1725629333316417800,14.637417724609374,-0.2859013466835022,0.0654471624225378,-0.2632366930739954
1725629333326451700,14.64745166015625,-0.356065016233921,0.07037409743070602,-0.44140517559554426
1725629333336486000,14.65748583984375,-0.34885084707140923,0.012080898416042327,-0.5210845327164978
1725629333346519800,14.667519775390625,-0.38885377163588997,-0.11756021149754524,-0.5052829332768917
1725629333356553700,14.6775537109375,-0.5584767633259297,-0.1602776557177305,-0.503023062053509
1725629333366586600,14.687586669921876,-0.8105798853039741,-0.0978331822425127,-0.5102909341646358
1725629333376620800,14.697620849609375,-0.8763362598061561,0.013516484177112579,-0.44858927841335533
1725629333386655000,14.707655029296875,-0.8126806569755077,0.14823767383396624,-0.36314291873089966
1725629333396688600,14.717688720703125,-0.6602981384217739,0.18959142848551272,-0.27380554295927284
1725629333406722800,14.727722900390624,-0.4278402126342058,0.2274199316203594,-0.17013225638642906
1725629333416755700,14.737755615234375,-0.22033669536113737,0.2629612006008625,-0.048668826905265444
1725629333426790000,14.747789794921875,-0.09087561818957328,0.2983721211999655,0.0626624270748347
1725629333436823800,14.75782373046875,0.017988076633214948,0.3323983094424009,0.13689842409808187
1725629333446857700,14.767857666015624,0.0802741446763277,0.3349970937639475,0.14686455884985625
1725629333456891000,14.777890869140625,0.15836276200711727,0.37964053761065003,0.20178229008205234
1725629333466924500,14.787924560546875,0.2943354130297899,0.3911871830195188,0.28219785252306606
1725629333476958700,14.797958740234375,0.41189036383032795,0.35543782424628734,0.3265101281866431
1725629333486993000,14.807992919921874,0.453299063539505,0.28736265140771866,0.32337471623774616
1725629333497026600,14.818026611328126,0.4644207615345716,0.28011282640993596,0.28008495202232153
1725629333507059700,14.828059814453125,0.3634849371016025,0.29588498055934903,0.2661991596087813
1725629333517093600,14.83809375,0.2270446685671806,0.3334539559751749,0.3181677952444181
1725629333527127800,14.8481279296875,0.06532265926003455,0.3569622573345899,0.34246637019868936
1725629333537161700,14.85816162109375,-0.1635030475050211,0.3594511515408754,0.38201413487419483
1725629333547195600,14.868195556640625,-0.3721756085574627,0.40044191809892654,0.42696755798552183
1725629333557228800,14.878228759765625,-0.4933551795959472,0.4579226316869259,0.4499927154704928
1725629333567262700,14.8882626953125,-0.6020972938656807,0.49681321109533305,0.514089778458327
1725629333577296600,14.898296630859376,-0.7646405564278363,0.4525894539654255,0.5915726119156927
1725629333587330800,14.908330810546875,-0.8979460340678691,0.4065519254118204,0.5800985202863812
1725629333597363700,14.91836376953125,-0.9433388349771499,0.3607639877051115,0.49587319029886273
1725629333607398000,14.92839794921875,-0.9269874196350574,0.26307576689124107,0.33046317666135727
1725629333617431800,14.938431884765626,-0.9000473902612924,0.13804595016539095,0.09478300089165567
1725629333627465700,14.9484658203125,-0.7952730105787515,0.06522738219201564,-0.18242957403212784
1725629333637500000,14.9585,-0.7073141566187143,0.0492301871150732,-0.4109131162960082
1725629333647532800,14.96853271484375,-0.5616676683217287,0.042619244542717934,-0.5954807983353734
1725629333657566700,14.978566650390626,-0.3852507787078619,0.06493512124717235,-0.7029767850015312
1725629333667601000,14.988600830078125,-0.1997095023959875,0.16480770036280154,-0.6496021184928715
1725629333677634800,14.998634765625,-0.034487960535287854,0.22862463123500346,-0.49856348882876333
1725629333687668700,15.008668701171874,0.12788169902563096,0.2740852366834879,-0.34137462943922725
1725629333697701600,15.01870166015625,0.3334603857159614,0.35677871746122836,-0.2128650443062186
1725629333707735800,15.02873583984375,0.49911096664369103,0.4272247110843658,-0.054643407802842554
1725629333717770000,15.03877001953125,0.6062719492018223,0.4650537987411022,0.12546806201264263
1725629333727803600,15.0488037109375,0.6475239970445632,0.4479764072120189,0.2716104440677911
1725629333737836800,15.0588369140625,0.6559270837306976,0.3528834635883569,0.28018355355858804
1725629333747871000,15.06887109375,0.6025877077311277,0.30193185950815676,0.17857297166921196
1725629333757905000,15.07890478515625,0.4396259274959564,0.30729601688981056,-0.03854856103770435
1725629333767938800,15.088938720703124,0.1792179185092449,0.2586702254086733,-0.29431510089412327
1725629333777973000,15.098972900390624,-0.015240239229798317,0.1920978583484888,-0.4709335774946958
1725629333788006000,15.109005859375,-0.11105565190911293,0.031874563166499136,-0.591287146037817
1725629333798039800,15.119039794921875,-0.1143202066630125,-0.1463929227501154,-0.44864626929759976
1725629333808074000,15.129073974609375,0.048452188479900356,0.33491467617750165,-0.5339322142539545
1725629333818108000,15.13910791015625,-0.08965689004957675,0.48779871451258655,-0.3658725628904998
1725629333828141000,15.14914111328125,-0.4947001644641161,0.4030453785955906,0.13905130954934283
1725629333838174700,15.1591748046875,-0.7290460959553718,0.4998498023122549,0.4518495953835547
1725629333848209000,15.169208984375,-0.8466694358170032,0.6119318746596575,0.5356536677516996
1725629333858243000,15.1792431640625,-0.8661819455385208,0.5079676423162222,0.490826866694726
1725629333868276700,15.18927685546875,-0.717342798680067,0.35166415092647074,0.37074579495005305
1725629333878310000,15.199309814453125,-0.4354594554662704,0.21601590955257413,0.2012928443309851
1725629333888343800,15.20934375,-0.15622925710976124,0.13789748160541057,0.01498310896384064
1725629333898378000,15.2193779296875,-0.07522796720266342,0.1348725808262825,-0.10216673620110377
1725629333908412000,15.229411865234376,-0.21676175948381424,0.17461773123741148,-0.052420562387909736
1725629333918445800,15.23944580078125,-0.39775136384069915,0.27962825776338573,0.12988849967024288
1725629333928479000,15.24947900390625,-0.6798398742377758,0.44513972248136996,0.3033929815692827
1725629333938513000,15.259512939453124,-0.9583990414649247,0.6135153444588184,0.37723175943586973
1725629333948546800,15.269546875,-1.1235650537461042,0.7615349916279316,0.32758846147526055
1725629333958581000,15.2795810546875,-1.1077227569699286,0.8642799113094806,0.1437156024327967
1725629333968614000,15.28961376953125,-0.9658218849420547,0.9277823694050311,-0.1020260034230072
1725629333978648000,15.29964794921875,-0.7441343594938516,0.8637614403933286,-0.3148391257457435
1725629333988681700,15.309681640625,-0.45250294472575187,0.7135831538856029,-0.47856743337400254
1725629333998716000,15.3197158203125,-0.1513204422801733,0.565421467897296,-0.5528456255711615
1725629334008750000,15.32975,0.05807108069658279,0.5200485407322645,-0.5286979303296655
1725629334018783000,15.339782958984374,0.23519407275319099,0.46699031976163385,-0.3501928727975115
1725629334028817000,15.34981689453125,0.26760347344875335,0.29336101503968237,-0.024833375950716434
1725629334038850800,15.359850830078125,0.41067163569033144,0.6483271301209926,0.08073052840800955
1725629334048885000,15.369885009765625,0.30158289994001386,0.7519739670783281,0.17222710977382957
1725629334058918000,15.37991796875,0.07485153510570526,0.6360702906161546,0.474339075089246
1725629334068951800,15.389951904296876,-0.11327683508992195,0.6107160691291094,0.47233379968143996
1725629334078986000,15.399986083984375,-0.27751579565405843,0.5952011046111584,0.317827786167711
1725629334089019600,15.41001953125,-0.3459738303303718,0.5049398189276456,0.1301750523935072
1725629334099053800,15.4200537109375,-0.332685309690237,0.3399281204253435,0.0652521650068229
1725629334109087000,15.4300869140625,-0.2756447410851717,0.14434709613621233,-0.02130980036787223
1725629334119121000,15.440120849609375,-0.4112222553104162,0.0898421834886074,-0.08174295685356482
1725629334129154800,15.45015478515625,-0.6566179886043071,0.2316249820947647,0.04769327813768759
1725629334139189000,15.46018896484375,-0.7002993094205856,0.2862479681640863,0.31729408114980906
1725629334149222000,15.470221923828126,-0.5503758744567633,0.310831205278635,0.6309901378076523
1725629334159256000,15.480256103515625,-0.3552718200296163,0.3257294992029667,0.7496902400553226
1725629334169289700,15.490289794921875,-0.1920540192067623,0.36391923686563965,0.7579751071892679
1725629334179324000,15.500323974609374,-0.18926175813972948,0.35526246767938136,0.7298001291930675
1725629334189358000,15.510358154296876,-0.3652127838075161,0.3192138336986303,0.6216597071435302
1725629334199391000,15.520390869140625,-0.504081156271696,0.3177776634156704,0.4293205873850733
1725629334209425000,15.5304248046875,-0.5950315932631492,0.3735036422908306,0.27162239023391155
1725629334219458800,15.540458740234374,-0.6985322997480631,0.4575421079367399,0.25064119619932024
1725629334229493000,15.550492919921876,-0.6841378636926412,0.43455753819048404,0.30518359131310135
1725629334239526000,15.56052587890625,-0.600589811912179,0.4216010259836912,0.35598606924619525
1725629334249559800,15.570559814453125,-0.5006523508667946,0.40486850236952304,0.38366482469066976
1725629334259594000,15.580593994140624,-0.3679378248572349,0.40777649877071376,0.42944041437245906
1725629334269628000,15.5906279296875,-0.21027648911774158,0.47632279625236984,0.5288415400514379
1725629334279661800,15.600661865234375,-0.0016015899777412413,0.46632279576361174,0.6336763812169433
1725629334289694700,15.61069482421875,0.2199006420314312,0.40641806989908213,0.6776845959000289
1725629334299729000,15.62072900390625,0.25702245820164676,0.3479886772841215,0.5897293586691841
1725629334309763000,15.63076318359375,0.03764788587093353,0.29892215629816055,0.4156041967216879
1725629334319796700,15.640796630859375,-0.26203122627437114,0.3117372142076492,0.3257785625090822
1725629334329830000,15.650829833984375,-0.5284188941925764,0.3783072431802749,0.3921659283911809
1725629334339863800,15.66086376953125,-0.8295891216784715,0.354753933635354,0.400883268658258
1725629334349898000,15.67089794921875,-1.204403846567869,0.28460137000083924,0.288801397240255
1725629334359932000,15.680931884765625,-1.6895435710042714,0.35006080738306045,0.08327121673361398
1725629334369965800,15.6909658203125,-1.975925394681096,0.5349988571047782,0.0017388384573860092
1725629334379999000,15.7009990234375,-1.9094845450460909,0.519613071924448,0.10576471502729691
1725629334390033000,15.711032958984376,-1.6603934643656015,0.35415479869842525,0.10013629895257763
1725629334400066800,15.72106689453125,-1.3739298076242208,0.2709381708294153,-0.245323672704678
1725629334410101000,15.73110107421875,-1.152939032268524,0.27687866679430007,-0.7391482416443527
1725629334420134000,15.7411337890625,-0.7920908734112978,0.24076339731812477,-0.9629950640182942
1725629334430167800,15.751167724609376,-0.31680618803501126,0.2277425877034664,-0.80512761124745
1725629334440202000,15.761201904296875,0.35466508630812166,0.2876005518168211,-0.33989958845060314
1725629334450236000,15.77123583984375,0.9981354240477085,0.22897008367180824,0.11026091220169328
1725629334460269800,15.781269775390625,1.1699153015106916,0.2344055527240038,0.44504108441248535
1725629334470302700,15.791302734375,1.078503092226386,0.4131967702537775,0.7662535445824264
1725629334480337000,15.8013369140625,0.8972264876216649,0.5513134475678205,0.8797177920032292
1725629334490371000,15.81137109375,0.7212047348052263,0.6154010120749474,0.7444247207425534
1725629334500404700,15.82140478515625,0.6081213764607906,0.588441108956933,0.5272383426385
1725629334510438000,15.83143798828125,0.468500724324584,0.40094577596783637,0.21062933940971268
1725629334520471800,15.841471923828125,0.2700935366988182,-0.1300000063538551,-0.47989407886788243
1725629334530506000,15.851506103515625,-0.13082359769642352,-0.35955695000290866,-1.3515128086328505
1725629334540540000,15.861539794921875,-0.9746271226882934,0.20540683725476264,-1.429157043197006
1725629334550572800,15.87157275390625,-1.7111492536127566,0.4095972844570875,-0.7270340985458343
1725629334560607000,15.88160693359375,-1.6961621123611925,0.154569799464941,0.2910824208495207
1725629334570641000,15.891640869140625,-0.8944967703968286,0.2693400879830122,0.8571431182321161
1725629334580674800,15.9016748046875,0.12471242133975029,0.5992442425221205,0.9527081363469362
1725629334590709000,15.911708984375,0.8489385497927665,0.6566296790421009,0.9297283889062702
1725629334600742000,15.921741943359375,1.1796698028057813,0.4474474149018526,0.9105673229709267
1725629334610776000,15.931776123046875,1.2218319512307643,0.22225392715930936,0.8088338453542441
1725629334620809700,15.941809814453125,1.005743560963869,0.09129822751581668,0.5611649794965982
1725629334630844000,15.951843994140624,0.5962655189722776,0.0940203459560871,0.291762840861734
1725629334640876800,15.961876708984375,0.03082651541829109,0.14532733934521674,0.11020685306005179
1725629334650911000,15.971910888671875,-0.41230771245956416,0.08746668652892112,0.03130175683078123
1725629334660945000,15.98194482421875,-0.5076923325061797,0.07286240711510181,0.012686273580801207
1725629334670978800,15.991978759765624,-0.3029810763001442,0.2455330959379673,0.07411868165335618
1725629334681013000,16.002012939453124,-0.123980015411973,0.38891280834674835,0.23925074599916113
1725629334691046000,16.0120458984375,-0.1726397091627121,0.4286076898753643,0.5220979475427419
1725629334701079800,16.022079833984375,-0.19014847784638403,0.5968681610405445,0.8140886240772902
1725629334711114000,16.032114013671876,0.0706716190725565,0.559457006534934,0.9717844466082751
1725629334721147600,16.042147705078126,0.11683774244189261,0.531948237362504,0.8456984718929976
1725629334731180800,16.052180908203123,-0.151722008818388,0.5028174199461937,0.5652919962987304
1725629334741215000,16.062215087890625,-0.4005097226381302,0.5175982249706983,0.33667131058648225
1725629334751249000,16.072248779296874,-0.7302572253108024,0.8070441123932599,0.26432386725619433
1725629334761282600,16.082282470703124,-0.8242015834212303,0.8322177166163921,0.5240470723165199
1725629334771316700,16.092316650390625,-0.7896703682661056,0.8198048097670078,0.8078060366764664
