time,seconds_elapsed,z,y,x
1725629318706616000,0.027615966796875,-0.7236650586128235,-0.713161826133728,1.1183515787124634
1725629318716650200,0.037650146484375,-0.7439919114112854,-1.0599045753479004,1.3806424140930176
1725629318726684200,0.04768408203125,-0.7465741038322449,-1.2312790155410767,1.547389268875122
1725629318736717800,0.0577177734375,-0.7969412207603455,-1.3026893138885498,1.645046353340149
1725629318746752000,0.067751953125,-0.9528045654296875,-1.443152904510498,1.67148756980896
1725629318756786000,0.077785888671875,-1.1134495735168457,-1.5073758363723755,1.6077684164047241
1725629318766819800,0.08781982421875,-1.2964965105056763,-1.5433851480484009,1.4161568880081177
1725629318776854000,0.09785400390625,-1.5038819313049316,-1.4923697710037231,1.2195664644241333
1725629318786888000,0.107887939453125,-1.818699836730957,-1.1980390548706055,0.9374805092811584
1725629318796921900,0.117921875,-1.7017799615859985,-1.2530796527862549,0.5282719135284424
1725629318806955800,0.127955810546875,-1.4245272874832153,-1.4123203754425049,-0.03707888349890709
1725629318816990000,0.137989990234375,-1.1713191270828247,-1.276350498199463,-0.5115371346473694
1725629318827024000,0.14802392578125,-1.0911755561828613,-1.0346788167953491,-0.6684330105781555
1725629318837057800,0.158057861328125,-1.2117096185684204,-0.681212842464447,-0.6390878558158875
1725629318847092000,0.168092041015625,-1.2583684921264648,-0.360898494720459,-0.57636559009552
1725629318857126000,0.1781259765625,-1.1977297067642212,-0.29523640871047974,-0.484998881816864
1725629318867159800,0.188159912109375,-1.0895531177520752,-0.4670467972755432,-0.3959824740886688
1725629318877195000,0.198195068359375,-0.9547616839408875,-0.5602871179580688,-0.3032940626144409
1725629318887228000,0.208227783203125,-0.6803051233291626,0.6314854025840759,-0.33987870812416077
1725629318897262800,0.218262939453125,-0.3756852447986603,0.665103018283844,-0.2942473590373993
1725629318907296800,0.228296875,-0.3761233389377594,0.5022065043449402,-0.2005818486213684
1725629318917331000,0.2383310546875,-0.4655345678329468,0.18924419581890106,-0.04020974040031433
1725629318927364900,0.24836474609375,-0.4809121787548065,-0.06636574864387512,0.09042762964963913
1725629318937398800,0.258398681640625,-0.4326024055480957,-0.15847782790660858,0.1438683122396469
1725629318947433000,0.268432861328125,-0.3372143507003784,-0.2880675196647644,0.15034087002277374
1725629318957467000,0.278466796875,-0.21006979048252106,-0.3823021352291107,0.13667315244674683
1725629318967500800,0.288500732421875,-0.131305992603302,-0.42031824588775635,0.10419058054685593
1725629318977535000,0.298534912109375,-0.06757385283708572,-0.385052353143692,0.07384592294692993
1725629318987569000,0.30856884765625,-0.04159285128116608,-0.24558022618293762,0.025179589167237282
1725629318997602800,0.318602783203125,-0.059160567820072174,-0.06744775176048279,-0.013936890289187431
1725629319007637000,0.328636962890625,-0.11554288864135742,0.06774868816137314,-0.05119691044092178
1725629319017671000,0.3386708984375,-0.16538771986961365,0.10352594405412674,-0.11345721781253815
1725629319027704800,0.348704833984375,-0.1953200399875641,0.00932700838893652,-0.19598671793937683
1725629319037739000,0.358739013671875,-0.149370014667511,-0.15156151354312897,-0.27682188153266907
1725629319047773000,0.36877294921875,-0.006746562663465738,-0.29049864411354065,-0.3683033287525177
1725629319057806800,0.378806884765625,-0.09257623553276062,-0.2580396831035614,-0.3842104375362396
1725629319067840800,0.3888408203125,0.15666712820529938,-0.8060540556907654,-0.5121364593505859
1725629319077875000,0.398875,0.42303112149238586,-1.6507258415222168,-0.5965174436569214
1725629319087908900,0.408908935546875,0.5547739863395691,-1.9825348854064941,-0.5976394414901733
1725629319097942800,0.41894287109375,0.555895209312439,-1.9819756746292114,-0.5719174146652222
1725629319107977000,0.42897705078125,0.6847032308578491,-1.7375507354736328,-0.4704163670539856
1725629319118011000,0.439010986328125,0.7465352416038513,-1.3429667949676514,-0.35776928067207336
1725629319128044800,0.449044921875,0.6210156679153442,-0.8980279564857483,-0.27457931637763977
1725629319138079000,0.459078857421875,0.28585344552993774,-0.5476933717727661,-0.2708568871021271
1725629319148113000,0.46911279296875,-0.12073136121034622,-0.23892538249492645,-0.24606870114803314
1725629319158146800,0.479146728515625,-0.24578523635864258,-0.1537351906299591,-0.18028204143047333
1725629319168181000,0.489180908203125,-0.1240079402923584,-0.2715989649295807,-0.11894945055246353
1725629319178215000,0.49921484375,-0.04781936854124069,-0.21292895078659058,-0.05093030631542206
1725629319188248800,0.509248779296875,-0.04369146749377251,-0.11634887754917145,-0.01898622140288353
1725629319198283000,0.519282958984375,0.011945163831114769,-0.002670256420969963,-0.040497373789548874
1725629319208317000,0.52931689453125,0.3357924520969391,0.110947385430336,-0.08362274616956711
1725629319218350800,0.539350830078125,0.85032057762146,0.12073950469493866,-0.16990172863006592
1725629319228385000,0.549385009765625,1.0288002490997314,0.07718590646982193,-0.16961677372455597
1725629319238419000,0.5594189453125,0.9872934222221375,-0.3760799765586853,-0.21646252274513245
1725629319248452900,0.569452880859375,0.8718874454498291,-0.6635580658912659,-0.19471383094787598
1725629319258487000,0.579487060546875,0.8425425887107849,-0.48343712091445923,-0.10547764599323273
1725629319268521000,0.58952099609375,0.7562814950942993,-0.23888623714447021,0.018425920978188515
1725629319278555000,0.599554931640625,0.5135557651519775,-0.029679283499717712,0.08639837801456451
1725629319288589000,0.609589111328125,0.23197147250175476,0.15034666657447815,0.12135902792215347
1725629319298622700,0.619622802734375,0.0921846255660057,0.19516713917255402,0.16064396500587463
1725629319308657000,0.629656982421875,0.11763831973075867,0.1705145239830017,0.2108038067817688
1725629319318691000,0.639691162109375,0.19230134785175323,0.20436885952949524,0.2591972351074219
1725629319328724700,0.649724853515625,0.24680399894714355,0.2960053086280823,0.32201722264289856
1725629319338759000,0.659759033203125,0.2721666991710663,0.4152650833129883,0.36179158091545105
1725629319348793000,0.66979296875,0.273048460483551,0.5125601887702942,0.33935925364494324
1725629319358826800,0.67982666015625,0.2677748501300812,0.48183760046958923,0.23825590312480927
1725629319368861000,0.68986083984375,0.23277823626995087,0.3203677535057068,0.09641407430171967
1725629319378895000,0.69989501953125,0.17028765380382538,0.16264857351779938,-0.021829109638929367
1725629319388928800,0.7099287109375,0.1274254024028778,0.07501966506242752,-0.08216888457536697
1725629319398963000,0.719962890625,0.11550994962453842,0.026758039370179176,-0.08333282172679901
1725629319408996900,0.729996826171875,0.11601728200912476,0.0075012557208538055,-0.056136354804039
1725629319419030800,0.74003076171875,0.11970030516386032,0.013135666027665138,-0.007190885487943888
1725629319429065000,0.75006494140625,0.1067940965294838,0.004171465523540974,0.039963312447071075
1725629319439099000,0.760098876953125,0.08322811871767044,0.003292216220870614,0.07105369120836258
1725629319449132800,0.7701328125,0.05801704153418541,-0.006085306406021118,0.06459099799394608
1725629319459167000,0.7801669921875,0.05398565158247948,-0.012311628088355064,0.015250658616423607
1725629319469201000,0.790200927734375,0.04667767137289047,-0.050467267632484436,-0.05033554136753082
1725629319479234800,0.80023486328125,0.015776896849274635,-0.07059092819690704,-0.08159445226192474
1725629319489269000,0.81026904296875,0.019631024450063705,-0.026576867327094078,-0.08956476300954819
1725629319499303000,0.820302978515625,0.02175900898873806,-0.01087059173732996,-0.10083413124084473
1725629319509336800,0.8303369140625,0.0405271016061306,0.01521693542599678,-0.10622011125087738
1725629319519371000,0.84037109375,0.12073053419589996,0.08920003473758698,-0.10596352815628052
1725629319529405000,0.850405029296875,0.1453077793121338,0.14233222603797913,-0.12255635112524033
1725629319539438800,0.86043896484375,0.19675399363040924,0.1473088413476944,-0.1572587639093399
1725629319549473000,0.87047314453125,0.21583980321884155,0.19929587841033936,-0.172139972448349
1725629319559507000,0.8805068359375,0.18593467772006989,0.19843532145023346,-0.15629936754703522
1725629319569540900,0.890540771484375,0.16157419979572296,0.17567887902259827,-0.14183281362056732
1725629319579574800,0.90057470703125,0.18483905494213104,0.12226366996765137,-0.15956656634807587
1725629319589609000,0.91060888671875,0.26282864809036255,0.10503168404102325,-0.17389731109142303
1725629319599643000,0.920642822265625,0.33490487933158875,0.08272083103656769,-0.18260715901851654
1725629319609676800,0.9306767578125,0.3756541907787323,0.05837767571210861,-0.1879872828722
1725629319619711000,0.9407109375,0.3906964957714081,-0.006451601628214121,-0.1957453191280365
1725629319629745000,0.950744873046875,0.38664767146110535,-0.08057216554880142,-0.19779329001903534
1725629319639778800,0.96077880859375,0.3698742389678955,-0.13279329240322113,-0.18543019890785217
1725629319649813000,0.97081298828125,0.3621465563774109,-0.17267785966396332,-0.16972847282886505
1725629319659847000,0.980846923828125,0.3544129431247711,-0.17954479157924652,-0.16216738522052765
1725629319669880800,0.990880859375,0.3552073538303375,-0.16511258482933044,-0.19263581931591034
1725629319679915000,1.0009150390625,0.3738580644130707,-0.15237551927566528,-0.2478853166103363
1725629319689949000,1.010948974609375,0.4111228883266449,-0.16381725668907166,-0.2920091152191162
1725629319699982800,1.02098291015625,0.4817222058773041,-0.1706610918045044,-0.3072589337825775
1725629319710017800,1.031017822265625,0.5410091876983643,-0.17509818077087402,-0.2933404743671417
1725629319720050700,1.04105078125,0.5700535774230957,-0.15746575593948364,-0.2341393530368805
1725629319730086000,1.0510859375,0.577650785446167,-0.11773433536291122,-0.13246625661849976
1725629319740119600,1.06111962890625,0.5594030022621155,-0.06070709228515625,0.00012878025881946087
1725629319750153200,1.0711533203125,0.518429696559906,0.020984040573239326,0.15163016319274902
1725629319760187400,1.0811875,0.4610690176486969,0.08375212550163269,0.2805102467536926
1725629319770221600,1.0912216796875,0.4083607792854309,0.12665751576423645,0.366146057844162
1725629319780255200,1.101255126953125,0.38192492723464966,0.13684536516666412,0.40541866421699524
1725629319790289400,1.111289306640625,0.3653206527233124,0.1292756050825119,0.4030468463897705
1725629319800323600,1.121323486328125,0.3413101136684418,0.11982038617134094,0.36622169613838196
1725629319810357200,1.131357177734375,0.311482697725296,0.131227508187294,0.3151901960372925
1725629319820391400,1.141391357421875,0.2825758159160614,0.14987418055534363,0.2647382616996765
1725629319830425600,1.151425537109375,0.2796327471733093,0.19928060472011566,0.22247710824012756
1725629319840459300,1.161459228515625,0.30577391386032104,0.24947936832904816,0.183477982878685
1725629319850493400,1.171493408203125,0.3220280110836029,0.2416161149740219,0.1413062959909439
1725629319860527400,1.18152734375,0.33873122930526733,0.2108260840177536,0.13062651455402374
1725629319870561300,1.191561279296875,0.35199564695358276,0.19298049807548523,0.1643730252981186
1725629319880595500,1.201595458984375,0.3701950013637543,0.19397635757923126,0.20840603113174438
1725629319890629400,1.21162939453125,0.38545864820480347,0.17953349649906158,0.25325819849967957
1725629319900663300,1.221663330078125,0.3803390562534332,0.12234377861022949,0.29009512066841125
1725629319910697500,1.231697509765625,0.3474953770637512,0.0422406904399395,0.31922265887260437
1725629319920731400,1.2417314453125,0.29291269183158875,-0.034146588295698166,0.32778200507164
1725629319930765300,1.251765380859375,0.2696411907672882,-0.04989252984523773,0.29167142510414124
1725629319940799500,1.261799560546875,0.2945059537887573,0.0031835907138884068,0.21676065027713776
1725629319950833400,1.27183349609375,0.32896167039871216,0.08879037201404572,0.1253950446844101
1725629319960867300,1.281867431640625,0.37376314401626587,0.16841401159763336,0.03645977005362511
1725629319970901500,1.291901611328125,0.4405362904071808,0.22327592968940735,-0.029575442895293236
1725629319980935400,1.301935302734375,0.511107325553894,0.2611767053604126,-0.0641288310289383
1725629319990969300,1.31196923828125,0.5512808561325073,0.2629554271697998,-0.07837460935115814
1725629320001003500,1.32200341796875,0.5727056264877319,0.2750881016254425,-0.09514164924621582
1725629320011037400,1.332037353515625,0.5573538541793823,0.24803517758846283,-0.12062383443117142
1725629320021071400,1.3420712890625,0.516922652721405,0.2713893949985504,-0.13315050303936005
1725629320031105300,1.352105224609375,0.5751547813415527,0.4076897203922272,-0.1385686993598938
1725629320041139500,1.362139404296875,0.5286750793457031,0.6680024266242981,-0.10083286464214325
1725629320051173400,1.37217333984375,0.5232763290405273,0.7406233549118042,-0.04414801672101021
1725629320061207300,1.382207275390625,0.5712661147117615,0.693970799446106,0.016135012730956078
1725629320071241500,1.392241455078125,0.5901892185211182,0.4725241959095001,0.07202225178480148
1725629320081275400,1.402275390625,0.6591723561286926,0.21575391292572021,0.1332596242427826
1725629320091309300,1.412309326171875,0.6573086977005005,-0.086311936378479,0.17259158194065094
1725629320101343500,1.422343505859375,0.613625705242157,-0.34629788994789124,0.20101480185985565
1725629320111377400,1.43237744140625,0.540258526802063,-0.42345792055130005,0.2278120517730713
1725629320121411300,1.442411376953125,0.4805607199668884,-0.38254019618034363,0.2420474737882614
1725629320131445500,1.452445556640625,0.4689205586910248,-0.217351496219635,0.2256930023431778
1725629320141479400,1.4624794921875,0.4603080749511719,-0.049266230314970016,0.17072373628616333
1725629320151513300,1.472513427734375,0.4211351275444031,-0.038611188530921936,0.05702086538076401
1725629320161547500,1.482547607421875,0.41380053758621216,-0.11221706122159958,-0.036636531352996826
1725629320171581400,1.49258154296875,0.4075902998447418,-0.2018076479434967,-0.1279027909040451
1725629320181615400,1.502615478515625,0.8645037412643433,-0.6442268490791321,0.009327440522611141
1725629320191649500,1.5126494140625,0.9429612755775452,-0.7983402609825134,0.1421656459569931
1725629320201683200,1.52268310546875,0.7875536680221558,-0.8354164958000183,0.1923597753047943
1725629320211717400,1.53271728515625,0.8956755995750427,-1.1469720602035522,0.27900174260139465
1725629320221751600,1.54275146484375,1.3022394180297852,-1.5109914541244507,0.39013415575027466
1725629320231785200,1.55278515625,1.67133629322052,-1.638292670249939,0.42264524102211
1725629320241819400,1.5628193359375,1.8676517009735107,-1.7079956531524658,0.2767847180366516
1725629320251853600,1.572853515625,1.9704965353012085,-1.8128176927566528,0.0697588250041008
1725629320261887200,1.58288720703125,2.232461452484131,-1.2740557193756104,-0.19692681729793549
1725629320271921400,1.59292138671875,2.4765384197235107,-0.3309321701526642,-0.4866824746131897
1725629320281955600,1.60295556640625,2.7057669162750244,0.03728735074400902,-0.7810033559799194
1725629320291989200,1.6129892578125,2.9576680660247803,-0.07642536610364914,-1.0301902294158936
1725629320302023400,1.6230234375,3.570647716522217,-0.6550100445747375,-1.0921571254730225
1725629320312057600,1.6330576171875,4.531453609466553,-1.1504476070404053,-0.8570542931556702
1725629320322091300,1.64309130859375,5.339032173156738,-1.2281957864761353,-0.40409746766090393
1725629320332125400,1.65312548828125,5.254983901977539,-1.3155632019042969,0.07509895414113998
1725629320342159400,1.663159423828125,4.1258392333984375,-1.732129454612732,0.5600967407226562
1725629320352193300,1.673193359375,3.208554983139038,-2.3803975582122803,1.2358049154281616
1725629320362227500,1.6832275390625,3.392331123352051,-3.288733720779419,1.6931201219558716
1725629320372261400,1.693261474609375,3.9527478218078613,-3.7121078968048096,2.070347785949707
1725629320382295300,1.70329541015625,4.4655537605285645,-3.8860225677490234,2.3112435340881348
1725629320392329500,1.71332958984375,4.81788444519043,-4.249788761138916,2.427372694015503
1725629320402363400,1.72336328125,5.037848472595215,-4.72692346572876,2.592134952545166
1725629320412397300,1.733397216796875,5.244068622589111,-5.15226411819458,2.826613426208496
1725629320422432500,1.7434326171875,5.596103191375732,-5.372658729553223,3.1355905532836914
1725629320432466400,1.753466552734375,5.99555778503418,-5.178164958953857,3.4136321544647217
1725629320442500400,1.763500244140625,6.299853324890137,-4.632989406585693,3.590226173400879
1725629320452534500,1.773534423828125,6.59019136428833,-3.7184202671051025,3.6162946224212646
1725629320462568200,1.783568115234375,6.773780345916748,-2.664691925048828,3.430142402648926
1725629320472602400,1.793602294921875,6.771451950073242,-1.6854982376098633,3.16487979888916
1725629320482636500,1.803636474609375,6.483449459075928,-0.8440449237823486,2.957592487335205
1725629320492670200,1.813670166015625,5.888396263122559,-0.31985461711883545,2.866628646850586
1725629320502704400,1.823704345703125,5.042117595672607,-0.21627092361450195,2.889042377471924
1725629320512738600,1.833738525390625,3.9364848136901855,-0.5330022573471069,2.922524929046631
1725629320522772200,1.843772216796875,2.9886834621429443,-0.9712439179420471,2.985252857208252
1725629320532806400,1.853806396484375,2.427905559539795,-1.3628534078598022,3.104067802429199
1725629320542840600,1.863840576171875,2.3051207065582275,-1.605433702468872,3.2364535331726074
1725629320552874200,1.873874267578125,2.189906120300293,-1.7636244297027588,3.2513349056243896
1725629320562908400,1.883908447265625,1.8357939720153809,-1.6879570484161377,3.2191014289855957
1725629320572942600,1.893942626953125,1.344123363494873,-2.0397894382476807,2.8013343811035156
1725629320582976300,1.903976318359375,0.8043050765991211,-2.429347276687622,1.8928134441375732
1725629320593010400,1.914010498046875,0.2686235308647156,-3.8109424114227295,-0.8895218968391418
1725629320603044400,1.92404443359375,1.0733757019042969,-4.506925582885742,-4.040923595428467
1725629320613078300,1.934078369140625,1.6138300895690918,-2.658707618713379,-3.9870755672454834
1725629320623112400,1.944112548828125,1.7994871139526367,-1.1531678438186646,-3.2643866539001465
1725629320633146400,1.954146484375,1.9148181676864624,-0.41597577929496765,-2.483961582183838
1725629320643180300,1.96418017578125,1.6614018678665161,-0.41528892517089844,-1.8906351327896118
1725629320653214500,1.97421435546875,1.2836577892303467,-1.0328518152236938,-1.3497636318206787
1725629320663248400,1.984248291015625,0.9197802543640137,-2.0645675659179688,-0.7451796531677246
1725629320673282300,1.9942822265625,0.6872532963752747,-3.235928773880005,-0.13231249153614044
1725629320683316500,2.00431640625,0.43604379892349243,-3.85018253326416,0.24499854445457458
1725629320693350400,2.014350341796875,0.07885400950908661,-3.762056827545166,0.2781120240688324
1725629320703384300,2.02438427734375,-0.16193005442619324,-3.1834630966186523,0.24226394295692444
1725629320713418500,2.03441845703125,-0.2773381471633911,-2.513798475265503,0.19064602255821228
1725629320723452400,2.044452392578125,-0.5801225304603577,-2.1309814453125,-0.04386094585061073
1725629320733486300,2.054486328125,-0.9856237173080444,-2.184382915496826,-0.37774011492729187
1725629320743521500,2.064521484375,-1.9674016237258911,-1.6952261924743652,-0.050435472279787064
1725629320753555200,2.07455517578125,-2.161384105682373,-1.18229079246521,0.9516164064407349
1725629320763589400,2.08458935546875,-1.5707628726959229,-0.9879264235496521,1.6744649410247803
1725629320773623600,2.09462353515625,-0.7120668292045593,-0.9860725998878479,1.969939947128296
1725629320783657200,2.1046572265625,-0.21430999040603638,-0.7626947164535522,1.6829543113708496
1725629320793691400,2.11469140625,-0.05853504315018654,-0.613132894039154,1.6687122583389282
1725629320803725600,2.1247255859375,-0.121582992374897,-0.657651960849762,1.9016047716140747
1725629320813759200,2.13475927734375,-0.35008329153060913,-0.7009184956550598,2.0827584266662598
1725629320823793400,2.14479345703125,-0.48971545696258545,-0.7794308066368103,2.1137349605560303
1725629320833827600,2.15482763671875,-0.4054951071739197,-0.6162922382354736,2.0265958309173584
1725629320843861200,2.164861328125,-0.08144151419401169,-0.2035142034292221,1.923583745956421
1725629320853895400,2.1748955078125,0.4818066656589508,-0.11655481159687042,1.7519984245300293
1725629320863929300,2.184929443359375,1.1653046607971191,-0.4282737970352173,1.3471647500991821
1725629320873963300,2.19496337890625,1.6695263385772705,-0.705797016620636,0.9175985455513
1725629320883997400,2.20499755859375,2.091310739517212,-1.1739739179611206,0.6751247644424438
1725629320894031400,2.21503125,2.3943450450897217,-1.2619585990905762,0.5194100141525269
1725629320904065300,2.225065185546875,2.751063585281372,-1.2373815774917603,0.5469635128974915
1725629320914099500,2.235099365234375,3.0970470905303955,-1.0288829803466797,0.6963878870010376
1725629320924133400,2.24513330078125,3.3194875717163086,-0.5836158394813538,0.8934618830680847
1725629320934167300,2.255167236328125,3.488081693649292,-0.2002580612897873,1.1625900268554688
1725629320944201500,2.265201416015625,3.3028457164764404,1.0813000202178955,1.4056836366653442
1725629320954235400,2.2752353515625,2.6807332038879395,2.680894374847412,1.8009915351867676
1725629320964269300,2.285269287109375,1.8539081811904907,3.4186930656433105,2.17746639251709
1725629320974304500,2.295304443359375,1.1391301155090332,3.2963106632232666,2.276487350463867
1725629320984338200,2.305338134765625,0.3132443130016327,1.7944055795669556,0.3784322142601013
1725629320994372400,2.315372314453125,-0.18586643040180206,2.5565431118011475,-0.9239315986633301
1725629321004406500,2.325406494140625,-0.4428510069847107,3.8049540519714355,-2.9848387241363525
1725629321014440200,2.335440185546875,-0.41117748618125916,4.07613468170166,-4.756109237670898
1725629321024474400,2.345474365234375,-0.047720469534397125,3.833531379699707,-6.050417423248291
1725629321034508500,2.355508544921875,0.11332327872514725,4.099079608917236,-6.629584789276123
1725629321044542200,2.365542236328125,0.163782000541687,2.9016366004943848,-7.167856216430664
1725629321054576400,2.375576416015625,0.14633989334106445,1.425136685371399,-7.212461471557617
1725629321064610600,2.385610595703125,-0.17173334956169128,0.7825894355773926,-6.1059136390686035
1725629321074644200,2.395644287109375,-0.6591812968254089,-0.17093564569950104,-4.635729789733887
1725629321084678400,2.405678466796875,-0.8710887432098389,-0.028057752177119255,-3.0122296810150146
1725629321094712600,2.415712646484375,-0.7071152329444885,0.3655412197113037,-0.7952950596809387
1725629321104746200,2.425746337890625,-0.3794972896575928,0.5294766426086426,0.8542152643203735
1725629321114780400,2.435780517578125,-0.07493340969085693,0.5233277082443237,1.496866226196289
1725629321124814300,2.445814453125,0.17602583765983582,0.5577335953712463,1.5072463750839233
1725629321134848300,2.45584814453125,0.21201258897781372,0.849309504032135,1.3839688301086426
1725629321144882400,2.46588232421875,0.16706138849258423,0.8860089778900146,1.1677428483963013
1725629321154917400,2.47591748046875,-0.0024221769999712706,0.902349054813385,0.9726268649101257
1725629321164951300,2.485951416015625,-0.31390711665153503,0.31755489110946655,0.9961676001548767
1725629321174985500,2.4959853515625,-0.690669059753418,0.024664411321282387,1.1835167407989502
1725629321185019400,2.506019287109375,-0.9241958260536194,0.817573070526123,1.5355784893035889
1725629321195052300,2.51605224609375,-0.715679407119751,1.4324713945388794,1.8477576971054077
1725629321205086500,2.52608642578125,-0.08109178394079208,1.556597113609314,2.1240363121032715
1725629321215120400,2.536120361328125,0.5758972764015198,1.6061254739761353,2.4272890090942383
1725629321225154300,2.546154296875,0.895523726940155,1.7428297996520996,2.8137423992156982
1725629321235188500,2.5561884765625,0.6649712324142456,1.7079254388809204,3.223623514175415
1725629321245222400,2.566222412109375,-0.10750694572925568,1.2927765846252441,3.64111590385437
1725629321255256300,2.57625634765625,-1.129736304283142,0.7288197875022888,3.7273812294006348
1725629321265290500,2.58629052734375,-1.8566536903381348,-0.08110538125038147,3.188429117202759
1725629321275324400,2.596324462890625,-2.077547073364258,-0.69917231798172,2.161451816558838
1725629321285358300,2.6063583984375,-1.967042326927185,-0.562483549118042,1.2867746353149414
1725629321295392300,2.616392333984375,-1.7102563381195068,-0.15367339551448822,0.6978708505630493
1725629321305426400,2.626426513671875,-1.4832288026809692,0.1788915991783142,0.34583091735839844
1725629321315460400,2.63646044921875,-1.3895920515060425,0.14370405673980713,-0.008321302942931652
1725629321325494300,2.646494384765625,-1.3982199430465698,0.14323878288269043,-0.32551464438438416
1725629321335528400,2.656528564453125,-1.2078648805618286,0.06547553837299347,-0.5423644185066223
1725629321345562400,2.666562255859375,-0.9952847957611084,-0.2877432405948639,-0.44870156049728394
1725629321355596300,2.67659619140625,-0.8074363470077515,-0.7943369150161743,0.048150550574064255
1725629321365630500,2.68663037109375,-0.6374853849411011,-1.2987735271453857,0.7016279101371765
1725629321375664400,2.696664306640625,-0.6225951313972473,-1.459617257118225,1.2091376781463623
1725629321385699300,2.70669921875,-0.7002634406089783,-1.2182648181915283,1.4921929836273193
1725629321395733200,2.716733154296875,-0.7641206979751587,-0.7262780666351318,1.5694388151168823
1725629321405767400,2.726767333984375,-0.7078595757484436,-0.06514468789100647,1.4252169132232666
1725629321415801300,2.73680126953125,-0.5872133374214172,0.7923979759216309,1.0109864473342896
1725629321425835300,2.746835205078125,-0.5577839612960815,1.37791907787323,0.39390844106674194
1725629321435869400,2.756869384765625,-0.7088257074356079,1.5705076456069946,-0.15156236290931702
1725629321445903400,2.7669033203125,-0.9631314277648926,1.488668441772461,-0.4737074673175812
1725629321455937300,2.776937255859375,-1.1636685132980347,1.2069851160049438,-0.5327406525611877
1725629321465971500,2.786971435546875,-1.0769606828689575,0.9511123299598694,-0.41322237253189087
1725629321476005400,2.79700537109375,-0.9014660120010376,1.0405480861663818,-0.2926349639892578
1725629321486039300,2.807039306640625,-0.6832259297370911,1.2143207788467407,-0.12181413918733597
1725629321496073500,2.817073486328125,-0.5978385806083679,1.5558842420578003,0.003809832502156496
1725629321506107400,2.827107421875,-0.5506628751754761,1.9066797494888306,0.13554534316062927
1725629321516141300,2.837141357421875,-0.6209668517112732,2.011106491088867,0.08080273866653442
1725629321526175500,2.847175537109375,-0.7561356425285339,1.9249036312103271,-0.2669922113418579
1725629321536209400,2.85720947265625,-0.9504896402359009,1.500576376914978,-0.9873934984207153
1725629321546243300,2.867243408203125,-1.1253464221954346,1.1412752866744995,-2.134953260421753
1725629321556277200,2.87727734375,-1.2449082136154175,0.6269028186798096,-3.288820505142212
1725629321566311400,2.8873115234375,-1.1428303718566895,0.08820058405399323,-4.036118030548096
1725629321576345300,2.897345458984375,-0.6431906819343567,-0.10822751373052597,-4.242069244384766
1725629321586379300,2.907379150390625,-0.1823185682296753,-0.381744384765625,-3.7295141220092773
1725629321596413400,2.917413330078125,0.19204625487327576,-0.5056325197219849,-2.8426318168640137
1725629321606447400,2.927447265625,0.1793013960123062,-0.31431156396865845,-1.401340365409851
1725629321616481300,2.937481201171875,-0.021415727213025093,-0.3966847360134125,-0.25661879777908325
1725629321626515500,2.947515380859375,-0.23212161660194397,-0.017876001074910164,0.35521748661994934
1725629321636549400,2.95754931640625,-0.3377220630645752,0.5923935174942017,0.2932281494140625
1725629321646583300,2.967583251953125,-0.309202641248703,0.9572630524635315,-0.2571389675140381
1725629321656617500,2.977617431640625,-0.17125248908996582,0.8664617538452148,-1.0694776773452759
1725629321666651400,2.9876513671875,-0.007315524388104677,0.6007296442985535,-1.8536908626556396
1725629321676685300,2.997685302734375,0.1498626321554184,0.12166395783424377,-2.410475730895996
1725629321686719500,3.007719482421875,0.28094804286956787,-0.4346827566623688,-2.5776636600494385
1725629321696753400,3.01775341796875,0.3142136037349701,-1.056719422340393,-2.484976291656494
1725629321706787300,3.027787353515625,0.2932073175907135,-1.5015956163406372,-2.2577097415924072
1725629321716821500,3.037821533203125,0.16231456398963928,-1.6884057521820068,-1.9660670757293701
1725629321726855200,3.047855224609375,-0.004031249787658453,-1.874821662902832,-1.6952738761901855
1725629321736888800,3.057888916015625,-0.06990400701761246,-2.381869077682495,-1.5632197856903076
1725629321746923000,3.067923095703125,-0.14422665536403656,-2.9496684074401855,-1.5011680126190186
1725629321756957700,3.077957763671875,-0.2623019218444824,-3.1168553829193115,-1.4396244287490845
1725629321766992000,3.087991943359375,-0.24754033982753754,-2.807964324951172,-1.4246547222137451
1725629321777026000,3.098026123046875,0.1673324853181839,-3.4320785999298096,-1.4247276782989502
1725629321787059700,3.108059814453125,0.8207255005836487,-2.9427216053009033,-1.1061506271362305
1725629321797094000,3.118093994140625,1.130499243736267,-3.2005093097686768,-0.6195613145828247
1725629321807128000,3.128128173828125,1.0090149641036987,-3.922407627105713,-0.3377653658390045
1725629321817161700,3.13816162109375,0.7544721364974976,-4.529041767120361,-0.11953636258840561
1725629321827196000,3.14819580078125,0.6004990935325623,-2.4407217502593994,0.5786664485931396
1725629321837230000,3.15822998046875,0.4090103507041931,-0.8245730996131897,1.916025161743164
1725629321847263700,3.168263671875,-0.15235844254493713,-1.5840386152267456,3.7818965911865234
1725629321857298000,3.1782978515625,0.4307153522968292,-1.824816107749939,5.153844356536865
1725629321867332000,3.18833203125,2.3938653469085693,-0.14470483362674713,5.276612281799316
1725629321877365800,3.19836572265625,3.948622226715088,3.2517590522766113,4.798684597015381
1725629321887400000,3.20839990234375,4.373843193054199,4.6973795890808105,3.035515069961548
1725629321897434000,3.21843408203125,3.090704917907715,1.455313801765442,-1.8816012144088745
1725629321907467800,3.2284677734375,1.5119726657867432,2.8211333751678467,-3.992513418197632
1725629321917502000,3.238501953125,0.7529057860374451,2.313502788543701,-2.208141565322876
1725629321927535900,3.248535888671875,-0.06571567058563232,0.4701266884803772,-0.5583789348602295
1725629321937569800,3.25856982421875,-0.5206238031387329,-0.6395148038864136,0.8310760855674744
1725629321947604000,3.26860400390625,-0.5718053579330444,-0.8792306184768677,1.2499256134033203
1725629321957638000,3.278637939453125,-0.7492278218269348,-0.9612852931022644,1.5989052057266235
1725629321967671800,3.288671875,-1.0549815893173218,-0.954853892326355,1.8916112184524536
1725629321977706000,3.2987060546875,-1.2449756860733032,-0.9787416458129883,1.9985793828964233
1725629321987740000,3.308739990234375,-1.4988895654678345,-0.688555121421814,1.770951271057129
1725629321997773800,3.31877392578125,-1.7553306818008423,-0.3110736310482025,1.539614200592041
1725629322007808000,3.32880810546875,-1.9213100671768188,-0.05923537537455559,1.396628975868225
1725629322017842000,3.338842041015625,-1.997475504875183,0.06154404208064079,1.2863121032714844
1725629322027875800,3.348875732421875,-2.077162504196167,0.11289423704147339,1.1891319751739502
1725629322037910000,3.358909912109375,-2.0588345527648926,0.07406588643789291,1.1681127548217773
1725629322047944000,3.36894384765625,-2.1214308738708496,-0.0157372634857893,1.3541302680969238
1725629322057977900,3.378977783203125,-2.1847710609436035,-0.07376434653997421,1.6833933591842651
1725629322068012000,3.389011962890625,-2.1317570209503174,-0.06258659809827805,2.086824655532837
1725629322078046000,3.3990458984375,-2.096959114074707,-0.02753993310034275,2.4487252235412598
1725629322088081000,3.409080810546875,-1.9816744327545166,-0.0852920338511467,2.7562875747680664
1725629322098115000,3.419114990234375,-1.7732312679290771,-0.3349665701389313,2.9579291343688965
1725629322108148700,3.429148681640625,-1.532061219215393,-0.7838175892829895,3.162982225418091
1725629322118183000,3.439182861328125,-1.1913427114486694,-1.4122062921524048,3.6328136920928955
1725629322128217000,3.449217041015625,-0.913880467414856,-2.490520715713501,3.7747795581817627
1725629322138250800,3.459250732421875,-1.0319311618804932,-3.8662819862365723,3.266510248184204
1725629322148285000,3.469284912109375,-1.4566912651062012,-4.686189651489258,3.273128032684326
1725629322158319000,3.479319091796875,-1.7616081237792969,-4.120079040527344,3.5340192317962646
1725629322168352800,3.489352783203125,-1.776537299156189,-4.147593975067139,3.284461259841919
1725629322178387000,3.499386962890625,-1.703068733215332,-4.39625883102417,2.929701805114746
1725629322188420900,3.5094208984375,-1.4040766954421997,-2.5617499351501465,2.806516170501709
1725629322198454800,3.519454833984375,-0.7078334093093872,-1.5720884799957275,2.406747341156006
1725629322208489000,3.529489013671875,-0.3084089457988739,-0.7877078056335449,1.6774647235870361
1725629322218523000,3.53952294921875,0.010963170789182186,0.16100043058395386,1.1739286184310913
1725629322228556800,3.549556884765625,0.16771017014980316,-0.14611776173114777,0.7695524096488953
1725629322238591000,3.559591064453125,0.07339031994342804,-1.2364691495895386,0.6307833194732666
1725629322248625000,3.569625,-0.1782943159341812,-1.6249632835388184,0.9260833263397217
1725629322258658800,3.579658935546875,-0.5529526472091675,-1.068783164024353,0.9494847655296326
1725629322268693000,3.58969287109375,-1.3064970970153809,-0.9265663027763367,0.42832985520362854
1725629322278727000,3.599726806640625,-2.180267095565796,-0.0702337697148323,-0.18510133028030396
1725629322288760800,3.6097607421875,-2.4510395526885986,0.8309735059738159,-0.7895017266273499
1725629322298795000,3.619794921875,-2.532940626144409,1.3944827318191528,-1.1318165063858032
1725629322308829000,3.629828857421875,-2.548302412033081,1.4387978315353394,-1.2556159496307373
1725629322318862800,3.63986279296875,-2.4786288738250732,0.8488770127296448,-1.2411973476409912
1725629322328897000,3.64989697265625,-2.3764097690582275,0.07543644309043884,-1.040892481803894
1725629322338931000,3.659930908203125,-2.2300620079040527,-0.643920361995697,-0.5380370020866394
1725629322348964900,3.66996484375,-1.9522587060928345,-0.9945119023323059,0.18263112008571625
1725629322358998800,3.679998779296875,-1.6439932584762573,-1.0755990743637085,0.6818827390670776
1725629322369033700,3.69003369140625,-1.3102606534957886,-1.0331501960754395,0.8148343563079834
1725629322379068000,3.70006787109375,-0.9826285243034363,-0.7479129433631897,0.8267852663993835
1725629322389102000,3.71010205078125,-0.6508590579032898,-0.4579940140247345,0.8113314509391785
1725629322399135700,3.7201357421875,-0.28492501378059387,-0.26317286491394043,0.7599449753761292
1725629322409170000,3.730169921875,0.001187038142234087,-0.14810942113399506,0.6767152547836304
1725629322419204000,3.7402041015625,0.22528670728206635,-0.07477368414402008,0.5201788544654846
1725629322429237800,3.75023779296875,0.38532084226608276,-0.06437636911869049,0.3105070888996124
1725629322439272000,3.76027197265625,0.41008397936820984,-0.03854530677199364,0.10310808569192886
1725629322449305900,3.770305908203125,0.3368239402770996,0.09139803051948547,-0.05783531814813614
1725629322459339800,3.78033984375,0.27484792470932007,0.19227376580238342,-0.1886950582265854
1725629322469374000,3.7903740234375,0.19415327906608582,0.20130161941051483,-0.3091374635696411
1725629322479407900,3.800407958984375,0.08699752390384674,0.3741047978401184,-0.39299720525741577
1725629322489441800,3.81044189453125,0.05566609650850296,0.49998030066490173,-0.4425831139087677
1725629322499476000,3.82047607421875,0.1073111817240715,0.5486343502998352,-0.5066960453987122
1725629322509510000,3.830510009765625,0.1900160312652588,0.659279465675354,-0.5577804446220398
1725629322519543800,3.840543701171875,0.23580242693424225,0.848397433757782,-0.5700981020927429
1725629322529578000,3.850577880859375,0.29894116520881653,0.9163283109664917,-0.4967069625854492
1725629322539612000,3.86061181640625,0.35709795355796814,0.9613940119743347,-0.377063125371933
1725629322549645800,3.870645751953125,0.3788597881793976,0.9875136017799377,-0.12549792230129242
1725629322559680000,3.880679931640625,0.41370779275894165,0.8059731125831604,0.17859672009944916
1725629322569714000,3.8907138671875,0.46373406052589417,0.4709571897983551,0.4352591633796692
1725629322579747800,3.900747802734375,0.5061978697776794,0.11135347187519073,0.5859533548355103
1725629322589782000,3.910781982421875,0.507937490940094,-0.13906456530094147,0.6618731021881104
1725629322599816000,3.92081591796875,0.5239617228507996,-0.4152207672595978,0.7378408312797546
1725629322609849900,3.930849853515625,0.5329470038414001,-0.6159447431564331,0.7906205654144287
1725629322619883800,3.9408837890625,0.5221713781356812,-0.6316685676574707,0.8080285787582397
1725629322629918700,3.950918701171875,0.549069881439209,-0.5528205037117004,0.8434160947799683
1725629322639953000,3.960952880859375,0.5431241393089294,-0.24073050916194916,0.823404848575592
1725629322649987000,3.970987060546875,0.41276273131370544,0.430664598941803,0.6314391493797302
1725629322660020700,3.981020751953125,0.29448774456977844,1.0731133222579956,0.3608419895172119
1725629322670055000,3.991054931640625,0.11049378663301468,1.7484638690948486,0.03467961400747299
1725629322680089000,4.001089111328125,-0.19392922520637512,2.5772736072540283,-0.37719476222991943
1725629322690122800,4.011122802734375,-0.44365420937538147,3.5413193702697754,-0.830936849117279
1725629322700157000,4.021156982421875,-0.5072744488716125,4.368147850036621,-1.204021692276001
1725629322710190800,4.03119091796875,-0.16991722583770752,4.124230861663818,-1.1901217699050903
1725629322720224800,4.041224853515625,0.2537679970264435,2.005053758621216,-0.8746615648269653
1725629322730259000,4.051259033203125,0.14217522740364075,1.1692469120025635,-0.2640468180179596
1725629322740292900,4.06129296875,0.05300966650247574,1.5317646265029907,0.12533128261566162
1725629322750326800,4.071326904296875,0.24800187349319458,1.6017788648605347,0.02970796264708042
1725629322760360700,4.081360595703125,0.4770638346672058,1.6257257461547852,-0.34397241473197937
1725629322770395000,4.091394775390625,0.5843974351882935,1.4787408113479614,-0.593521773815155
1725629322780428500,4.101428466796875,0.6674731373786926,1.270301342010498,-0.5915049910545349
1725629322790462700,4.111462646484375,0.7891513705253601,1.0843632221221924,-0.4495864510536194
1725629322800497000,4.121496826171875,0.8650477528572083,0.8649289011955261,-0.29274144768714905
1725629322810530600,4.131530517578125,0.9032150506973267,0.6304489374160767,-0.22648349404335022
1725629322820564700,4.141564697265625,0.8898659348487854,0.29749682545661926,-0.24480870366096497
1725629322830599000,4.151598876953125,0.8834922313690186,-0.1613762527704239,-0.2826867699623108
1725629322840632600,4.161632568359375,0.8660050630569458,-0.5393810868263245,-0.30256006121635437
1725629322850666800,4.171666748046875,0.8395693302154541,-0.7215083837509155,-0.3061867952346802
1725629322860701000,4.181700927734375,0.803575336933136,-0.7957224249839783,-0.2767391502857208
1725629322870735600,4.191735595703125,0.7352233529090881,-0.7024053931236267,-0.2309522181749344
1725629322880769800,4.201769775390625,0.603426456451416,-0.3511642813682556,-0.2520950436592102
1725629322890803700,4.2118037109375,0.4097268879413605,0.054560206830501556,-0.286851704120636
1725629322900837600,4.221837646484375,0.20585709810256958,0.4702378213405609,-0.3267735540866852
1725629322910871800,4.231871826171875,0.06364662945270538,0.7834201455116272,-0.3912077844142914
1725629322920905700,4.24190576171875,0.022981492802500725,0.8460526466369629,-0.37177574634552
1725629322930939600,4.251939697265625,0.08579827100038528,0.7287049889564514,-0.23448261618614197
1725629322940973800,4.261973876953125,0.16648246347904205,0.571002185344696,-0.027226630598306656
1725629322951007700,4.2720078125,0.19735784828662872,0.41589561104774475,0.19678810238838196
1725629322961041700,4.282041748046875,0.13349232077598572,0.23878660798072815,0.3433724641799927
1725629322971075800,4.292075927734375,-0.014525959268212318,0.0942889004945755,0.4174608290195465
1725629322981109800,4.30210986328125,-0.1997424215078354,0.003634632332250476,0.4759960472583771
1725629322991143700,4.312143798828125,-0.35400769114494324,-0.041174568235874176,0.5589598417282104
1725629323001177900,4.322177734375,-0.4546525478363037,-0.06722161918878555,0.6440547704696655
1725629323011211800,4.332211669921875,-0.5236627459526062,-0.08158151060342789,0.7170791029930115
1725629323021245700,4.34224560546875,-0.54945307970047,-0.0869794711470604,0.7980002760887146
1725629323031279900,4.35227978515625,-0.557373046875,-0.10168622434139252,0.8912739753723145
1725629323041313500,4.3623134765625,-0.5409192442893982,-0.14236707985401154,0.9678864479064941
1725629323051347700,4.37234765625,-0.5495826601982117,-0.19536711275577545,0.9882320761680603
1725629323061382000,4.3823818359375,-0.5705153346061707,-0.2757359743118286,0.9463351964950562
1725629323071415600,4.39241552734375,-0.5891965627670288,-0.34570908546447754,0.8275796175003052
1725629323081449700,4.40244970703125,-0.5791183114051819,-0.35692524909973145,0.6384706497192383
1725629323091484700,4.412484619140625,-0.5652734041213989,-0.381943017244339,0.4766881763935089
1725629323101518800,4.422518798828125,-0.5212164521217346,-0.38439419865608215,0.40061309933662415
1725629323111552800,4.432552734375,-0.4671821594238281,-0.28115591406822205,0.4128779172897339
1725629323121586700,4.442586669921875,-0.42014461755752563,-0.16044068336486816,0.4518362283706665
1725629323131620600,4.45262060546875,-0.37689781188964844,-0.04600365459918976,0.46624451875686646
1725629323141654800,4.46265478515625,-0.37874841690063477,0.08085708320140839,0.43950557708740234
1725629323151688700,4.472688720703125,-0.405587762594223,0.21048396825790405,0.3917645514011383
1725629323161722600,4.48272265625,-0.4358798861503601,0.3045713007450104,0.341280072927475
1725629323171756800,4.4927568359375,-0.48029544949531555,0.3874218165874481,0.2993829846382141
1725629323181790700,4.502790771484375,-0.512569785118103,0.43607857823371887,0.26362285017967224
1725629323191824600,4.51282470703125,-0.5668204426765442,0.427962064743042,0.23209704458713531
1725629323201858800,4.52285888671875,-0.6295040249824524,0.41722366213798523,0.20448991656303406
1725629323211892700,4.532892822265625,-0.6626195311546326,0.43964818120002747,0.18821264803409576
1725629323221926700,4.5429267578125,-0.6924165487289429,0.4242423176765442,0.17367684841156006
1725629323231960800,4.5529609375,-0.7155242562294006,0.43811845779418945,0.16538377106189728
1725629323241994800,4.562994873046875,-0.7361850738525391,0.5070799589157104,0.15001332759857178
1725629323252028700,4.573028564453125,-0.7564930319786072,0.5199084877967834,0.1255422681570053
1725629323262062800,4.583062744140625,-0.7813459634780884,0.49826154112815857,0.08601056039333344
1725629323272096800,4.5930966796875,-0.7738307118415833,0.489082396030426,0.05603531748056412
1725629323282130700,4.603130615234375,-0.7525834441184998,0.45881423354148865,0.04454883560538292
1725629323292164900,4.613164794921875,-0.7027602195739746,0.4489155113697052,0.04297203943133354
1725629323302199800,4.62319970703125,-0.5959962606430054,0.5189369916915894,0.021732795983552933
1725629323312233700,4.633233642578125,-0.4663773775100708,0.6483273506164551,0.011634588241577148
1725629323322267600,4.643267578125,-0.37276116013526917,0.7486254572868347,0.011542176827788353
1725629323332301800,4.6533017578125,-0.3394297659397125,0.843837559223175,0.01749388873577118
1725629323342335700,4.663335693359375,-0.3470754325389862,0.9504992961883545,0.011682871729135513
1725629323352369700,4.67336962890625,-0.40834948420524597,1.0447255373001099,-0.0030490087810903788
1725629323362403800,4.68340380859375,-0.4935605227947235,1.1338285207748413,-0.034923847764730453
1725629323372437800,4.693437744140625,-0.5814749598503113,1.2423657178878784,-0.09266466647386551
1725629323382471700,4.7034716796875,-0.6921953558921814,1.3751541376113892,-0.15596240758895874
1725629323392505600,4.713505615234375,-0.7993783950805664,1.514482021331787,-0.207763209939003
1725629323402539800,4.723539794921875,-0.8799585103988647,1.640191912651062,-0.23997147381305695
1725629323412573700,4.73357373046875,-0.9205975532531738,1.7559635639190674,-0.22073432803153992
1725629323422607600,4.743607666015625,-0.9005985260009766,1.8937536478042603,-0.15954473614692688
1725629323432641800,4.753641845703125,-0.8022250533103943,2.0116236209869385,-0.0777309462428093
1725629323442675700,4.76367578125,-0.7280112504959106,2.164652109146118,0.0557115338742733
1725629323452709600,4.773709716796875,-0.5502063632011414,2.2772412300109863,0.1599411517381668
1725629323462743800,4.783743896484375,-0.3194405138492584,2.2856650352478027,0.24444164335727692
1725629323472777700,4.79377783203125,-0.045919019728899,2.2270379066467285,0.3443140387535095
1725629323482811600,4.803811767578125,0.22301682829856873,2.1030261516571045,0.41705456376075745
1725629323492845800,4.813845703125,0.4585425555706024,1.8838717937469482,0.4277404844760895
1725629323502880800,4.823880859375,0.6190358400344849,1.5561915636062622,0.37963181734085083
1725629323512914700,4.833914794921875,0.7427781820297241,1.259521245956421,0.3270135223865509
1725629323522948900,4.843948974609375,0.8162657022476196,0.996208667755127,0.27962151169776917
1725629323532982800,4.853982666015625,0.8009223341941833,0.7276180982589722,0.19290655851364136
1725629323543016700,4.8640166015625,0.7198242545127869,0.5167218446731567,0.08817321807146072
1725629323553051000,4.87405078125,0.6201706528663635,0.321625292301178,-0.003981957212090492
1725629323563084800,4.884084716796875,0.5101618766784668,0.09101816266775131,-0.06940384209156036
1725629323573118700,4.89411865234375,0.4020603895187378,-0.11907361447811127,-0.11362023651599884
1725629323583153000,4.90415283203125,0.3419826626777649,-0.24275295436382294,-0.1355452537536621
1725629323593186800,4.914186767578125,0.3418404757976532,-0.3003530204296112,-0.14133107662200928
1725629323603220700,4.924220703125,0.3621521592140198,-0.35724693536758423,-0.12479764223098755
1725629323613255000,4.9342548828125,0.3997511565685272,-0.40113958716392517,-0.11581847816705704
1725629323623288800,4.944288818359375,0.42602723836898804,-0.433387815952301,-0.11664432287216187
1725629323633322800,4.95432275390625,0.42486289143562317,-0.44537410140037537,-0.13201722502708435
1725629323643357000,4.96435693359375,0.4044223427772522,-0.42224612832069397,-0.15972182154655457
1725629323653390600,4.974390625,0.3710842430591583,-0.3821532428264618,-0.17925021052360535
1725629323663424800,4.9844248046875,0.32629653811454773,-0.32513147592544556,-0.1829988807439804
1725629323673458700,4.994458740234375,0.2826799154281616,-0.2557825744152069,-0.15930798649787903
1725629323683492600,5.00449267578125,0.2646106481552124,-0.1603846698999405,-0.12268765270709991
1725629323693527800,5.01452783203125,0.2595815658569336,-0.05889621004462242,-0.09430524706840515
1725629323703561700,5.024561767578125,0.27546653151512146,0.039578698575496674,-0.07446123659610748
1725629323713596000,5.034595947265625,0.32212695479393005,0.15052759647369385,-0.06378089636564255
1725629323723629800,5.0446298828125,0.3854087293148041,0.24921609461307526,-0.05472215637564659
1725629323733663700,5.054663818359375,0.4426860809326172,0.31099027395248413,-0.06668584793806076
1725629323743697400,5.064697509765625,0.4823586642742157,0.372004896402359,-0.09320268034934998
1725629323753731600,5.074731689453125,0.5201830863952637,0.4743312895298004,-0.12179532647132874
1725629323763765200,5.08476513671875,0.5787172317504883,0.533050000667572,-0.1659071296453476
1725629323773799400,5.09479931640625,0.6272264719009399,0.5070696473121643,-0.2159903347492218
1725629323783833600,5.10483349609375,0.6435434222221375,0.4462776482105255,-0.27630454301834106
1725629323793867300,5.1148671875,0.6390341520309448,0.38443636894226074,-0.34282875061035156
1725629323803901400,5.1249013671875,0.5862961411476135,0.32512643933296204,-0.39012834429740906
1725629323813935400,5.134935302734375,0.500749409198761,0.3149533271789551,-0.44913366436958313
1725629323823969300,5.14496923828125,0.40765729546546936,0.32559719681739807,-0.5231077671051025
1725629323834003500,5.15500341796875,0.33003073930740356,0.32599568367004395,-0.5934358835220337
1725629323844037400,5.165037353515625,0.26809707283973694,0.45397841930389404,-0.7239579558372498
1725629323854071300,5.1750712890625,0.29595160484313965,0.5784499645233154,-0.9234973788261414
1725629323864106500,5.1851064453125,0.4219300448894501,0.5038585662841797,-1.1062215566635132
1725629323874140400,5.195140380859375,0.5413832664489746,0.25369295477867126,-1.203405737876892
1725629323884174300,5.20517431640625,0.6162881255149841,0.06670311093330383,-1.2364065647125244
1725629323894208500,5.21520849609375,0.698288083076477,-0.09630817174911499,-1.1926870346069336
1725629323904242200,5.2252421875,0.7750289440155029,-0.28843048214912415,-1.11442232131958
1725629323914276400,5.2352763671875,0.7861732840538025,-0.4268980622291565,-1.0811187028884888
1725629323924310500,5.245310546875,0.7120055556297302,-0.5779299139976501,-1.0665912628173828
1725629323934344200,5.25534423828125,0.5420769453048706,-0.6278268694877625,-1.0954310894012451
1725629323944378400,5.26537841796875,0.35476988554000854,-0.6742369532585144,-1.0948041677474976
1725629323954412500,5.27541259765625,0.2168317586183548,-0.7475979924201965,-1.0111583471298218
1725629323964446200,5.2854462890625,0.08551075309515,-0.6722787618637085,-0.8777158260345459
1725629323974480400,5.29548046875,-0.01309275534003973,-0.5200895071029663,-0.7382951378822327
1725629323984514600,5.3055146484375,-0.06875921040773392,-0.38533031940460205,-0.556999921798706
1725629323994548200,5.31554833984375,-0.10591399669647217,-0.22060255706310272,-0.35321125388145447
1725629324004582400,5.32558251953125,-0.0460599884390831,-0.09986468404531479,-0.1465294361114502
1725629324014616600,5.335616455078125,0.013354655355215073,0.024225234985351562,-0.016545038670301437
1725629324024650200,5.345650146484375,0.033468712121248245,0.09637212753295898,0.03159799054265022
1725629324034684400,5.355684326171875,0.05212419852614403,0.11060821264982224,0.10448530316352844
1725629324044719400,5.36571923828125,0.04911802336573601,0.13490183651447296,0.2181524783372879
1725629324054753300,5.375753173828125,0.013433004729449749,0.15641197562217712,0.3307117223739624
1725629324064787500,5.385787353515625,-0.06169157102704048,0.2034498006105423,0.44105181097984314
1725629324074821400,5.3958212890625,-0.14515045285224915,0.24849314987659454,0.5642096400260925
1725629324084855300,5.405855224609375,-0.16939347982406616,0.26657387614250183,0.7069303393363953
1725629324094889500,5.415889404296875,-0.17575222253799438,0.31502917408943176,0.8573441505432129
1725629324104923400,5.42592333984375,-0.1955440491437912,0.39121153950691223,0.971049964427948
1725629324114957300,5.435957275390625,-0.21170350909233093,0.3961932957172394,1.0729117393493652
1725629324124991500,5.445991455078125,-0.2348029762506485,0.3958023488521576,1.1853655576705933
1725629324135025400,5.456025390625,-0.2625027298927307,0.42409977316856384,1.3030575513839722
1725629324145059300,5.466059326171875,-0.3027585446834564,0.42524173855781555,1.4213881492614746
1725629324155093500,5.476093505859375,-0.3710148334503174,0.4450826346874237,1.5287193059921265
1725629324165127200,5.486127197265625,-0.4449894428253174,0.5121647119522095,1.5437695980072021
1725629324175161300,5.496161376953125,-0.5373318195343018,0.5613081455230713,1.4456599950790405
1725629324185195500,5.506195556640625,-0.6200461387634277,0.5511071681976318,1.2816848754882812
1725629324195230500,5.51623046875,-0.6629617214202881,0.4823854863643646,1.1005619764328003
1725629324205264400,5.526264404296875,-0.6256992816925049,0.3478497564792633,0.9628402590751648
1725629324215298300,5.53629833984375,-0.539933443069458,0.22830858826637268,0.9059778451919556
1725629324225332500,5.54633251953125,-0.4236060380935669,0.13322813808918,0.8854323625564575
1725629324235366400,5.556366455078125,-0.3147726058959961,0.0361749641597271,0.8512362837791443
1725629324245400300,5.566400390625,-0.24001608788967133,-0.05580156296491623,0.7896488308906555
1725629324255434200,5.576434326171875,-0.1853305846452713,-0.1369747668504715,0.72016441822052
1725629324265468400,5.586468505859375,-0.16829301416873932,-0.23265521228313446,0.6908823847770691
1725629324275502300,5.59650244140625,-0.18433086574077606,-0.3287524878978729,0.6911157369613647
1725629324285536300,5.606536376953125,-0.21548639237880707,-0.39174795150756836,0.6792881488800049
1725629324295570400,5.6165703125,-0.2380707710981369,-0.44165968894958496,0.6621699929237366
1725629324305604400,5.626604248046875,-0.24382692575454712,-0.4526665210723877,0.6413443088531494
1725629324315638300,5.63663818359375,-0.24678006768226624,-0.4186958968639374,0.6382702589035034
1725629324325672400,5.64667236328125,-0.23909445106983185,-0.3664180338382721,0.6530715823173523
1725629324335706400,5.656706298828125,-0.22881025075912476,-0.23703432083129883,0.6657314300537109
1725629324345740300,5.666740234375,-0.23748257756233215,-0.04692457243800163,0.640921950340271
1725629324355775200,5.676775146484375,-0.2398926019668579,0.1827038675546646,0.588051438331604
1725629324365809400,5.686809326171875,-0.2235165536403656,0.4287421405315399,0.5306065082550049
1725629324375843300,5.69684326171875,-0.19950778782367706,0.6623233556747437,0.49393823742866516
1725629324385877200,5.706877197265625,-0.16689658164978027,0.8887724876403809,0.4564118981361389
1725629324395911400,5.716911376953125,-0.13625092804431915,1.0578690767288208,0.42475777864456177
1725629324405945300,5.7269453125,-0.13201409578323364,1.1262073516845703,0.4257631301879883
1725629324415979300,5.736979248046875,-0.1139393299818039,1.0787873268127441,0.4698658883571625
1725629324426013400,5.747013427734375,-0.09171738475561142,1.0032793283462524,0.5330751538276672
1725629324436047400,5.75704736328125,-0.07970622926950455,0.9190260171890259,0.5610178112983704
1725629324446081300,5.767081298828125,-0.10493461787700653,0.8224952220916748,0.5130231380462646
1725629324456115500,5.777115478515625,-0.18999025225639343,0.789192795753479,0.47836053371429443
1725629324466149400,5.7871494140625,-0.28188157081604004,0.8045472502708435,0.5145419836044312
1725629324476183300,5.797183349609375,-0.32013243436813354,0.7941812872886658,0.5727538466453552
1725629324486217500,5.807217529296875,-0.2923642098903656,0.7058961987495422,0.6050390601158142
1725629324496251400,5.81725146484375,-0.25776320695877075,0.6887974739074707,0.6283731460571289
1725629324506286300,5.827286376953125,-0.2629670202732086,0.5388199687004089,0.6404183506965637
1725629324516320500,5.837320556640625,-0.15330015122890472,0.20656375586986542,0.5520431995391846
1725629324526354400,5.8473544921875,0.031604185700416565,-0.12123249471187592,0.43139052391052246
1725629324536388400,5.857388427734375,0.20350296795368195,-0.24888846278190613,0.36847180128097534
1725629324546422500,5.867422607421875,0.3431714177131653,-0.3082314133644104,0.32266223430633545
1725629324556456400,5.87745654296875,0.38459333777427673,-0.46618273854255676,0.18808507919311523
1725629324566490400,5.887490478515625,0.3306067883968353,-0.5626765489578247,0.031791865825653076
1725629324576524500,5.897524658203125,0.27958136796951294,-0.5082293152809143,-0.09941131621599197
1725629324586558500,5.907558349609375,0.2464202344417572,-0.41833752393722534,-0.20384743809700012
1725629324596592400,5.91759228515625,0.2319275289773941,-0.3137837052345276,-0.2892419099807739
1725629324606626300,5.927626220703125,0.2416808158159256,-0.21013319492340088,-0.3503694534301758
1725629324616660500,5.937660400390625,0.24742095172405243,-0.11053150147199631,-0.3894355893135071
1725629324626694400,5.9476943359375,0.2413787692785263,-0.009084510616958141,-0.38738149404525757
1725629324636728300,5.957728271484375,0.23438669741153717,0.059481438249349594,-0.34017664194107056
1725629324646762500,5.967762451171875,0.22410555183887482,0.06095976009964943,-0.3010241687297821
1725629324656797400,5.97779736328125,0.20259737968444824,-0.006682317703962326,-0.2944923937320709
1725629324666831600,5.98783154296875,0.21030323207378387,-0.10414602607488632,-0.2867409884929657
1725629324676865300,5.997865234375,0.26825419068336487,-0.2114666998386383,-0.264401912689209
1725629324686899500,6.0078994140625,0.3075845539569855,-0.33908694982528687,-0.24662211537361145
1725629324696933400,6.017933349609375,0.3055102229118347,-0.44303449988365173,-0.2591153681278229
1725629324706967300,6.02796728515625,0.2877432107925415,-0.4849393367767334,-0.2908487915992737
1725629324717001500,6.03800146484375,0.28427639603614807,-0.456786185503006,-0.3063722550868988
1725629324727035400,6.048035400390625,0.2881891131401062,-0.3920263648033142,-0.2909032702445984
1725629324737069300,6.0580693359375,0.29121696949005127,-0.3102298676967621,-0.25515973567962646
1725629324747103200,6.068103271484375,0.3047516942024231,-0.27067819237709045,-0.22527961432933807
1725629324757137400,6.078137451171875,0.3226310908794403,-0.2316909283399582,-0.23125189542770386
1725629324767171000,6.088171142578125,0.34699395298957825,-0.22522850334644318,-0.250959575176239
1725629324777205200,6.098205322265625,0.3687582314014435,-0.20583689212799072,-0.2632201313972473
1725629324787239400,6.108239501953125,0.3923458456993103,-0.15757349133491516,-0.2734930217266083
1725629324797274400,6.1182744140625,0.4263586103916168,-0.07605326175689697,-0.27144908905029297
1725629324807308300,6.128308349609375,0.45085409283638,-0.00862069334834814,-0.253701776266098
1725629324817342200,6.13834228515625,0.4460711181163788,0.022900210693478584,-0.2395862489938736
1725629324827376400,6.14837646484375,0.42878881096839905,0.030843088403344154,-0.2481003850698471
1725629324837410300,6.158410400390625,0.40903013944625854,0.06246272847056389,-0.26254329085350037
1725629324847444200,6.1684443359375,0.3886665403842926,0.06664814800024033,-0.27189579606056213
1725629324857478400,6.178478515625,0.3620249032974243,0.12422151118516922,-0.29533258080482483
1725629324867512300,6.18851220703125,0.3696311414241791,0.2319306582212448,-0.3699303865432739
1725629324877546200,6.198546142578125,0.3967432379722595,0.1876736879348755,-0.4236026406288147
1725629324887580200,6.208580078125,0.4111061990261078,0.09294984489679337,-0.45420369505882263
1725629324897614300,6.2186142578125,0.4303182065486908,0.0356641560792923,-0.5035749077796936
1725629324907648300,6.228648193359375,0.44681409001350403,0.04169195517897606,-0.591712474822998
1725629324917682200,6.23868212890625,0.48834899067878723,-0.0417390801012516,-0.6871718168258667
1725629324927716400,6.24871630859375,0.563409149646759,-0.17875419557094574,-0.7631899118423462
1725629324937751300,6.258751220703125,0.5879489183425903,-0.20828691124916077,-0.9029794335365295
1725629324947785500,6.268785400390625,0.5576102137565613,-0.27999597787857056,-0.9889324307441711
1725629324957819100,6.278819091796875,0.5337820053100586,-0.4138052761554718,-0.9462763667106628
1725629324967853300,6.288853271484375,0.4983084201812744,-0.48577508330345154,-0.8209328055381775
1725629324977887200,6.29888720703125,0.4062887132167816,-0.5435925126075745,-0.6972032189369202
1725629324987921200,6.308921142578125,0.2864568531513214,-0.6145934462547302,-0.5831307172775269
1725629324997955300,6.318955322265625,0.13202974200248718,-0.6266834735870361,-0.5001225471496582
1725629325007989200,6.3289892578125,-0.03436989337205887,-0.6679675579071045,-0.4675161838531494
1725629325018023200,6.339023193359375,-0.14520278573036194,-0.8038800954818726,-0.47331827878952026
1725629325028057300,6.349057373046875,-0.22668832540512085,-0.8901819586753845,-0.5034623146057129
1725629325038091300,6.35909130859375,-0.320225328207016,-0.8058761358261108,-0.5329476594924927
1725629325048125200,6.369125244140625,-0.4030211567878723,-0.5987296104431152,-0.5371159911155701
1725629325058159400,6.379159423828125,-0.44428080320358276,-0.3735972046852112,-0.5019757747650146
1725629325068194000,6.389194091796875,-0.430029958486557,-0.10803502798080444,-0.4509373605251312
1725629325078228200,6.399228271484375,-0.39365828037261963,0.194893479347229,-0.4350983202457428
1725629325088262400,6.409262451171875,-0.34126538038253784,0.39012688398361206,-0.42475461959838867
1725629325098296000,6.419296142578125,-0.33156317472457886,0.5265277624130249,-0.40110304951667786
1725629325108330200,6.429330322265625,-0.3058527708053589,0.5567511320114136,-0.37795671820640564
1725629325118364400,6.439364501953125,-0.24562448263168335,0.5273139476776123,-0.3101401627063751
1725629325128398000,6.449398193359375,-0.18173418939113617,0.500063955783844,-0.1908143311738968
1725629325138432300,6.459432373046875,-0.14303705096244812,0.4297810196876526,-0.050589416176080704
1725629325148466400,6.469466552734375,-0.12311527132987976,0.33206164836883545,0.09234216809272766
1725629325158500000,6.4795,-0.14464665949344635,0.26605626940727234,0.23949992656707764
1725629325168534300,6.4895341796875,-0.148053377866745,0.21918118000030518,0.3891916871070862
1725629325178568400,6.499568359375,-0.13199074566364288,0.1935310661792755,0.5434600710868835
1725629325188602000,6.50960205078125,-0.114535853266716,0.1856750100851059,0.6828696727752686
1725629325198637300,6.51963720703125,-0.12331759929656982,0.18380524218082428,0.7864737510681152
1725629325208671200,6.529671142578125,-0.15229013562202454,0.19426347315311432,0.8523582220077515
1725629325218705200,6.539705078125,-0.16885100305080414,0.2301999032497406,0.8854424357414246
1725629325228739300,6.5497392578125,-0.22008542716503143,0.28973114490509033,0.8741633892059326
1725629325238773200,6.559773193359375,-0.31108805537223816,0.3201501965522766,0.8112509250640869
1725629325248807200,6.56980712890625,-0.44099199771881104,0.31774964928627014,0.7091719508171082
1725629325258841300,6.57984130859375,-0.5983192324638367,0.3262752592563629,0.575843095779419
1725629332985303800,14.3063037109375,0.9376854300498962,0.25704264640808105,0.5136768221855164
1725629332995336700,14.316336669921874,0.6560306549072266,-0.12330079823732376,0.4063221514225006
1725629333005371000,14.326370849609376,0.3360803723335266,-0.365732878446579,0.3327384889125824
1725629333015404800,14.33640478515625,0.06489726901054382,-0.4196854829788208,0.2361338883638382
1725629333025438700,14.346438720703125,-0.08677507936954498,-0.3720204830169678,0.0907529965043068
1725629333035471600,14.3564716796875,-0.12408722937107086,-0.29375389218330383,-0.06474937498569489
1725629333045505800,14.366505859375,-0.0725577250123024,-0.1913449615240097,-0.19097015261650085
1725629333055540000,14.3765400390625,-0.0012768779415637255,-0.05609378218650818,-0.2956022322177887
1725629333065573600,14.38657373046875,0.04664617404341698,0.06518630683422089,-0.3786989748477936
1725629333075607800,14.39660791015625,0.04330265894532204,0.08559587597846985,-0.43089592456817627
1725629333085640700,14.406640625,0.00022815720876678824,0.017452774569392204,-0.44610098004341125
1725629333095675000,14.4166748046875,-0.06699405610561371,-0.10359057784080505,-0.43032005429267883
1725629333105708800,14.426708740234375,-0.1272566020488739,-0.19284269213676453,-0.3914259374141693
1725629333115742700,14.43674267578125,-0.16225965321063995,-0.19954536855220795,-0.3565857708454132
1725629333125776600,14.446776611328126,-0.18373245000839233,-0.14280833303928375,-0.3414877653121948
1725629333135809500,14.4568095703125,-0.2074890434741974,-0.09967171400785446,-0.3491038978099823
1725629333145843700,14.46684375,-0.19730006158351898,-0.057878196239471436,-0.35240381956100464
1725629333155878000,14.4768779296875,-0.1558658927679062,0.02350609190762043,-0.3333665132522583
1725629333165911600,14.48691162109375,-0.12062614411115646,0.09710387885570526,-0.28412094712257385
1725629333175944700,14.49694482421875,-0.08860998600721359,0.10787446796894073,-0.22991099953651428
1725629333185978600,14.506978515625,-0.0525454618036747,0.07650402933359146,-0.1849866658449173
1725629333196012800,14.5170126953125,-0.026766138151288033,-0.014249597676098347,-0.1490250825881958
1725629333206046700,14.527046630859376,-0.03174304962158203,-0.13633929193019867,-0.07806143164634705
1725629333216080600,14.53708056640625,-0.05800430849194527,-0.22662954032421112,0.03333697468042374
1725629333226113800,14.54711376953125,-0.06450428813695908,-0.277241051197052,0.11469574272632599
1725629333236148000,14.55714794921875,-0.05269068479537964,-0.30818602442741394,0.13929450511932373
1725629333246181600,14.567181640625,-0.03702038154006004,-0.3142748177051544,0.10912356525659561
1725629333256215800,14.5772158203125,-0.029565660282969475,-0.29609793424606323,0.04925117641687393
1725629333266249700,14.587249755859375,-0.014869539067149162,-0.2627466320991516,-0.03170119598507881
1725629333276283000,14.597282958984374,-0.011157869361341,-0.25264275074005127,-0.12892378866672516
1725629333286316800,14.60731689453125,0.008734080009162426,-0.2238723337650299,-0.2220742404460907
1725629333296350700,14.617350830078125,0.04629112407565117,-0.10273563116788864,-0.26671287417411804
1725629333306385000,14.627385009765625,0.08540017902851105,0.044302813708782196,-0.2808915376663208
1725629333316417800,14.637417724609374,0.1049242839217186,0.12706691026687622,-0.2734185457229614
1725629333326451700,14.64745166015625,0.10460204631090164,0.1411350518465042,-0.24906127154827118
1725629333336486000,14.65748583984375,0.07731888443231583,0.08200883120298386,-0.2111719250679016
1725629333346519800,14.667519775390625,0.02090514451265335,-0.04918647184967995,-0.14704327285289764
1725629333356553700,14.6775537109375,-0.047495484352111816,-0.18685618042945862,-0.05031086131930351
1725629333366586600,14.687586669921876,-0.09084215760231018,-0.2462097853422165,0.057206008583307266
1725629333376620800,14.697620849609375,-0.10681775212287903,-0.23642271757125854,0.13720335066318512
1725629333386655000,14.707655029296875,-0.10866732150316238,-0.199982687830925,0.18735440075397491
1725629333396688600,14.717688720703125,-0.10937017947435379,-0.13545577228069305,0.19867759943008423
1725629333406722800,14.727722900390624,-0.1004246175289154,-0.046490225940942764,0.1764173060655594
1725629333416755700,14.737755615234375,-0.07420609891414642,0.06645016372203827,0.13551175594329834
1725629333426790000,14.747789794921875,-0.035403840243816376,0.1936672329902649,0.10189494490623474
1725629333436823800,14.75782373046875,-0.004882007837295532,0.28303807973861694,0.08698529005050659
1725629333446857700,14.767857666015624,0.008305965922772884,0.2988937199115753,0.09551672637462616
1725629333456891000,14.777890869140625,0.007776110433042049,0.25193360447883606,0.117047980427742
1725629333466924500,14.787924560546875,0.004572593607008457,0.1658221334218979,0.13497985899448395
1725629333476958700,14.797958740234375,-0.01454665046185255,0.07041818648576736,0.13746212422847748
1725629333486993000,14.807992919921874,-0.0373651459813118,-0.00575514230877161,0.11789907515048981
1725629333497026600,14.818026611328126,-0.06377775222063065,-0.06273502111434937,0.07293908298015594
1725629333507059700,14.828059814453125,-0.08789587765932083,-0.09679152816534042,0.025584354996681213
1725629333517093600,14.83809375,-0.09613335132598877,-0.09738742560148239,-0.042063161730766296
1725629333527127800,14.8481279296875,-0.09567634761333466,-0.09062939137220383,-0.11180362850427628
1725629333537161700,14.85816162109375,-0.0752817839384079,-0.044709932059049606,-0.16829651594161987
1725629333547195600,14.868195556640625,-0.035407066345214844,0.015878580510616302,-0.20998883247375488
1725629333557228800,14.878228759765625,0.013473328202962875,0.05893067643046379,-0.23786398768424988
1725629333567262700,14.8882626953125,0.07225941121578217,0.0776902437210083,-0.23821020126342773
1725629333577296600,14.898296630859376,0.126436248421669,0.08112193644046783,-0.20658403635025024
1725629333587330800,14.908330810546875,0.17872820794582367,0.06653926521539688,-0.14741072058677673
1725629333597363700,14.91836376953125,0.21232162415981293,0.034235015511512756,-0.07146456092596054
1725629333607398000,14.92839794921875,0.21587321162223816,-0.022218139842152596,0.008540789596736431
1725629333617431800,14.938431884765626,0.19727160036563873,-0.07427322119474411,0.08401115238666534
1725629333627465700,14.9484658203125,0.16469714045524597,-0.07405643910169601,0.14485585689544678
1725629333637500000,14.9585,0.12318132817745209,-0.018125558272004128,0.18748976290225983
1725629333647532800,14.96853271484375,0.07245183736085892,0.07696953415870667,0.20180505514144897
1725629333657566700,14.978566650390626,0.027142001315951347,0.17698781192302704,0.19252361357212067
1725629333667601000,14.988600830078125,0.0007295692339539528,0.255317747592926,0.1826523393392563
1725629333677634800,14.998634765625,-0.01441517286002636,0.30143553018569946,0.180911123752594
1725629333687668700,15.008668701171874,-0.018064502626657486,0.32039403915405273,0.1751112937927246
1725629333697701600,15.01870166015625,-0.009975683875381947,0.27607637643814087,0.15813815593719482
1725629333707735800,15.02873583984375,0.0037758152466267347,0.21416640281677246,0.12862475216388702
1725629333717770000,15.03877001953125,0.029460815712809563,0.15241695940494537,0.08559930324554443
1725629333727803600,15.0488037109375,0.04834555834531784,0.09184335172176361,0.0281144380569458
1725629333737836800,15.0588369140625,0.04725709185004234,0.05354601517319679,-0.04698476195335388
1725629333747871000,15.06887109375,0.025679895654320717,0.06549695134162903,-0.14277680218219757
1725629333757905000,15.07890478515625,-0.01887676678597927,0.1474076211452484,-0.23741263151168823
1725629333767938800,15.088938720703124,-0.06802833080291748,0.28173133730888367,-0.33428990840911865
1725629333777973000,15.098972900390624,-0.1293889284133911,0.42295101284980774,-0.4223030209541321
1725629333788006000,15.109005859375,-0.19139690697193146,0.48371341824531555,-0.4607201814651489
1725629333798039800,15.119039794921875,-0.2808486521244049,0.3566005527973175,-0.47397419810295105
1725629333808074000,15.129073974609375,-0.3624074161052704,0.2230619192123413,-0.4722346067428589
1725629333818108000,15.13910791015625,-0.3643851578235626,0.16866829991340637,-0.43326008319854736
1725629333828141000,15.14914111328125,-0.30312925577163696,0.14233842492103577,-0.37952253222465515
1725629333838174700,15.1591748046875,-0.21737219393253326,0.15810903906822205,-0.331360399723053
1725629333848209000,15.169208984375,-0.13385120034217834,0.23590822517871857,-0.27485424280166626
1725629333858243000,15.1792431640625,-0.052761610597372055,0.30192163586616516,-0.22749009728431702
1725629333868276700,15.18927685546875,0.0055882493034005165,0.3199951946735382,-0.19510339200496674
1725629333878310000,15.199309814453125,0.02723602019250393,0.31024640798568726,-0.1842677891254425
1725629333888343800,15.20934375,0.019873177632689476,0.29340991377830505,-0.1877400130033493
1725629333898378000,15.2193779296875,-0.00005652580875903368,0.2654257118701935,-0.16958993673324585
1725629333908412000,15.229411865234376,-0.011187740601599216,0.174456387758255,-0.1218852624297142
1725629333918445800,15.23944580078125,0.013923226855695248,0.05420148745179176,-0.04810946434736252
1725629333928479000,15.24947900390625,0.06516776978969574,-0.03510122746229172,0.04320207238197327
1725629333938513000,15.259512939453124,0.12169228494167328,-0.06908304244279861,0.1394379884004593
1725629333948546800,15.269546875,0.1687769889831543,-0.04138723760843277,0.207583487033844
1725629333958581000,15.2795810546875,0.21238505840301514,0.042995635420084,0.23444372415542603
1725629333968614000,15.28961376953125,0.2321861982345581,0.13513994216918945,0.23655720055103302
1725629333978648000,15.29964794921875,0.22077523171901703,0.19979572296142578,0.2172400951385498
1725629333988681700,15.309681640625,0.1846768856048584,0.2120196372270584,0.1928737759590149
1725629333998716000,15.3197158203125,0.12179500609636307,0.16561318933963776,0.17176613211631775
1725629334008750000,15.32975,0.060213666409254074,0.0838642492890358,0.1604176014661789
1725629334018783000,15.339782958984374,0.024208132177591324,-0.011056345887482166,0.1558489352464676
1725629334028817000,15.34981689453125,0.0025395883712917566,-0.11802274733781815,0.12085898965597153
1725629334038850800,15.359850830078125,0.005035276524722576,-0.13572487235069275,0.06221192702651024
1725629334048885000,15.369885009765625,0.057601284235715866,-0.09640277177095413,0.014299795031547546
1725629334058918000,15.37991796875,0.12040914595127106,-0.038930755108594894,-0.02863084338605404
1725629334068951800,15.389951904296876,0.163710817694664,0.037174664437770844,-0.055800944566726685
1725629334078986000,15.399986083984375,0.17578411102294922,0.116643987596035,-0.07601678371429443
1725629334089019600,15.41001953125,0.1808481216430664,0.18637806177139282,-0.103487029671669
1725629334099053800,15.4200537109375,0.15674926340579987,0.22212013602256775,-0.15669989585876465
1725629334109087000,15.4300869140625,0.12102268636226654,0.21963833272457123,-0.19559696316719055
1725629334119121000,15.440120849609375,0.06540128588676453,0.14420977234840393,-0.1469753235578537
1725629334129154800,15.45015478515625,0.012173490598797798,0.020647618919610977,-0.044414862990379333
1725629334139189000,15.46018896484375,0.011486753821372986,-0.07762057334184647,0.03872079402208328
1725629334149222000,15.470221923828126,0.05645902082324028,-0.12233957648277283,0.0593954473733902
1725629334159256000,15.480256103515625,0.11412203311920166,-0.12783247232437134,0.020489487797021866
1725629334169289700,15.490289794921875,0.16009031236171722,-0.10253698378801346,-0.032774798572063446
1725629334179324000,15.500323974609374,0.19176746904850006,-0.022542595863342285,-0.08138471096754074
1725629334189358000,15.510358154296876,0.20997442305088043,0.0796455591917038,-0.11200173944234848
1725629334199391000,15.520390869140625,0.20241223275661469,0.15393663942813873,-0.1125759705901146
1725629334209425000,15.5304248046875,0.19637884199619293,0.20129163563251495,-0.07356918603181839
1725629334219458800,15.540458740234374,0.18770667910575867,0.2081334888935089,-0.012687400914728642
1725629334229493000,15.550492919921876,0.17632804811000824,0.17645013332366943,0.05563599616289139
1725629334239526000,15.56052587890625,0.17171892523765564,0.1323135644197464,0.11138394474983215
1725629334249559800,15.570559814453125,0.17122836410999298,0.09496459364891052,0.14523644745349884
1725629334259594000,15.580593994140624,0.17293107509613037,0.06993309408426285,0.15762321650981903
1725629334269628000,15.5906279296875,0.18202656507492065,0.028376327827572823,0.15168994665145874
1725629334279661800,15.600661865234375,0.197602778673172,-0.026901092380285263,0.09978199750185013
1725629334289694700,15.61069482421875,0.2084314525127411,-0.054293565452098846,-0.0019981644582003355
1725629334299729000,15.62072900390625,0.20657822489738464,-0.02313629537820816,-0.12290512025356293
1725629334309763000,15.63076318359375,0.20801925659179688,0.05543840676546097,-0.22980546951293945
1725629334319796700,15.640796630859375,0.2306101769208908,0.14313210546970367,-0.29714035987854004
1725629334329830000,15.650829833984375,0.2684768736362457,0.21023951470851898,-0.3289068043231964
1725629334339863800,15.66086376953125,0.30596327781677246,0.28129053115844727,-0.33458608388900757
1725629334349898000,15.67089794921875,0.3580661714076996,0.367727667093277,-0.27507054805755615
1725629334359932000,15.680931884765625,0.3661085069179535,0.37399911880493164,-0.09563549607992172
1725629334369965800,15.6909658203125,0.34144657850265503,0.28508228063583374,0.13569466769695282
1725629334379999000,15.7009990234375,0.32545262575149536,0.20897294580936432,0.32850760221481323
1725629334390033000,15.711032958984376,0.31112614274024963,0.23268307745456696,0.4255388081073761
1725629334400066800,15.72106689453125,0.2616005539894104,0.35214096307754517,0.4602334201335907
1725629334410101000,15.73110107421875,0.1897985339164734,0.4841701090335846,0.47956743836402893
1725629334420134000,15.7411337890625,0.12431645393371582,0.5477604866027832,0.4879007339477539
1725629334430167800,15.751167724609376,0.11592669785022736,0.4725012183189392,0.49317166209220886
1725629334440202000,15.761201904296875,0.11555957794189453,0.22387667000293732,0.4671694040298462
1725629334450236000,15.77123583984375,0.10481798648834229,-0.0986800566315651,0.42766833305358887
1725629334460269800,15.781269775390625,0.12367306649684906,-0.3383306860923767,0.3755863904953003
1725629334470302700,15.791302734375,0.18179203569889069,-0.442915678024292,0.2952177822589874
1725629334480337000,15.8013369140625,0.2573358118534088,-0.4179803431034088,0.16979041695594788
1725629334490371000,15.81137109375,0.3202311396598816,-0.27581652998924255,0.01892874203622341
1725629334500404700,15.82140478515625,0.35869359970092773,-0.08519864827394485,-0.13330687582492828
1725629334510438000,15.83143798828125,0.34030020236968994,0.18272067606449127,-0.3236437737941742
1725629334520471800,15.841471923828125,0.32369861006736755,0.5415046811103821,-0.516968846321106
1725629334530506000,15.851506103515625,0.195505753159523,0.6293541193008423,-0.4762887954711914
1725629334540540000,15.861539794921875,0.005949364975094795,0.410765677690506,-0.17286048829555511
1725629334550572800,15.87157275390625,-0.09905614703893661,0.23214587569236755,0.20568335056304932
1725629334560607000,15.88160693359375,-0.05653582885861397,0.164626345038414,0.4366852641105652
1725629334570641000,15.891640869140625,0.06874459236860275,0.09968383610248566,0.4746840298175812
1725629334580674800,15.9016748046875,0.18268445134162903,0.050409894436597824,0.3932380974292755
1725629334590709000,15.911708984375,0.2553243339061737,0.013655606657266617,0.24986572563648224
1725629334600742000,15.921741943359375,0.2921491861343384,-0.00744262058287859,0.09374867379665375
1725629334610776000,15.931776123046875,0.3215603232383728,0.03079451434314251,-0.07186798751354218
1725629334620809700,15.941809814453125,0.3448363244533539,0.1065855324268341,-0.20548012852668762
1725629334630844000,15.951843994140624,0.33484095335006714,0.14787596464157104,-0.23450352251529694
1725629334640876800,15.961876708984375,0.2851589620113373,0.1341765969991684,-0.16322121024131775
1725629334650911000,15.971910888671875,0.21707527339458466,0.12093083560466766,-0.05867963656783104
1725629334660945000,15.98194482421875,0.1671258807182312,0.11361569911241531,0.022546086460351944
1725629334670978800,15.991978759765624,0.11040028929710388,0.07064852118492126,0.053552739322185516
1725629334681013000,16.002012939453124,0.06140238046646118,0.057049620896577835,0.04856649786233902
1725629334691046000,16.0120458984375,0.056855034083127975,0.158293679356575,0.04981685429811478
1725629334701079800,16.022079833984375,0.1265602856874466,0.2093857377767563,-0.046833813190460205
1725629334711114000,16.032114013671876,0.20537787675857544,0.24575066566467285,-0.1886942833662033
1725629334721147600,16.042147705078126,0.24922116100788116,0.27698591351509094,-0.25951725244522095
1725629334731180800,16.052180908203123,0.2372438609600067,0.25154978036880493,-0.27828481793403625
1725629334741215000,16.062215087890625,0.2087554931640625,0.24871833622455597,-0.2080966830253601
1725629334751249000,16.072248779296874,0.18227887153625488,0.20858663320541382,-0.0796513631939888
1725629334761282600,16.082282470703124,0.1840788871049881,0.04928402602672577,0.016321346163749695
1725629334771316700,16.092316650390625,0.22726017236709595,-0.10639026015996933,0.10543470829725266
