time,seconds_elapsed,z,y,x
1725629737430481400,0.0164814453125,0.24165107309818268,0.9194972515106201,0.4337489604949951
1725629737440434400,0.026434326171875,0.18724189698696136,0.8917071223258972,0.1364094465970993
1725629737450388500,0.036388427734375,0.10911646485328674,1.0414047241210938,-0.13937845826148987
1725629737460341500,0.046341552734375,0.08292686939239502,1.3414326906204224,-0.4148125946521759
1725629737470294500,0.05629443359375,0.13768918812274933,1.7708607912063599,-0.678298830986023
1725629737480247600,0.06624755859375,0.2550060451030731,2.243954658508301,-0.9372638463973999
1725629737490200600,0.07620068359375,0.4127408266067505,2.736297130584717,-1.2583949565887451
1725629737500154400,0.086154296875,0.5571821331977844,3.106747627258301,-1.6367948055267334
1725629737510107400,0.096107421875,0.6603588461875916,3.362077474594116,-1.9939031600952148
1725629737520060400,0.106060302734375,0.7671903371810913,3.477252960205078,-2.2524921894073486
1725629737530013400,0.116013427734375,0.8687145113945007,3.5513498783111572,-2.249647617340088
1725629737539967500,0.125967529296875,0.9731771945953369,3.867121934890747,-2.0233373641967773
1725629737549920500,0.13592041015625,0.8365151882171631,4.067955017089844,-1.6400351524353027
1725629737559873500,0.14587353515625,0.8800827264785767,3.801542043685913,-0.9329022765159607
1725629737569826600,0.15582666015625,1.0059897899627686,3.044851779937744,-0.00035723194014281034
1725629737579780600,0.165780517578125,1.0786648988723755,2.425459623336792,0.9472294449806213
1725629737589733600,0.175733642578125,1.2435106039047241,2.2123444080352783,1.6933614015579224
1725629737599686700,0.185686767578125,1.6939078569412231,1.868920087814331,2.214884042739868
1725629737609639400,0.195639404296875,1.5649991035461426,1.5482771396636963,2.3535327911376953
1725629737619593700,0.20559375,-1.7438185214996338,-0.40263545513153076,1.2056643962860107
1725629737629546500,0.21554638671875,-2.752138614654541,-0.9860027432441711,0.8948598504066467
1725629737639499500,0.22549951171875,-1.7796827554702759,-1.7578200101852417,1.1159226894378662
1725629737649452500,0.23545263671875,-1.3962541818618774,-3.5414083003997803,0.7051572799682617
1725629737659405600,0.245405517578125,-1.493179440498352,-4.5503363609313965,0.38085782527923584
1725629737669359400,0.255359375,-1.5784753561019897,-5.302520751953125,0.34745699167251587
1725629737679312400,0.2653125,-1.3662033081054688,-6.690464973449707,0.37030622363090515
1725629737689265400,0.275265380859375,-0.9735510945320129,-6.4891557693481445,0.5871951580047607
1725629737699218400,0.285218505859375,-0.7391054630279541,-4.387275218963623,0.34704482555389404
1725629737709172500,0.29517236328125,0.005605180747807026,-3.6473100185394287,0.3467840850353241
1725629737719124700,0.305124755859375,0.8931686282157898,-2.5524520874023438,0.5053715705871582
1725629737729077800,0.315077880859375,1.235442042350769,-1.094795823097229,0.5528333187103271
1725629737739030800,0.32503076171875,1.2819852828979492,-0.29029524326324463,0.6028316020965576
1725629737748984800,0.33498486328125,1.4211803674697876,-0.8279946446418762,0.6062551140785217
1725629737758937900,0.344937744140625,1.6510764360427856,-1.6930149793624878,0.5607860088348389
1725629737768891000,0.354890869140625,1.871031403541565,-2.3310325145721436,0.61106276512146
1725629737778844000,0.364843994140625,1.2250213623046875,-2.5165226459503174,0.8853738903999329
1725629737788796700,0.374796630859375,-0.5835379958152771,-3.112304210662842,0.9092954397201538
1725629737798751000,0.3847509765625,-1.1328215599060059,-3.3592586517333984,0.9045700430870056
1725629737808703700,0.394703857421875,-0.41059860587120056,-3.8328394889831543,0.8433889746665955
1725629737818656800,0.40465673828125,0.2847987413406372,-3.8566627502441406,0.508878767490387
1725629737828609800,0.41460986328125,1.5840290784835815,-3.3316779136657715,0.21891406178474426
1725629737838563600,0.4245634765625,2.2312371730804443,-3.0118024349212646,0.008049232885241508
1725629737848516600,0.4345166015625,2.391723155975342,-3.515749454498291,0.2809971570968628
1725629737858469600,0.4444697265625,2.4490950107574463,-4.739907741546631,0.6329463720321655
1725629737868422700,0.454422607421875,2.2025773525238037,-5.9093337059021,0.8196185231208801
1725629737878376700,0.464376708984375,2.059471607208252,-6.542466640472412,0.7647555470466614
1725629737888329700,0.474329833984375,2.238333225250244,-6.620711326599121,0.5418753027915955
1725629737898282800,0.48428271484375,2.2372190952301025,-6.412026882171631,0.27068713307380676
1725629737908235800,0.49423583984375,2.164074659347534,-6.20811128616333,0.043646808713674545
1725629737918189800,0.50418994140625,2.25968337059021,-5.858112335205078,-0.12257201969623566
1725629737928142800,0.514142822265625,2.464474678039551,-5.374967098236084,-0.2507302761077881
1725629737938095900,0.524095947265625,2.637671709060669,-5.145501613616943,-0.45110103487968445
1725629737948049000,0.534048828125,2.76837420463562,-5.098015308380127,-0.6421831250190735
1725629737958002700,0.544002685546875,2.901050567626953,-5.231093406677246,-0.825664758682251
1725629737967955700,0.553955810546875,3.069448947906494,-5.551153659820557,-0.9586185216903687
1725629737977908700,0.56390869140625,3.295405387878418,-6.028928279876709,-1.060958981513977
1725629737987861800,0.57386181640625,3.5798439979553223,-6.210658073425293,-1.1354364156723022
1725629737997814500,0.583814453125,3.900057077407837,-5.424211025238037,-1.2154141664505005
1725629738007768800,0.593768798828125,3.9734766483306885,-3.523956775665283,-1.5012885332107544
1725629738017721600,0.6037216796875,4.154104232788086,-1.9224238395690918,-1.9022235870361328
1725629738027674600,0.613674560546875,4.434619426727295,-1.2054036855697632,-2.155545473098755
1725629738037627600,0.623627685546875,4.3176164627075195,-1.0357019901275635,-2.315300464630127
1725629738047581700,0.633581787109375,4.018969535827637,-1.0389233827590942,-2.296565055847168
1725629738057534700,0.64353466796875,3.949666738510132,-1.0589956045150757,-2.4460880756378174
1725629738067487700,0.65348779296875,3.6289353370666504,-0.9226788878440857,-2.3983633518218994
1725629738077440800,0.663440673828125,3.5955185890197754,-1.1598405838012695,-2.065476179122925
1725629738087394800,0.673394775390625,3.336808443069458,-1.299977421760559,-1.6622291803359985
1725629738097347800,0.683347900390625,2.832674980163574,-0.8404709100723267,-1.4783653020858765
1725629738107300900,0.69330078125,2.8371100425720215,-0.3822404444217682,-1.3353749513626099
1725629738117254000,0.70325390625,2.849517345428467,0.14137713611125946,-1.2196065187454224
1725629738127207700,0.713207763671875,2.5421528816223145,0.4787408113479614,-1.2128236293792725
1725629738137160700,0.72316064453125,2.3293991088867188,0.6012925505638123,-1.3322653770446777
1725629738147113700,0.73311376953125,2.549273729324341,0.7609948515892029,-1.5327483415603638
1725629738157066800,0.743066650390625,3.1253020763397217,1.3591994047164917,-1.6753836870193481
1725629738167020800,0.753020751953125,3.270728349685669,1.6926090717315674,-1.7418396472930908
1725629738176973800,0.762973876953125,2.0602903366088867,2.328963041305542,-2.185281276702881
1725629738186926800,0.7729267578125,1.1923604011535645,1.135502815246582,-2.3127601146698
1725629738196880000,0.7828798828125,1.502179741859436,2.4776387214660645,-2.451570749282837
1725629738206832600,0.79283251953125,2.4125912189483643,1.3161998987197876,-1.509914755821228
1725629738216787000,0.802786865234375,2.8807363510131836,2.371483325958252,-1.3101766109466553
1725629738226739700,0.81273974609375,3.3377647399902344,2.381068229675293,-1.023228406906128
1725629738236692700,0.822692626953125,2.943335771560669,1.875886082649231,-0.6821213960647583
1725629738246645800,0.832645751953125,2.8014414310455322,1.3817505836486816,-0.6601817011833191
1725629738256599600,0.842599609375,3.0276939868927,0.9140739440917969,-0.5018733739852905
1725629738266552600,0.852552490234375,3.17118501663208,1.0753788948059082,-0.21462321281433105
1725629738276505600,0.862505615234375,3.202289581298828,1.8982651233673096,-0.06109779328107834
1725629738286458600,0.872458740234375,3.273362636566162,2.5897982120513916,-0.0858505442738533
1725629738296412700,0.88241259765625,2.974315881729126,1.9125583171844482,-0.8448788523674011
1725629738306365700,0.89236572265625,2.6203155517578125,1.973634958267212,-1.589414119720459
1725629738316318700,0.902318603515625,2.832353353500366,2.7278671264648438,-1.665852665901184
1725629738326271700,0.912271728515625,3.2704966068267822,3.3605034351348877,-1.4825630187988281
1725629738336225800,0.922225830078125,3.5226943492889404,3.8543732166290283,-1.124245047569275
1725629738346178800,0.9321787109375,3.6984214782714844,3.9053266048431396,-0.6444998383522034
1725629738356131800,0.9421318359375,3.661959409713745,3.7642691135406494,-0.20113514363765717
1725629738366084900,0.9520849609375,3.6064260005950928,3.4910244941711426,0.3404061496257782
1725629738376038000,0.962037841796875,3.3225624561309814,3.3437488079071045,0.8262906074523926
1725629738385992000,0.971991943359375,3.1157736778259277,3.221877098083496,1.1892831325531006
1725629738395945000,0.981945068359375,3.015617609024048,3.137453079223633,1.308483362197876
1725629738405897700,0.991897705078125,2.9188849925994873,3.1271889209747314,1.3589097261428833
1725629738415850800,1.001850830078125,2.751769542694092,2.8397767543792725,1.2573844194412231
1725629738425804800,1.0118046875,2.549955129623413,2.6575589179992676,1.0224529504776
1725629738435757800,1.0217578125,2.8649067878723145,3.584467887878418,1.796519160270691
1725629738445710600,1.031710693359375,2.8850250244140625,3.200716495513916,2.844698667526245
1725629738455663600,1.04166357421875,2.6152570247650146,2.754816770553589,2.7833032608032227
1725629738465617700,1.05161767578125,1.8784366846084595,2.792555093765259,0.8502388596534729
1725629738475570700,1.06157080078125,1.3350048065185547,3.2006943225860596,0.5632774233818054
1725629738485523700,1.071523681640625,0.2921929955482483,1.7110815048217773,0.5539856553077698
1725629738495476700,1.081476806640625,-0.32467466592788696,0.7315676212310791,0.5765091776847839
1725629738505430800,1.0914306640625,-0.9647508263587952,-0.16410298645496368,0.17765212059020996
1725629738515383800,1.1013837890625,-1.6578359603881836,-0.8735441565513611,-0.04419689625501633
1725629738525336800,1.1113369140625,-2.2082462310791016,-1.3695003986358643,0.015146058984100819
1725629738535289900,1.121289794921875,-2.10807466506958,-1.6533087491989136,-0.020609283819794655
1725629738545243000,1.131242919921875,-1.9463335275650024,-1.592229962348938,-0.20687955617904663
1725629738555196700,1.14119677734375,-1.7795555591583252,-1.4551218748092651,-0.4199542999267578
1725629738565149700,1.151149658203125,-1.5682958364486694,-1.0548896789550781,-0.7914083003997803
1725629738575102700,1.161102783203125,-1.3479121923446655,-0.7907499670982361,-1.629176139831543
1725629738585055700,1.1710556640625,-1.3548684120178223,-1.258181095123291,-2.4124419689178467
1725629738595009800,1.181009765625,-2.140932083129883,-1.985121488571167,-2.6671316623687744
1725629738604962800,1.190962890625,-2.46677303314209,-2.249316453933716,-2.8860023021698
1725629738614915800,1.200915771484375,-2.3582403659820557,-1.4970744848251343,-3.3763506412506104
1725629738624868900,1.210868896484375,-2.0664641857147217,-0.9150345325469971,-2.645362138748169
1725629738634823000,1.220822998046875,-1.4065049886703491,-0.03521540015935898,-1.7568167448043823
1725629738644776000,1.23077587890625,-0.8424152731895447,0.5601715445518494,-1.3967350721359253
1725629738654728700,1.240728759765625,-0.3358505368232727,0.97452712059021,-1.6910035610198975
1725629738664681700,1.250681640625,-0.3026939034461975,0.805223822593689,-1.97049880027771
1725629738674635800,1.2606357421875,-0.49872469902038574,-0.1589946448802948,-1.574413537979126
1725629738684588500,1.270588623046875,-0.6387275457382202,-0.7044486999511719,-1.1649067401885986
1725629738694541600,1.28054150390625,-0.5639998912811279,-0.5580693483352661,-0.8162374496459961
1725629738704494600,1.29049462890625,-0.45353490114212036,-0.2873649001121521,-0.7156194448471069
1725629738714448600,1.30044873046875,-0.38816046714782715,0.047920625656843185,-0.7400206923484802
1725629738724402700,1.310402587890625,-0.3305067718029022,0.08192919194698334,-0.963371217250824
1725629738734355700,1.320355712890625,-0.28060662746429443,-0.083684541285038,-1.1695308685302734
1725629738744308700,1.330308837890625,-0.23943787813186646,-0.18534697592258453,-1.2722383737564087
1725629738754261800,1.34026171875,-0.2618326246738434,-0.14078816771507263,-1.3450268507003784
1725629738764215800,1.3502158203125,-0.3900212049484253,0.015752974897623062,-1.320178508758545
1725629738774168800,1.3601689453125,-0.5857780575752258,0.21741650998592377,-1.322731614112854
1725629738784121900,1.370121826171875,-0.5490698218345642,0.6888263821601868,-1.424412727355957
1725629738794075000,1.380074951171875,-0.6593471765518188,0.10838070511817932,-1.4267253875732422
1725629738804028700,1.390028564453125,-0.893115758895874,0.13826189935207367,-1.1045745611190796
1725629738813981700,1.399981689453125,-0.9653357267379761,-0.07076194882392883,-0.9018889665603638
1725629738823934700,1.409934814453125,-1.0726648569107056,-0.3515419363975525,-0.7395644783973694
1725629738833887500,1.419887451171875,-0.8892136812210083,-0.46560537815093994,-0.5995858907699585
1725629738843841800,1.429841796875,-0.6556989550590515,-0.11994544416666031,-0.8481927514076233
1725629738853794600,1.439794677734375,-0.6774756908416748,0.08420275151729584,-1.213573932647705
1725629738863747600,1.44974755859375,-0.7481682300567627,0.1460360288619995,-1.5289727449417114
1725629738873700600,1.45970068359375,-0.8593815565109253,0.13898059725761414,-1.7203761339187622
1725629738883653600,1.469653564453125,-0.9388753175735474,0.04320347681641579,-1.7709825038909912
1725629738893607700,1.479607666015625,-0.9725180864334106,0.0031725058797746897,-1.7072395086288452
1725629738903560700,1.489560791015625,-1.0639923810958862,0.09860022366046906,-1.6313070058822632
1725629738913513700,1.499513671875,-1.0388977527618408,-0.5718324184417725,-1.6720739603042603
1725629738923466800,1.509466796875,-1.2160732746124268,-0.7640380859375,-1.3815728425979614
1725629738933420500,1.519420654296875,-0.7817633748054504,-0.21070429682731628,-1.4187884330749512
1725629738943373600,1.52937353515625,-0.8471197485923767,0.15585532784461975,-1.4559658765792847
1725629738953326600,1.53932666015625,-0.821082592010498,0.012434786185622215,-1.2269940376281738
1725629738963279600,1.549279541015625,-0.6918255686759949,0.08115286380052567,-1.0418460369110107
1725629738973233700,1.559233642578125,-0.5990241765975952,0.2254454791545868,-0.9060577750205994
1725629738983186700,1.569186767578125,-0.6191901564598083,0.3756035268306732,-0.7414581775665283
1725629738993139700,1.5791396484375,-0.20097188651561737,0.19411605596542358,-0.6613963842391968
1725629739003092700,1.5890927734375,0.6086722612380981,-0.561097264289856,-1.1647899150848389
1725629739013046800,1.599046875,0.7842345833778381,-0.5079492926597595,-0.8406939506530762
1725629739022999800,1.608999755859375,0.9526100158691406,-0.39390984177589417,-0.49002358317375183
1725629739032952800,1.618952880859375,1.065686821937561,-0.5055524706840515,-0.26359182596206665
1725629739042905600,1.628905517578125,1.1624525785446167,-0.6093958020210266,-0.09510906785726547
1725629739052860000,1.63885986328125,1.2819135189056396,-0.6086897253990173,0.10100996494293213
1725629739062812700,1.648812744140625,1.3634836673736572,-0.5376965403556824,0.2767255902290344
1725629739072765700,1.658765625,1.3567615747451782,-0.3758764863014221,0.41204917430877686
1725629739082718700,1.66871875,1.1309822797775269,-0.24935635924339294,0.2995348870754242
1725629739092671700,1.678671630859375,0.7002490758895874,-0.20959420502185822,0.20526352524757385
1725629739102625500,1.68862548828125,-0.03854508697986603,-0.054549481719732285,0.14456236362457275
1725629739112578600,1.69857861328125,-0.14669357240200043,-0.1267048716545105,0.08175086975097656
1725629739122531600,1.708531494140625,-0.2645946443080902,-0.1339539885520935,0.08400417119264603
1725629739132484600,1.718484619140625,-0.4690380394458771,-0.266208291053772,0.08783949166536331
1725629739142438700,1.728438720703125,-0.44655272364616394,-0.4164489209651947,-0.14603210985660553
1725629739152391700,1.7383916015625,-0.391288697719574,-0.32341906428337097,-0.2817875146865845
1725629739162344700,1.7483447265625,-0.36976075172424316,-0.30857035517692566,-0.45882779359817505
1725629739172297700,1.758297607421875,-0.22156894207000732,-0.13978849351406097,-0.479689359664917
1725629739182251800,1.768251708984375,-0.07268305122852325,0.19179050624370575,-0.14409483969211578
1725629739192204800,1.778204833984375,-0.11015743017196655,0.4220355749130249,0.21374841034412384
1725629739202157800,1.78815771484375,0.04346967488527298,0.4368667006492615,0.5173392295837402
1725629739212110800,1.79811083984375,0.3237306773662567,0.3728833496570587,0.6757925748825073
1725629739222064600,1.808064697265625,0.8753060102462769,0.09683207422494888,0.6365777850151062
1725629739232017700,1.818017578125,1.406227946281433,0.19933509826660156,0.5559147596359253
1725629739241970700,1.827970703125,1.9094431400299072,0.47870391607284546,0.4020591676235199
1725629739251923500,1.83792333984375,2.2859504222869873,0.662932276725769,0.06447404623031616
1725629739261876500,1.84787646484375,2.4612274169921875,0.6121753454208374,-0.2783362865447998
1725629739271830800,1.857830810546875,2.6696999073028564,0.5135862827301025,-0.34900596737861633
1725629739281783600,1.867783447265625,3.2334930896759033,0.4390304982662201,0.11196909844875336
1725629739291736600,1.877736572265625,3.398803472518921,0.2838180363178253,0.16407768428325653
1725629739301689600,1.887689697265625,3.748636484146118,0.3302944600582123,0.13804900646209717
1725629739311643600,1.8976435546875,3.5974059104919434,0.45030659437179565,-0.016285402700304985
1725629739321596700,1.9075966796875,3.402052402496338,0.2645212709903717,-0.0498201921582222
1725629739331549700,1.9175498046875,3.0626220703125,0.027232341468334198,-0.04178401455283165
1725629739341502700,1.927502685546875,2.6993393898010254,-0.3658832609653473,-0.052714426070451736
1725629739351456800,1.937456787109375,2.3767898082733154,-0.4991869330406189,0.03306546434760094
1725629739361409800,1.947409912109375,1.7827168703079224,-0.405521422624588,0.03140898048877716
1725629739371362600,1.957362548828125,1.1369577646255493,-0.4912712872028351,0.047185804694890976
1725629739381315600,1.967315673828125,0.5145450234413147,-0.5652432441711426,0.05168281868100166
1725629739391269600,1.97726953125,-0.07852081209421158,-0.4474770128726959,0.07636688649654388
1725629739401222700,1.98722265625,-0.37526991963386536,-0.3403111398220062,0.12858587503433228
1725629739411175700,1.99717578125,-0.4662705659866333,-0.32157808542251587,0.19101738929748535
1725629739421128700,2.007128662109375,-0.48522666096687317,-0.36892032623291016,0.19322754442691803
1725629739431081700,2.017081787109375,-0.46678459644317627,-0.2722350060939789,0.14485499262809753
1725629739441035800,2.027035888671875,-0.47776347398757935,-0.1406032294034958,-0.01769557222723961
1725629739450988800,2.03698876953125,-0.4409065842628479,-0.19750188291072845,-0.12713134288787842
1725629739460941800,2.04694189453125,-0.4712604880332947,-0.18204490840435028,-0.20924299955368042
1725629739470894600,2.05689453125,-0.7293888926506042,-0.3742609918117523,-0.23678550124168396
1725629739480849000,2.066848876953125,-0.8243340849876404,-0.30799540877342224,-0.04222320765256882
1725629739490801700,2.0768017578125,-0.9035998582839966,-0.26740166544914246,0.12550023198127747
1725629739500754700,2.086754638671875,-0.8294113278388977,-0.2441682666540146,0.19804900884628296
1725629739510707700,2.096707763671875,-0.6958877444267273,-0.26371535658836365,0.16928796470165253
1725629739520661500,2.10666162109375,-0.6128871440887451,-0.22790677845478058,0.08552569150924683
1725629739530614500,2.116614501953125,-0.5646980404853821,-0.31685543060302734,0.05682208016514778
1725629739540567600,2.126567626953125,-0.533012330532074,-0.3713815212249756,0.05241401493549347
1725629739550520600,2.1365205078125,-0.5011686682701111,-0.3732627034187317,0.06510619819164276
1725629739560474600,2.146474609375,-0.47455307841300964,-0.3844229578971863,0.08583571016788483
1725629739570427600,2.156427734375,-0.4509778320789337,-0.36109456419944763,0.10594366490840912
1725629739580380700,2.166380615234375,-0.43821728229522705,-0.37258318066596985,0.1109703779220581
1725629739590333700,2.176333740234375,-0.422004759311676,-0.37319597601890564,0.14142176508903503
1725629739600286700,2.18628662109375,-0.4098096191883087,-0.3792290985584259,0.1812024712562561
1725629739610240800,2.19624072265625,-0.3825347423553467,-0.39820748567581177,0.19528630375862122
1725629739620193800,2.20619384765625,-0.3404410779476166,-0.4160599708557129,0.17083023488521576
1725629739630146800,2.216146728515625,-0.31870678067207336,-0.45085352659225464,0.14114844799041748
1725629739640099800,2.226099853515625,-0.3118102550506592,-0.4484119415283203,0.10800353437662125
1725629739650053600,2.2360537109375,-0.33208006620407104,-0.41735905408859253,0.09276312589645386
1725629739660006700,2.246006591796875,-0.35690420866012573,-0.3911665976047516,0.09712644666433334
1725629739669959700,2.255959716796875,-0.3468888998031616,-0.3538272976875305,0.14100497961044312
1725629739679912400,2.265912353515625,-0.32874637842178345,-0.2682487368583679,0.11893351376056671
1725629739689866800,2.27586669921875,-0.3258509635925293,-0.23699931800365448,0.14542323350906372
1725629739699819500,2.285819580078125,-0.32300591468811035,-0.1809067577123642,0.19350340962409973
1725629739709772500,2.2957724609375,-0.3522745370864868,-0.20805849134922028,0.22229480743408203
1725629739719725300,2.305725341796875,-0.3730277419090271,-0.23330526053905487,0.2544229328632355
1725629739729679400,2.315679443359375,-0.30486181378364563,-0.033826906234025955,0.21840833127498627
1725629739739632400,2.32563232421875,-0.2997245788574219,-0.028238264843821526,0.22441482543945312
1725629739749585400,2.33558544921875,-0.3190183639526367,-0.03743693605065346,0.21552614867687225
1725629739759538400,2.345538330078125,-0.3826002776622772,-0.19167497754096985,0.23821762204170227
1725629739769492500,2.355492431640625,-0.3879932165145874,-0.14592726528644562,0.31785285472869873
1725629739779445500,2.365445556640625,-0.33976468443870544,-0.011383304372429848,0.2784572243690491
1725629739789398500,2.3753984375,-0.35651320219039917,-0.07455932348966599,0.23618900775909424
1725629739799351600,2.3853515625,-0.3801144063472748,-0.10041408985853195,0.22149688005447388
1725629739809304600,2.3953046875,-0.40058279037475586,-0.09412921220064163,0.19445592164993286
1725629739819258400,2.40525830078125,-0.46854692697525024,-0.2075263410806656,0.19259409606456757
1725629739829211400,2.41521142578125,-0.49433791637420654,-0.23247455060482025,0.2659943997859955
1725629739839164400,2.425164306640625,-0.4540554881095886,-0.08376416563987732,0.22175955772399902
1725629739849117200,2.4351171875,-0.4739944338798523,-0.13424740731716156,0.14664891362190247
1725629739859071500,2.445071533203125,-0.457770973443985,-0.1375124454498291,0.15456916391849518
1725629739869024300,2.455024169921875,-0.45763349533081055,-0.07840531319379807,0.14226621389389038
1725629739878977300,2.464977294921875,-0.43426692485809326,-0.020386219024658203,0.19085586071014404
1725629739888930300,2.474930419921875,-0.4267926514148712,-0.036415960639715195,0.17232343554496765
1725629739898884400,2.48488427734375,-0.3937889039516449,0.014206470921635628,0.20794321596622467
1725629739908837400,2.49483740234375,-0.38012468814849854,0.02926003560423851,0.21626389026641846
1725629739918790400,2.504790283203125,-0.3797433078289032,0.02022845670580864,0.22804731130599976
1725629739928743400,2.514743408203125,-0.3924543261528015,0.035525836050510406,0.24486804008483887
1725629739938696400,2.524696533203125,-0.35345473885536194,0.08464092016220093,0.30683714151382446
1725629739948650200,2.534650146484375,-0.36169567704200745,0.040610913187265396,0.2724074125289917
1725629739958603300,2.544603271484375,-0.386868417263031,0.04392627999186516,0.26615992188453674
1725629739968556300,2.554556396484375,-0.36114561557769775,0.07126285135746002,0.2845720648765564
1725629739978509300,2.56450927734375,-0.3446744978427887,0.04273799806833267,0.35413143038749695
1725629739988463400,2.57446337890625,-0.31868547201156616,0.007449673488736153,0.3728296756744385
1725629739998416400,2.58441650390625,-0.26044586300849915,-0.03953354433178902,0.3975834846496582
1725629740008369400,2.594369384765625,-0.20200534164905548,-0.04775623604655266,0.4187214970588684
1725629740018322400,2.604322509765625,-0.14526377618312836,-0.03343668207526207,0.43916845321655273
1725629740028276500,2.6142763671875,-0.1057034283876419,-0.06557385623455048,0.3954037129878998
1725629740038229500,2.6242294921875,-0.08748713880777359,-0.08821365237236023,0.3251841366291046
1725629740048182500,2.6341826171875,-0.06787887215614319,-0.091944620013237,0.2795169949531555
1725629740058135300,2.64413525390625,-0.059548504650592804,-0.1303711086511612,0.2388627976179123
1725629740068089600,2.654089599609375,-0.043336592614650726,-0.1715659648180008,0.25335949659347534
1725629740078042600,2.664042724609375,-0.028169091790914536,-0.2225782871246338,0.2516215145587921
1725629740087995400,2.673995361328125,-0.00516257481649518,-0.31220540404319763,0.2563997507095337
1725629740097948400,2.683948486328125,0.02041442319750786,-0.38566282391548157,0.2671477496623993
1725629740107902200,2.693902099609375,0.034543514251708984,-0.43679559230804443,0.27864405512809753
1725629740117855200,2.703855224609375,0.05781234800815582,-0.4649880826473236,0.2835964560508728
1725629740127808300,2.713808349609375,0.07697534561157227,-0.4638490676879883,0.28497570753097534
1725629740137761300,2.72376123046875,0.09530748426914215,-0.4688904285430908,0.27569591999053955
1725629740147714300,2.73371435546875,0.1117696762084961,-0.49595364928245544,0.2801697254180908
1725629740157668400,2.74366845703125,0.14078748226165771,-0.4539353549480438,0.2997050881385803
1725629740167621400,2.753621337890625,0.16834630072116852,-0.4695451557636261,0.26829779148101807
1725629740177574400,2.763574462890625,0.22797127068042755,-0.44423288106918335,0.2766406536102295
1725629740187527400,2.77352734375,0.258388876914978,-0.4520348906517029,0.27240750193595886
1725629740197481500,2.7834814453125,0.30288922786712646,-0.40140315890312195,0.29122674465179443
1725629740207434500,2.7934345703125,0.3443319797515869,-0.38712209463119507,0.27178603410720825
1725629740217387500,2.803387451171875,0.39275676012039185,-0.4075711667537689,0.23491723835468292
1725629740227340500,2.813340576171875,0.42161568999290466,-0.4130113124847412,0.18112337589263916
1725629740237294300,2.82329443359375,0.4507083296775818,-0.4092770218849182,0.11469188332557678
1725629740247247400,2.833247314453125,0.48048436641693115,-0.4408250153064728,0.03580091521143913
1725629740257200400,2.843200439453125,0.513526439666748,-0.4339977204799652,-0.018413852900266647
1725629740267153400,2.8531533203125,0.508817195892334,-0.4799787104129791,-0.06491611897945404
1725629740277107500,2.863107421875,0.5130369663238525,-0.42783668637275696,-0.09681040048599243
1725629740287060500,2.873060546875,0.5240488052368164,-0.39880144596099854,-0.13440550863742828
1725629740297013200,2.88301318359375,0.5358282327651978,-0.39301225543022156,-0.159531369805336
1725629740306966300,2.89296630859375,0.53361976146698,-0.3795037865638733,-0.187882199883461
1725629740316919300,2.902919189453125,0.5495071411132812,-0.38580480217933655,-0.21718202531337738
1725629740326873300,2.912873291015625,0.5905179381370544,-0.3654310405254364,-0.24018514156341553
1725629740336826400,2.922826416015625,0.5950828790664673,-0.31866592168807983,-0.21157000958919525
1725629740346779400,2.932779296875,0.5953540205955505,-0.28098711371421814,-0.22191700339317322
1725629740356732400,2.942732421875,0.6082980632781982,-0.2181202471256256,-0.2477044016122818
1725629740366686500,2.9526865234375,0.6175693869590759,-0.17675653100013733,-0.2684560716152191
1725629740376639500,2.962639404296875,0.6228943467140198,-0.12702706456184387,-0.25615864992141724
1725629740386592500,2.972592529296875,0.6145374774932861,-0.059108637273311615,-0.27319759130477905
1725629740396545500,2.982545654296875,0.601992130279541,-0.011822350323200226,-0.27771005034446716
1725629740406499300,2.992499267578125,0.604974627494812,0.004716146737337112,-0.27205002307891846
1725629740416452400,3.002452392578125,0.6376500129699707,0.029630018398165703,-0.28206536173820496
1725629740426405400,3.0124052734375,0.6785541772842407,0.04512714222073555,-0.29582178592681885
1725629740436358400,3.0223583984375,0.7231083512306213,0.04706752300262451,-0.32973262667655945
1725629740446312400,3.0323125,0.7718851566314697,0.04932598024606705,-0.3090515732765198
1725629740456265500,3.042265380859375,0.7883669137954712,0.045333635061979294,-0.26833289861679077
1725629740466218500,3.052218505859375,0.7932494878768921,0.04712342843413353,-0.16427390277385712
1725629740476171500,3.062171630859375,0.7839611768722534,0.03723617643117905,-0.06634361296892166
1725629740486125600,3.07212548828125,0.7962098717689514,-0.014788350090384483,-0.05049699917435646
1725629740496078600,3.08207861328125,0.7662067413330078,0.004237272776663303,-0.14197365939617157
1725629740506031400,3.09203125,0.732833743095398,0.09405697137117386,-0.23351562023162842
1725629740515984400,3.101984375,0.6606607437133789,0.15434667468070984,-0.3078441917896271
1725629740525937400,3.1119375,0.6400302052497864,0.13192416727542877,-0.2479182332754135
1725629740535891200,3.12189111328125,0.637807309627533,0.0832277238368988,-0.23877772688865662
1725629740545844200,3.13184423828125,0.686011016368866,-0.00837213359773159,-0.24114592373371124
1725629740555797200,3.14179736328125,0.7266184091567993,-0.007367855403572321,-0.21199895441532135
1725629740565750300,3.151750244140625,0.7251191735267639,0.03896206244826317,-0.1953110247850418
1725629740575704300,3.161704345703125,0.7346336245536804,0.07336477190256119,-0.16173814237117767
1725629740585657300,3.1716572265625,0.718761682510376,0.06414041668176651,-0.157353475689888
1725629740595610400,3.1816103515625,0.6899164319038391,0.0589994415640831,-0.1773868352174759
1725629740605563400,3.1915634765625,0.6630671620368958,0.04611699655652046,-0.16241779923439026
1725629740615517400,3.201517333984375,0.637566864490509,0.08611075580120087,-0.12757407128810883
1725629740625470500,3.211470458984375,0.6140976548194885,-0.038517702370882034,-0.10295949876308441
1725629740635423500,3.221423583984375,0.5995602607727051,0.002070471877232194,-0.02327665500342846
1725629740645376500,3.23137646484375,0.5800281763076782,0.14853955805301666,-0.007131274789571762
1725629740655330300,3.241330322265625,0.5759972333908081,-0.0015114475972950459,0.004574916325509548
1725629740665283300,3.251283447265625,0.5572846531867981,0.06884407252073288,-0.03401460126042366
1725629740675236400,3.261236328125,0.4914339780807495,0.36120375990867615,-0.059922099113464355
1725629740685189400,3.271189453125,0.48266884684562683,0.21577388048171997,-0.13621070981025696
1725629740695142100,3.28114208984375,0.45291227102279663,0.23629672825336456,-0.1980290710926056
1725629740705096400,3.291096435546875,0.3682469129562378,0.3929002583026886,-0.20508186519145966
1725629740715049200,3.30104931640625,0.3550397753715515,0.3153684437274933,-0.22702258825302124
1725629740725002200,3.311002197265625,0.2865579426288605,0.2691069543361664,-0.2110077142715454
1725629740734955000,3.320955078125,0.2128477692604065,0.28218385577201843,-0.2094162106513977
1725629740744909300,3.330909423828125,0.06838040798902512,0.450234055519104,-0.21745085716247559
1725629740754862000,3.340862060546875,0.07393202930688858,0.16639676690101624,-0.18707004189491272
1725629740764815000,3.350815185546875,0.03864133358001709,0.04057292640209198,-0.15994782745838165
1725629740774768000,3.36076806640625,0.055951885879039764,0.036393627524375916,-0.12806099653244019
1725629740784722200,3.37072216796875,-0.012239539995789528,0.2283761203289032,-0.11025716364383698
1725629740794675200,3.38067529296875,0.08657252043485641,0.04003842547535896,-0.10520754009485245
1725629740804628200,3.390628173828125,0.08779843896627426,0.06846461445093155,-0.09275507181882858
1725629740814581200,3.400581298828125,0.0819900780916214,0.07656009495258331,-0.09763424843549728
1725629740824535000,3.41053515625,0.08490215986967087,0.1234828308224678,-0.0175620149821043
1725629740834488000,3.420488037109375,0.07869060337543488,0.13278178870677948,0.06958593428134918
1725629740844441000,3.430441162109375,0.09846136718988419,-0.04354831948876381,0.1319749653339386
1725629740854394000,3.44039404296875,0.10553792119026184,-0.05831608176231384,0.16933883726596832
1725629740864348200,3.45034814453125,0.1175636351108551,-0.03652943670749664,0.17072416841983795
1725629740874301200,3.46030126953125,0.10684441030025482,0.029247978702187538,0.1983637809753418
1725629740884254200,3.470254150390625,0.10840047150850296,0.013363398611545563,0.1866520792245865
1725629740894207200,3.480207275390625,0.07924099266529083,0.0342433825135231,0.12104404717683792
1725629740904160300,3.49016015625,0.08904761075973511,0.09667093306779861,0.1025911346077919
1725629740914114300,3.5001142578125,0.09753776341676712,0.10771293193101883,0.09375103563070297
1725629740924067300,3.5100673828125,0.09587362408638,0.08749577403068542,0.10300004482269287
1725629740934020400,3.520020263671875,0.09090336412191391,0.07928737998008728,0.09197082370519638
1725629740943973000,3.52997314453125,0.07934872806072235,0.10218407958745956,0.11479368805885315
1725629740953927200,3.53992724609375,0.0644288957118988,0.09961759299039841,0.13200275599956512
1725629740963880000,3.5498798828125,0.05037589371204376,0.12095912545919418,0.16593573987483978
1725629740973833000,3.5598330078125,0.024597028270363808,0.16182133555412292,0.1962110847234726
1725629740983786000,3.569785888671875,-0.005542929284274578,0.2148769199848175,0.21255606412887573
1725629740993740000,3.579739990234375,-0.05024489015340805,0.27635228633880615,0.2085788995027542
1725629741003693000,3.589693115234375,-0.10171859711408615,0.34514349699020386,0.19794784486293793
1725629741013646000,3.59964599609375,-0.14927412569522858,0.4149462878704071,0.18658654391765594
1725629741023599000,3.60959912109375,-0.1873590648174286,0.4622494578361511,0.18777801096439362
1725629741033553200,3.61955322265625,-0.22003711760044098,0.4980548620223999,0.21654227375984192
1725629741043506200,3.629506103515625,-0.2371671199798584,0.5080344676971436,0.2539558708667755
1725629741053459200,3.639459228515625,-0.22689557075500488,0.5027989745140076,0.27543905377388
1725629741063412200,3.649412109375,-0.21144044399261475,0.4954424798488617,0.29237061738967896
1725629741073366300,3.6593662109375,-0.19367769360542297,0.47602084279060364,0.2936449646949768
1725629741083319300,3.6693193359375,-0.17204242944717407,0.4731913208961487,0.24825173616409302
1725629741093272300,3.679272216796875,-0.14225870370864868,0.47107410430908203,0.13635876774787903
1725629741103225300,3.689225341796875,-0.11866267770528793,0.4586264491081238,0.03064199909567833
1725629741113179100,3.69917919921875,-0.10428853332996368,0.4429748058319092,-0.021746374666690826
1725629741123132200,3.709132080078125,-0.11111997067928314,0.4500252902507782,-0.019792823120951653
1725629741133085200,3.719085205078125,-0.12169511616230011,0.4465932548046112,-0.0004372344119474292
1725629741143038200,3.7290380859375,-0.1406663954257965,0.42579424381256104,0.0048489379696547985
1725629741152991200,3.7389912109375,-0.151534765958786,0.39390021562576294,0.02154216356575489
1725629741162945300,3.7489453125,-0.1547948271036148,0.33421626687049866,0.024720629677176476
1725629741172898300,3.758898193359375,-0.15857331454753876,0.2911367118358612,-0.022709470242261887
1725629741182851000,3.76885107421875,-0.15613752603530884,0.28155380487442017,-0.08959145098924637
1725629741192804000,3.77880419921875,-0.16454192996025085,0.27395153045654297,-0.11685130000114441
1725629741202758100,3.788758056640625,-0.18689973652362823,0.27198776602745056,-0.10496104508638382
1725629741212711200,3.798711181640625,-0.2147047370672226,0.26171061396598816,-0.08769922703504562
1725629741222664200,3.808664306640625,-0.24727295339107513,0.24742260575294495,-0.1083177775144577
1725629741232617200,3.8186171875,-0.2678397297859192,0.23085801303386688,-0.1167413592338562
1725629741242571000,3.828571044921875,-0.2856331467628479,0.2287282794713974,-0.11871065944433212
1725629741252524000,3.83852392578125,-0.3023436963558197,0.23055069148540497,-0.12813851237297058
1725629741262477000,3.84847705078125,-0.31567391753196716,0.24023929238319397,-0.1331191062927246
1725629741272430000,3.85843017578125,-0.3299420475959778,0.23853699862957,-0.13993600010871887
1725629741282384100,3.868384033203125,-0.3456067144870758,0.21252010762691498,-0.15115749835968018
1725629741292337200,3.878337158203125,-0.3669966757297516,0.1723625659942627,-0.15515649318695068
1725629741302290200,3.888290283203125,-0.3946364223957062,0.13149695098400116,-0.15394990146160126
1725629741312243200,3.8982431640625,-0.4117296636104584,0.13370764255523682,-0.14131373167037964
1725629741322197200,3.908197265625,-0.4256887435913086,0.06986323744058609,-0.12199608236551285
1725629741332150300,3.918150390625,-0.41416630148887634,0.13143764436244965,-0.08459118753671646
1725629741342103300,3.928103271484375,-0.3975338339805603,0.11994818598031998,-0.02039649896323681
1725629741352056300,3.938056396484375,-0.38864633440971375,0.0002638603327795863,0.013407004065811634
1725629741362010400,3.94801025390625,-0.37576398253440857,0.1344403475522995,0.0065077836625278
1725629741371963100,3.957963134765625,-0.363963782787323,0.1537778228521347,-0.032190341502428055
1725629741381916200,3.967916259765625,-0.3760506212711334,0.0326748825609684,-0.04644642025232315
1725629741391869200,3.977869140625,-0.38097482919692993,0.21579863131046295,-0.017829958349466324
1725629741401823200,3.9878232421875,-0.3966425359249115,0.23864395916461945,-0.018202809616923332
1725629741411776000,3.99777587890625,-0.41242334246635437,0.22316832840442657,0.009462907910346985
1725629741421729000,4.00772900390625,-0.446674108505249,0.11071662604808807,0.063713438808918
1725629741431682000,4.01768212890625,-0.44746479392051697,0.2530870735645294,0.09627271443605423
1725629741441636000,4.027635986328125,-0.47210854291915894,0.22900645434856415,0.11242976039648056
1725629741451589000,4.037589111328125,-0.4992309808731079,0.19563812017440796,0.14570409059524536
1725629741461542100,4.047542236328125,-0.4988348186016083,0.07306932657957077,0.17576195299625397
1725629741471495200,4.0574951171875,-0.5577588677406311,0.146585613489151,0.22275209426879883
1725629741481449200,4.06744921875,-0.5538997650146484,0.230673149228096,0.21664170920848846
1725629741491402200,4.07740234375,-0.567223072052002,0.2136121392250061,0.23252852261066437
1725629741501355300,4.087355224609375,-0.5848228931427002,0.2390369325876236,0.24880224466323853
1725629741511308300,4.097308349609375,-0.5790217518806458,0.13995109498500824,0.24509352445602417
1725629741521262000,4.107261962890625,-0.6390319466590881,0.31894978880882263,0.2624886929988861
1725629741531215000,4.117215087890625,-0.6314147710800171,0.4366779923439026,0.20941294729709625
1725629741541168000,4.127168212890625,-0.6474505662918091,0.42497649788856506,0.1817007064819336
1725629741551121200,4.13712109375,-0.6587916016578674,0.4299510419368744,0.19984376430511475
1725629741561075200,4.1470751953125,-0.6891347169876099,0.470719575881958,0.23091083765029907
1725629741571028200,4.1570283203125,-0.716474711894989,0.502028226852417,0.22209656238555908
1725629741580981200,4.166981201171875,-0.7077277898788452,0.5047392845153809,0.22982476651668549
1725629741590934300,4.176934326171875,-0.7040590047836304,0.5294656157493591,0.2260713130235672
1725629741600888300,4.186888427734375,-0.701657772064209,0.47393545508384705,0.2618539333343506
1725629741610841300,4.19684130859375,-0.7178521752357483,0.4452345669269562,0.26121291518211365
1725629741620794400,4.20679443359375,-0.7377219796180725,0.41110509634017944,0.2579883337020874
1725629741630747100,4.2167470703125,-0.7431668043136597,0.354880154132843,0.2718620300292969
1725629741640701200,4.226701171875,-0.7419925332069397,0.3139052391052246,0.2772735357284546
1725629741650654000,4.236654052734375,-0.7054275870323181,0.24666254222393036,0.2682291567325592
1725629741660607000,4.24660693359375,-0.6626651883125305,0.18173393607139587,0.2571343183517456
1725629741670560000,4.25656005859375,-0.5647380948066711,0.1790611892938614,0.2561763823032379
1725629741680514000,4.26651416015625,-0.512251615524292,0.14015139639377594,0.25008493661880493
1725629741690467000,4.276467041015625,-0.4356655180454254,0.13251185417175293,0.24809156358242035
1725629741700420000,4.286420166015625,-0.39283305406570435,0.14290131628513336,0.235906720161438
1725629741710373000,4.296373046875,-0.3231348991394043,0.16065873205661774,0.20559169352054596
1725629741720327000,4.306326904296875,-0.26361149549484253,0.17154893279075623,0.17452295124530792
1725629741730280000,4.316280029296875,-0.20815011858940125,0.18129396438598633,0.1439027339220047
1725629741740233000,4.32623291015625,-0.19428110122680664,0.19793663918972015,0.14243939518928528
1725629741750186000,4.33618603515625,-0.18810896575450897,0.1533675640821457,0.13271886110305786
1725629741760140000,4.34614013671875,-0.1926620602607727,0.08810123801231384,0.1577731966972351
1725629741770093000,4.356093017578125,-0.2217182070016861,0.028385713696479797,0.21216507256031036
1725629741780046000,4.366046142578125,-0.24302496016025543,-0.0663486048579216,0.2539663314819336
1725629741789999900,4.375999755859375,-0.2606963813304901,-0.13545575737953186,0.27725648880004883
1725629741799953000,4.385952880859375,-0.24920782446861267,-0.20122410356998444,0.2740456461906433
1725629741809906000,4.395906005859375,-0.24970130622386932,-0.2186230719089508,0.2859204113483429
1725629741819858700,4.405858642578125,-0.23349545896053314,-0.26831790804862976,0.24554134905338287
1725629741829813000,4.41581298828125,-0.1863817423582077,-0.24089612066745758,0.21035513281822205
1725629741839765800,4.425765869140625,-0.11654040217399597,-0.1455572247505188,0.20521783828735352
1725629741849718800,4.43571875,-0.07040726393461227,-0.13729876279830933,0.21337324380874634
1725629741859671800,4.445671875,-0.06336931139230728,-0.14131136238574982,0.20178306102752686
1725629741869625900,4.4556259765625,-0.02051159366965294,-0.14701718091964722,0.19285960495471954
1725629741879579000,4.465578857421875,0.043149709701538086,-0.16792257130146027,0.16983194649219513
1725629741889532000,4.475531982421875,0.10309319943189621,-0.18288421630859375,0.13911904394626617
1725629741899485000,4.48548486328125,0.15948468446731567,-0.2123969942331314,0.09160114824771881
1725629741909439000,4.49543896484375,0.22052247822284698,-0.22865107655525208,0.06120941415429115
1725629741919391700,4.505391845703125,0.275126576423645,-0.24942024052143097,0.009264929220080376
1725629741929344800,4.5153447265625,0.31880107522010803,-0.28787311911582947,-0.02735406719148159
1725629741939297800,4.5252978515625,0.36799418926239014,-0.31796613335609436,-0.06267056614160538
1725629741949251800,4.535251953125,0.4038233160972595,-0.35649219155311584,-0.1155066192150116
1725629741959204900,4.545204833984375,0.4273546636104584,-0.39764484763145447,-0.17759118974208832
1725629741969158000,4.555157958984375,0.4379143714904785,-0.4062817394733429,-0.21738681197166443
1725629741979111000,4.56511083984375,0.4304244816303253,-0.40104109048843384,-0.24802125990390778
1725629741989065000,4.57506494140625,0.41970181465148926,-0.4088902175426483,-0.28757160902023315
1725629741999018000,4.58501806640625,0.4164440333843231,-0.41657450795173645,-0.3007505536079407
1725629742008971000,4.594970947265625,0.4125414192676544,-0.41806456446647644,-0.3047950863838196
1725629742018924000,4.604924072265625,0.42728933691978455,-0.4125007092952728,-0.2999824285507202
1725629742028878000,4.614878173828125,0.4459458291530609,-0.42424869537353516,-0.2981696128845215
1725629742038831000,4.6248310546875,0.4890144467353821,-0.44128647446632385,-0.2832581400871277
1725629742048784000,4.634783935546875,0.5235034227371216,-0.4558907449245453,-0.2882595658302307
1725629742058737000,4.64473681640625,0.5368776917457581,-0.45897334814071655,-0.3015885651111603
1725629742068690700,4.654690673828125,0.5725874900817871,-0.4654828906059265,-0.28223538398742676
1725629742078643700,4.664643798828125,0.6167604923248291,-0.48200511932373047,-0.2641116678714752
1725629742088596700,4.6745966796875,0.6537725329399109,-0.4880688786506653,-0.27874892950057983
1725629742098550800,4.68455078125,0.6956353187561035,-0.4661497175693512,-0.28450220823287964
1725629742108503800,4.69450390625,0.7182205319404602,-0.43585947155952454,-0.28001320362091064
1725629742118456800,4.704456787109375,0.7409117817878723,-0.41824400424957275,-0.26476582884788513
1725629742128409900,4.714409912109375,0.7446292638778687,-0.406306654214859,-0.27859029173851013
1725629742138364000,4.724364013671875,0.747309148311615,-0.36661842465400696,-0.27178674936294556
1725629742148317000,4.73431689453125,0.7391646504402161,-0.3143123388290405,-0.29678958654403687
1725629742158270000,4.74427001953125,0.7517897486686707,-0.2860639691352844,-0.2897282838821411
1725629742168223000,4.754222900390625,0.7556726336479187,-0.23200634121894836,-0.30261266231536865
1725629742178176800,4.7641767578125,0.7586411833763123,-0.1848514974117279,-0.34293699264526367
1725629742188129800,4.7741298828125,0.7744057774543762,-0.12281528115272522,-0.2993602156639099
1725629742198082800,4.784082763671875,0.7793204188346863,-0.050195854157209396,-0.2946873605251312
1725629742208035800,4.794035888671875,0.7549663186073303,0.0383065789937973,-0.3745395839214325
1725629742217990000,4.803989990234375,0.7413837313652039,0.11851941794157028,-0.3637840151786804
1725629742227943000,4.81394287109375,0.7249736189842224,0.19953306019306183,-0.3761320412158966
1725629742237896000,4.82389599609375,0.7010404467582703,0.25834619998931885,-0.3822351098060608
1725629742247849000,4.833848876953125,0.6639431715011597,0.28114739060401917,-0.3839496672153473
1725629742257803000,4.843802978515625,0.614595890045166,0.32556116580963135,-0.3911253809928894
1725629742267756000,4.853756103515625,0.5634301900863647,0.35866984724998474,-0.4224846363067627
1725629742277709000,4.863708984375,0.521634042263031,0.39417874813079834,-0.4387715756893158
1725629742287661800,4.873661865234375,0.4697529971599579,0.416176974773407,-0.44379881024360657
1725629742297616100,4.8836162109375,0.40321043133735657,0.42443349957466125,-0.41673049330711365
1725629742307569000,4.89356884765625,0.3271638751029968,0.4330189824104309,-0.37955141067504883
1725629742317522000,4.90352197265625,0.26793697476387024,0.39059266448020935,-0.33686715364456177
1725629742327475700,4.913475830078125,0.18537099659442902,0.3856612741947174,-0.2837240397930145
1725629742337428700,4.9234287109375,0.1588064730167389,0.2819022238254547,-0.24591472744941711
1725629742347381800,4.9333818359375,0.15335099399089813,0.255018413066864,-0.2047204077243805
1725629742357334800,4.943334716796875,0.13477948307991028,0.3239878714084625,-0.1847376972436905
1725629742367288800,4.953288818359375,0.13784611225128174,0.19717559218406677,-0.15899717807769775
1725629742377241900,4.963241943359375,0.050989702343940735,0.3303265869617462,-0.15900900959968567
1725629742387195000,4.97319482421875,0.09613773971796036,0.23565256595611572,-0.1391756534576416
1725629742397148000,4.98314794921875,0.0562361516058445,0.15124469995498657,-0.06068664789199829
1725629742407102000,4.99310205078125,-0.01908949762582779,0.3058084547519684,-0.02006198838353157
1725629742417055000,5.003054931640625,0.057492490857839584,0.1901935338973999,-0.03667321428656578
1725629742427008000,5.013008056640625,0.038125984370708466,0.10148496180772781,0.0029069501906633377
1725629742436961000,5.0229609375,0.01426011323928833,0.12216393649578094,0.04883689805865288
1725629742446914800,5.032914794921875,-0.012274559587240219,0.2530803978443146,0.08083424717187881
1725629742456867800,5.042867919921875,0.029448265209794044,0.09339060634374619,0.06301192194223404
1725629742466820900,5.05282080078125,0.024227935820817947,0.06785115599632263,0.019101722165942192
1725629742476774000,5.06277392578125,0.027805263176560402,0.049435991793870926,-0.014499985612928867
1725629742486728000,5.07272802734375,0.029737116768956184,0.020981447771191597,-0.012516729533672333
1725629742496681000,5.082680908203125,-0.010817795991897583,0.05821654945611954,0.029406318441033363
1725629742506634000,5.092634033203125,-0.020445656031370163,-0.030124230310320854,0.09229367226362228
1725629742516586800,5.102586669921875,-0.07403481006622314,-0.06863037496805191,0.14259621500968933
1725629742526541000,5.112541015625,-0.1062294989824295,-0.10026153922080994,0.15409733355045319
1725629742536493800,5.122493896484375,-0.13190123438835144,-0.1369950771331787,0.15607501566410065
1725629742546446800,5.13244677734375,-0.15293727815151215,-0.19407035410404205,0.1661931723356247
1725629742556399900,5.14239990234375,-0.17138439416885376,-0.19168031215667725,0.1776883900165558
1725629742566354000,5.15235400390625,-0.19160790741443634,-0.18593934178352356,0.2099728286266327
1725629742576307000,5.162306884765625,-0.2066149115562439,-0.1798621267080307,0.25764551758766174
1725629742586260000,5.172260009765625,-0.2136259526014328,-0.18604065477848053,0.27427029609680176
1725629742596213800,5.1822138671875,-0.2045956552028656,-0.1637997329235077,0.2890348732471466
1725629742606166800,5.192166748046875,-0.1994618922472,-0.17610274255275726,0.26830774545669556
1725629742616119800,5.202119873046875,-0.18234659731388092,-0.16084785759449005,0.23663032054901123
1725629742626072800,5.21207275390625,-0.16345812380313873,-0.12282271683216095,0.22644639015197754
1725629742636027000,5.22202685546875,-0.15840254724025726,-0.09385334700345993,0.18409143388271332
1725629742645980000,5.23197998046875,-0.1459898203611374,-0.06309410184621811,0.16916626691818237
1725629742655933000,5.241932861328125,-0.136577770113945,-0.0496138334274292,0.1788199543952942
1725629742665886000,5.251885986328125,-0.12743407487869263,-0.08278776705265045,0.15229113399982452
1725629742675840000,5.261840087890625,-0.10534367710351944,-0.1338232457637787,0.138947531580925
1725629742685793000,5.27179296875,-0.10643370449542999,-0.20148111879825592,0.108433298766613
1725629742695746000,5.28174609375,-0.0885404720902443,-0.24270197749137878,0.07203949242830276
1725629742705699000,5.291698974609375,-0.08434253185987473,-0.2723080515861511,0.06882452964782715
1725629742715652900,5.30165283203125,-0.1005946472287178,-0.30339643359184265,0.06428912281990051
1725629742725605600,5.311605712890625,-0.10309216380119324,-0.2954080402851105,0.03991002216935158
1725629742735558700,5.32155859375,-0.1061352789402008,-0.30655333399772644,0.04902811348438263
1725629742745511700,5.33151171875,-0.10080442577600479,-0.2724853754043579,0.034491781145334244
1725629742755465700,5.3414658203125,-0.10624142736196518,-0.25474807620048523,0.016056230291724205
1725629742765418800,5.351418701171875,-0.09944557398557663,-0.21400730311870575,0.00967902410775423
1725629742775371800,5.361371826171875,-0.10450819879770279,-0.1919890195131302,-0.015866272151470184
1725629742785324800,5.37132470703125,-0.1309208869934082,-0.15702545642852783,-0.007735110819339752
1725629742795278800,5.38127880859375,-0.1647750586271286,-0.13637873530387878,0.015038794837892056
1725629742805231900,5.39123193359375,-0.18985404074192047,-0.1298595815896988,0.023838145658373833
1725629742815185000,5.401184814453125,-0.20432990789413452,-0.1385120153427124,0.011921938508749008
1725629742825138000,5.411137939453125,-0.22682934999465942,-0.15011566877365112,0.015747835859656334
1725629742835091700,5.421091796875,-0.2610855996608734,-0.16290026903152466,0.028990084305405617
1725629742845044700,5.431044677734375,-0.29312822222709656,-0.19160568714141846,0.03458831459283829
1725629742854997800,5.440997802734375,-0.35088279843330383,-0.13801021873950958,0.05720074847340584
1725629742864950800,5.45095068359375,-0.388744980096817,-0.13654467463493347,0.10228806734085083
1725629742874904800,5.46090478515625,-0.4123157560825348,-0.17610812187194824,0.1446792185306549
1725629742884857900,5.47085791015625,-0.4207124412059784,-0.13896209001541138,0.16238710284233093
1725629742894811000,5.480810791015625,-0.43278342485427856,-0.15212833881378174,0.19280871748924255
1725629742904763600,5.490763671875,-0.4241739511489868,-0.27398234605789185,0.21002605557441711
1725629742914718000,5.500718017578125,-0.4584450125694275,-0.0743594840168953,0.22807201743125916
1725629742924670700,5.510670654296875,-0.4572441875934601,-0.038741566240787506,0.2390887290239334
1725629742934623700,5.520623779296875,-0.42415350675582886,-0.2046104371547699,0.22913216054439545
1725629742944577800,5.530577880859375,-0.4539095461368561,-0.020746855065226555,0.23971955478191376
1725629742954530800,5.54053076171875,-0.44605308771133423,0.030031666159629822,0.21474827826023102
1725629742964483800,5.55048388671875,-0.4595459997653961,0.013372527435421944,0.21220895648002625
1725629742974436900,5.560436767578125,-0.45357659459114075,-0.12947781383991241,0.21142107248306274
1725629742984390700,5.570390625,-0.5085450410842896,0.06692765653133392,0.23732350766658783
1725629742994343700,5.58034375,-0.5328633785247803,0.10194308310747147,0.24147149920463562
1725629743004296700,5.590296630859375,-0.5712563395500183,0.06623861938714981,0.25436970591545105
1725629743014249700,5.600249755859375,-0.6208661794662476,0.049656741321086884,0.24368171393871307
1725629743024203800,5.610203857421875,-0.6342149972915649,0.04757468029856682,0.26573213934898376
1725629743034156800,5.62015673828125,-0.6478779315948486,0.05940384790301323,0.3214619755744934
1725629743044109800,5.63010986328125,-0.6637898087501526,0.07543740421533585,0.3488589823246002
1725629743054062800,5.640062744140625,-0.6721129417419434,0.07190972566604614,0.3283725082874298
1725629743064017000,5.650016845703125,-0.6780861020088196,0.09090285748243332,0.3253037631511688
1725629743073970000,5.659969970703125,-0.6939176321029663,0.12583862245082855,0.3326348662376404
1725629743083923000,5.6699228515625,-0.6948356032371521,0.1050846055150032,0.3288979232311249
1725629743093876000,5.6798759765625,-0.6982314586639404,0.15280449390411377,0.27558550238609314
1725629743103829800,5.689829833984375,-0.6944657564163208,0.11699508875608444,0.28132328391075134
1725629743113782800,5.69978271484375,-0.6755985617637634,0.12355158478021622,0.31864413619041443
1725629743123735800,5.70973583984375,-0.6462763547897339,0.1709795594215393,0.3568354547023773
1725629743133688600,5.7196884765625,-0.6158512234687805,0.20429383218288422,0.4067245125770569
1725629743143643000,5.729642822265625,-0.6064582467079163,0.23691622912883759,0.45309627056121826
1725629743153595600,5.739595703125,-0.6131155490875244,0.2493056356906891,0.4537283778190613
1725629743163548700,5.749548583984375,-0.6101564764976501,0.25811856985092163,0.43259087204933167
1725629743173501700,5.759501708984375,-0.5961788296699524,0.24328263103961945,0.38655564188957214
1725629743183455700,5.769455810546875,-0.5708596706390381,0.23364198207855225,0.35749441385269165
1725629743193408800,5.77940869140625,-0.5569894313812256,0.23867394030094147,0.36634722352027893
1725629743203361800,5.78936181640625,-0.5484185814857483,0.2387964427471161,0.3950859308242798
1725629743213314800,5.799314697265625,-0.5048906207084656,0.2068488746881485,0.39997023344039917
1725629743223268900,5.809268798828125,-0.46481001377105713,0.17203976213932037,0.3966386318206787
1725629743233222000,5.819221923828125,-0.4145514965057373,0.1618725210428238,0.3981632888317108
1725629743243175000,5.8291748046875,-0.3769649863243103,0.151637464761734,0.3851878345012665
1725629743253128000,5.8391279296875,-0.3511609137058258,0.1148165687918663,0.3235397934913635
1725629743263081700,5.849081787109375,-0.31182628870010376,0.08917511999607086,0.2659241557121277
1725629743273034800,5.85903466796875,-0.29655131697654724,0.0779176652431488,0.2368602752685547
1725629743282987800,5.86898779296875,-0.2811633050441742,0.07618847489356995,0.19827640056610107
1725629743292940800,5.87894091796875,-0.2701464295387268,0.08295562863349915,0.15958751738071442
1725629743302894800,5.888894775390625,-0.24407941102981567,0.05879570171236992,0.16917915642261505
1725629743312848000,5.898847900390625,-0.24057365953922272,0.03598708659410477,0.1455788016319275
1725629743322801000,5.90880078125,-0.2179650217294693,0.02150161936879158,0.1401110738515854
1725629743332754000,5.91875390625,-0.18992865085601807,0.0028944984078407288,0.13200993835926056
1725629743342708000,5.9287080078125,-0.14554068446159363,-0.011732115410268307,0.11598329246044159
1725629743352661000,5.938660888671875,-0.10764576494693756,-0.02306288667023182,0.0876578614115715
1725629743362614000,5.948614013671875,-0.04843863472342491,-0.05764935910701752,0.03397545963525772
1725629743372567800,5.95856787109375,0.015304526314139366,-0.12150779366493225,-0.01716945879161358
1725629743382520800,5.968520751953125,0.08179087191820145,-0.14961932599544525,-0.05219481885433197
1725629743392473600,5.9784736328125,0.1349785327911377,-0.15076275169849396,-0.08015362918376923
1725629743402426600,5.988426513671875,0.1765850931406021,-0.1571788489818573,-0.09862983971834183
1725629743412380700,5.998380615234375,0.2086867243051529,-0.18803291022777557,-0.12125623971223831
1725629743422333700,6.008333740234375,0.23389087617397308,-0.2137494534254074,-0.13968583941459656
1725629743432286700,6.01828662109375,0.26915109157562256,-0.24632857739925385,-0.15422171354293823
1725629743442239700,6.02823974609375,0.3122490346431732,-0.2556789219379425,-0.17792996764183044
1725629743452193800,6.03819384765625,0.3538144826889038,-0.2629958987236023,-0.21379999816417694
1725629743462146800,6.048146728515625,0.3966658115386963,-0.24338173866271973,-0.23126821219921112
1725629743472099800,6.058099853515625,0.42212775349617004,-0.225242018699646,-0.2526759207248688
1725629743482052900,6.068052978515625,0.432824045419693,-0.19510330259799957,-0.27396389842033386
1725629743492006700,6.078006591796875,0.44444170594215393,-0.17002806067466736,-0.2863420248031616
1725629743501959700,6.087959716796875,0.4522325098514557,-0.14011570811271667,-0.2883377969264984
1725629743511912700,6.09791259765625,0.47144439816474915,-0.09581852704286575,-0.3065797984600067
1725629743521865700,6.10786572265625,0.488346666097641,-0.07091610133647919,-0.3196830749511719
1725629743531819800,6.11781982421875,0.503032922744751,-0.04310610517859459,-0.33285439014434814
1725629743541772800,6.127772705078125,0.5197541117668152,-0.0008872793987393379,-0.35947588086128235
1725629743551725800,6.137725830078125,0.534441351890564,0.01931389421224594,-0.4037973880767822
1725629743561678800,6.147678955078125,0.545560359954834,0.031680017709732056,-0.4264553189277649
1725629743571633000,6.1576328125,0.5518706440925598,0.06035856157541275,-0.4369659423828125
1725629743581586000,6.1675859375,0.5412819385528564,0.07498570531606674,-0.44544517993927
1725629743591539000,6.1775390625,0.5670771598815918,0.09185047447681427,-0.4318236708641052
1725629743601491700,6.18749169921875,0.57461017370224,0.10016805678606033,-0.4356975257396698
1725629743611446000,6.197446044921875,0.5822080969810486,0.11623381078243256,-0.4681902825832367
1725629743621398800,6.207398681640625,0.5897853374481201,0.14259831607341766,-0.46328556537628174
1725629743631351800,6.217351806640625,0.5630642771720886,0.16320200264453888,-0.4395783245563507
1725629743641304800,6.227304931640625,0.6002558469772339,0.18527108430862427,-0.4259280264377594
1725629743651258600,6.237258544921875,0.6001745462417603,0.19558361172676086,-0.4421471953392029
1725629743661211600,6.247211669921875,0.6141042113304138,0.19876235723495483,-0.4423040449619293
1725629743671164700,6.25716455078125,0.6423361897468567,0.20874370634555817,-0.4097190797328949
1725629743681117700,6.26711767578125,0.6543270945549011,0.202178493142128,-0.35894885659217834
1725629743691071700,6.27707177734375,0.6507657766342163,0.18710020184516907,-0.36659884452819824
1725629743701024800,6.287024658203125,0.6607571244239807,0.16739094257354736,-0.3707970380783081
1725629743710977800,6.296977783203125,0.6494491696357727,0.12999379634857178,-0.3889622688293457
1725629743720931300,6.306931396484375,0.6052806377410889,0.11586866527795792,-0.39459696412086487
1725629743730885600,6.3168857421875,0.5592494010925293,0.11424528807401657,-0.39210695028305054
1725629743740838400,6.32683837890625,0.528713047504425,0.11744081974029541,-0.3465956449508667
1725629743750791400,6.33679150390625,0.49484938383102417,0.09125501662492752,-0.2944023311138153
1725629743760744400,6.346744384765625,0.45699626207351685,0.06714648753404617,-0.25333529710769653
1725629743770698200,6.3566982421875,0.43411728739738464,0.05255807191133499,-0.1975400298833847
1725629743780651300,6.3666513671875,0.3995169699192047,0.03893014416098595,-0.16312159597873688
1725629743790604300,6.376604248046875,0.3785092532634735,0.04387421905994415,-0.1644304096698761
1725629743800557300,6.386557373046875,0.39032891392707825,-0.025564776733517647,-0.19964724779129028
1725629743810511400,6.396511474609375,0.38084182143211365,-0.04970225319266319,-0.19907639920711517
1725629743820464400,6.40646435546875,0.38250496983528137,-0.05564109981060028,-0.1713281273841858
1725629743830417400,6.41641748046875,0.3638274669647217,-0.04016304388642311,-0.10383806377649307
1725629743840370400,6.426370361328125,0.343325138092041,-0.10580890625715256,-0.0817311629652977
1725629743850324500,6.436324462890625,0.34603604674339294,-0.1080918237566948,-0.07165944576263428
1725629743860277500,6.446277587890625,0.3137792944908142,-0.05096541345119476,-0.009993686340749264
1725629743870230500,6.45623046875,0.2992754280567169,-0.13410839438438416,0.017520595341920853
1725629743880183600,6.46618359375,0.2640439569950104,-0.1724720299243927,0.05259175971150398
1725629743890137300,6.476137451171875,0.2180439829826355,-0.1290556788444519,0.11281372606754303
1725629743900090400,6.48609033203125,0.25768592953681946,-0.24175933003425598,0.14351357519626617
1725629743910043400,6.49604345703125,0.26121726632118225,-0.3328274190425873,0.17697064578533173
1725629743919996400,6.505996337890625,0.2677486538887024,-0.3498772382736206,0.1726241111755371
1725629743929950500,6.515950439453125,0.26218870282173157,-0.34502100944519043,0.16532228887081146
1725629743939903500,6.525903564453125,0.24405843019485474,-0.3310266137123108,0.14594484865665436
1725629743949856300,6.535856201171875,0.21309971809387207,-0.27214476466178894,0.12384989112615585
1725629743959810600,6.545810546875,0.21426936984062195,-0.3482411205768585,0.09076064825057983
1725629743969763300,6.555763427734375,0.19231756031513214,-0.33052363991737366,0.08309246599674225
1725629743979716400,6.56571630859375,0.17021599411964417,-0.342003732919693,0.05212736129760742
1725629743989669400,6.57566943359375,0.13725882768630981,-0.32766807079315186,-0.007365633733570576
1725629743999623400,6.58562353515625,0.0995631143450737,-0.32602331042289734,-0.02493983320891857
1725629744009576400,6.595576416015625,0.06592624634504318,-0.32154470682144165,-0.052421487867832184
1725629744019529200,6.605529296875,-0.04209716245532036,-0.1918056309223175,-0.0828142836689949
1725629744029482200,6.615482177734375,0.014922212809324265,-0.3343290686607361,-0.11515846848487854
1725629744039436300,6.625436279296875,-0.009091245010495186,-0.3368244469165802,-0.13120241463184357
1725629744049389300,6.635389404296875,-0.01741691865026951,-0.32912731170654297,-0.10809504240751266
1725629744059342300,6.64534228515625,-0.027395250275731087,-0.34295791387557983,-0.11797457188367844
1725629744069295400,6.65529541015625,-0.039783939719200134,-0.313932329416275,-0.14509443938732147
1725629744079249400,6.66524951171875,-0.035039253532886505,-0.27113771438598633,-0.1356695145368576
1725629744089202400,6.675202392578125,-0.032707422971725464,-0.21842379868030548,-0.09601201117038727
1725629744099155500,6.685155517578125,-0.03731309249997139,-0.16615207493305206,-0.08240778744220734
1725629744109108500,6.6951083984375,-0.05784989148378372,-0.10078579187393188,-0.058592539280653
1725629744119062500,6.7050625,-0.04885905981063843,-0.06975677609443665,-0.037738390266895294
1725629744129015600,6.715015625,-0.047598280012607574,-0.07699953019618988,-0.014006741344928741
1725629744138968600,6.724968505859375,-0.034374088048934937,-0.08295036107301712,-0.005035084206610918
1725629744148921600,6.734921630859375,-0.013300257734954357,-0.07462707161903381,-0.026842281222343445
1725629744158875400,6.74487548828125,-0.012875217944383621,-0.06881792098283768,-0.0708741843700409
1725629744168828400,6.754828369140625,-0.008455365896224976,-0.04932186007499695,-0.08099541068077087
1725629744178781200,6.76478125,0.001108578871935606,-0.03555971011519432,-0.06607718020677567
1725629744188734200,6.774734130859375,-0.01207602396607399,-0.021033350378274918,-0.06321296840906143
1725629744198688500,6.7846884765625,-0.026733530685305595,-0.006977184675633907,-0.02461390756070614
1725629744208641300,6.794641357421875,-0.04373385012149811,0.002354114316403866,0.02333507500588894
1725629744218594300,6.80459423828125,-0.06748844683170319,0.0018305368721485138,0.07198516279459
1725629744228547300,6.81454736328125,-0.09728721529245377,0.025409897789359093,0.11666829884052277
1725629744238501400,6.82450146484375,-0.1472419798374176,0.04460276663303375,0.13025468587875366
1725629744248454400,6.834454345703125,-0.19830729067325592,0.06546834856271744,0.17030921578407288
1725629744258407400,6.844407470703125,-0.2704746723175049,0.08237382769584656,0.2031334787607193
1725629744268360400,6.8543603515625,-0.33841973543167114,0.08915954828262329,0.21734459698200226
1725629744278314200,6.864314208984375,-0.3904739022254944,0.09697512537240982,0.25268077850341797
1725629744288267300,6.874267333984375,-0.4356260895729065,0.10091616958379745,0.25673434138298035
1725629744298220300,6.88422021484375,-0.4559055268764496,0.08824937790632248,0.2303549349308014
1725629744308173300,6.89417333984375,-0.4817317724227905,0.05716404318809509,0.17085900902748108
1725629744318127400,6.90412744140625,-0.5036833882331848,0.024918753653764725,0.1396331787109375
1725629744328080400,6.914080322265625,-0.531747579574585,0.026875650510191917,0.13293729722499847
1725629744338033400,6.924033447265625,-0.5573948621749878,0.014887163415551186,0.1255853772163391
1725629744347986400,6.933986328125,-0.56488037109375,0.04380195587873459,0.13480675220489502
1725629744357940500,6.9439404296875,-0.5430986285209656,-0.07768692821264267,0.1344434916973114
1725629744367893500,6.9538935546875,-0.5615917444229126,-0.05873794108629227,0.16450119018554688
1725629744377846500,6.963846435546875,-0.5816858410835266,-0.06459715962409973,0.17224618792533875
1725629744387799600,6.973799560546875,-0.6114341616630554,-0.09490301460027695,0.18042176961898804
1725629744397753600,6.983753662109375,-0.6059004068374634,-0.20171521604061127,0.19752778112888336
1725629744407706600,6.99370654296875,-0.6429188251495361,-0.10992541164159775,0.23064163327217102
1725629744417659400,7.003659423828125,-0.6599838733673096,-0.1078723818063736,0.25096580386161804
1725629744427612400,7.0136123046875,-0.6623995900154114,-0.12507879734039307,0.26064348220825195
1725629744437566200,7.023566162109375,-0.6401832699775696,-0.14653801918029785,0.3028242290019989
1725629744447519200,7.033519287109375,-0.6199637651443481,-0.16049107909202576,0.34052106738090515
1725629744457472300,7.04347216796875,-0.6044838428497314,-0.16900600492954254,0.3610503077507019
1725629744467425300,7.05342529296875,-0.587375283241272,-0.14560729265213013,0.42474496364593506
1725629744477379300,7.06337939453125,-0.5699747204780579,-0.10941946506500244,0.48248788714408875
1725629744487332400,7.073332275390625,-0.5587631464004517,-0.05912104994058609,0.5215413570404053
1725629744497285400,7.083285400390625,-0.546117901802063,-0.02910376526415348,0.5307172536849976
1725629744507238400,7.09323828125,-0.5343005061149597,-0.017583725973963737,0.5500383973121643
1725629744517192400,7.1031923828125,-0.5253040790557861,0.0023156804963946342,0.5479185581207275
1725629744527145500,7.1131455078125,-0.5215353965759277,0.007718934677541256,0.5227144956588745
1725629744537098500,7.123098388671875,-0.5150154829025269,0.022611597552895546,0.5324802994728088
1725629744547051500,7.133051513671875,-0.5329835414886475,0.031596485525369644,0.5648637413978577
1725629744557005300,7.14300537109375,-0.5524783730506897,0.05316435918211937,0.5725115537643433
1725629744566958300,7.152958251953125,-0.5947699546813965,0.049078091979026794,0.567808985710144
1725629744576911400,7.162911376953125,-0.6128578782081604,0.02228376269340515,0.5763135552406311
1725629744586864400,7.172864501953125,-0.6369377374649048,0.002581845037639141,0.5632398128509521
1725629744596818400,7.182818359375,-0.6243356466293335,-0.013704982586205006,0.5386244654655457
1725629744606771500,7.192771484375,-0.6063092947006226,-0.02502477914094925,0.5100282430648804
1725629744616724500,7.202724365234375,-0.5839132070541382,-0.04170016199350357,0.4711626470088959
1725629744626677200,7.21267724609375,-0.5527954697608948,-0.04268040880560875,0.4461836516857147
1725629744636631600,7.222631591796875,-0.526098370552063,-0.03643476217985153,0.44808274507522583
1725629744646584300,7.232584228515625,-0.47025418281555176,-0.037980761379003525,0.41719821095466614
1725629744656537300,7.242537353515625,-0.41144680976867676,-0.038345616310834885,0.3836740553379059
1725629744666490400,7.252490478515625,-0.36014097929000854,-0.039322223514318466,0.3093518316745758
1725629744676444400,7.2624443359375,-0.3228388726711273,-0.023194918408989906,0.23278062045574188
1725629744686397400,7.2723974609375,-0.25807127356529236,0.0019576274789869785,0.18113252520561218
1725629744696350500,7.2823505859375,-0.22971391677856445,0.025037646293640137,0.17017574608325958
1725629744706303200,7.29230322265625,-0.2168923318386078,0.03689984604716301,0.14868777990341187
1725629744716257300,7.30225732421875,-0.17370837926864624,0.02842859737575054,0.14897939562797546
1725629744726210300,7.312210205078125,-0.1560298353433609,0.022904343903064728,0.1390596330165863
1725629744736163300,7.322163330078125,-0.12700830399990082,0.006005255505442619,0.11465948820114136
1725629744746116400,7.332116455078125,-0.09131696820259094,-0.005438645835965872,0.09608370810747147
1725629744756070400,7.3420703125,-0.04329191520810127,-0.015753068029880524,0.06788003444671631
1725629744766023400,7.3520234375,-0.0059325601905584335,-0.049633003771305084,0.024892089888453484
1725629744775976400,7.3619765625,0.03373229503631592,-0.07151752710342407,-0.023911401629447937
1725629744785929200,7.37192919921875,0.07718829810619354,-0.08076837658882141,-0.0638076588511467
1725629744795883500,7.381883544921875,0.12744159996509552,-0.06698732078075409,-0.046873681247234344
1725629744805836300,7.391836181640625,0.1498357653617859,-0.03735505789518356,-0.02216467820107937
1725629744815789300,7.401789306640625,0.16641367971897125,-0.06983017921447754,-0.0691114142537117
1725629744825742300,7.411742431640625,0.20490898191928864,-0.1320246458053589,-0.1139867827296257
1725629744835696000,7.421696044921875,0.24828895926475525,-0.1299351304769516,-0.12826478481292725
1725629744845649200,7.431649169921875,0.27903836965560913,-0.09929228574037552,-0.1542009860277176
1725629744855602200,7.441602294921875,0.3072811961174011,-0.10030029714107513,-0.1899872124195099
1725629744865556200,7.45155615234375,0.3336491286754608,-0.1085752472281456,-0.22432181239128113
1725629744875509200,7.46150927734375,0.361657053232193,-0.13060463964939117,-0.28797799348831177
1725629744885462300,7.471462158203125,0.37790533900260925,-0.13818654417991638,-0.35124367475509644
1725629744895415300,7.481415283203125,0.40609756112098694,-0.1431642472743988,-0.40630772709846497
1725629744905368300,7.491368408203125,0.43483594059944153,-0.15362565219402313,-0.4551560878753662
1725629744915322400,7.501322265625,0.44512107968330383,-0.1462779939174652,-0.5058831572532654
1725629744925275400,7.511275390625,0.45578914880752563,-0.11778321117162704,-0.545490026473999
1725629744935228400,7.521228515625,0.4676194489002228,-0.07962650805711746,-0.5908660292625427
1725629744945181400,7.531181396484375,0.4853667616844177,-0.03717654198408127,-0.6038508415222168
1725629744955135200,7.54113525390625,0.49685138463974,-0.013942861929535866,-0.6471043229103088
1725629744965088300,7.551088134765625,0.5131178498268127,0.00879485160112381,-0.6796087026596069
1725629744975041300,7.561041259765625,0.5334601402282715,0.045643679797649384,-0.6888117790222168
1725629744984994300,7.570994384765625,0.5450178980827332,0.07517609000205994,-0.6838520765304565
1725629744994948400,7.5809482421875,0.5474568009376526,0.10849329829216003,-0.6644986271858215
1725629745004901400,7.5909013671875,0.5553989410400391,0.12840241193771362,-0.6582889556884766
1725629745014854100,7.600854248046875,0.5807149410247803,0.14738889038562775,-0.6392667889595032
1725629745024808400,7.610808349609375,0.6193247437477112,0.15314942598342896,-0.6328715682029724
1725629745034761200,7.62076123046875,0.663872241973877,0.15935619175434113,-0.6367864012718201
1725629745044714200,7.63071435546875,0.715790867805481,0.17642462253570557,-0.585192084312439
1725629745054667300,7.640667236328125,0.7358562350273132,0.17336918413639069,-0.5219249725341797
1725629745064621300,7.650621337890625,0.7381581664085388,0.2010699361562729,-0.487444132566452
1725629745074574300,7.66057421875,0.7133537530899048,0.2097928524017334,-0.47545483708381653
1725629745084527400,7.67052734375,0.6999068260192871,0.23290611803531647,-0.4118432402610779
1725629745094480400,7.68048046875,0.6625754237174988,0.23041632771492004,-0.38162490725517273
1725629745104434200,7.69043408203125,0.6251025199890137,0.22091424465179443,-0.38574495911598206
1725629745114387200,7.70038720703125,0.6112325191497803,0.246873676776886,-0.35105809569358826
1725629745124340200,7.71034033203125,0.5957475304603577,0.2476675808429718,-0.3108714520931244
1725629745134293200,7.720293212890625,0.570095956325531,0.2562887668609619,-0.29896605014801025
1725629745144247300,7.730247314453125,0.5559541583061218,0.26024162769317627,-0.3112948536872864
1725629745154200300,7.740200439453125,0.536588191986084,0.26899969577789307,-0.28898876905441284
1725629745164153300,7.7501533203125,0.5190020799636841,0.28720447421073914,-0.24246583878993988
1725629745174106400,7.7601064453125,0.5011964440345764,0.2749600410461426,-0.20325559377670288
1725629745184060400,7.770060302734375,0.4659469723701477,0.2540130913257599,-0.1682019829750061
1725629745194013400,7.780013427734375,0.4505387246608734,0.24071644246578217,-0.15002457797527313
1725629745203966500,7.789966552734375,0.43920716643333435,0.20710161328315735,-0.14749489724636078
1725629745213919500,7.79991943359375,0.4122679829597473,0.18269453942775726,-0.14014697074890137
1725629745223873300,7.809873291015625,0.38675132393836975,0.1907557249069214,-0.13384370505809784
1725629745233826300,7.819826416015625,0.3782782256603241,0.1935509741306305,-0.10290949791669846
1725629745243779300,7.829779296875,0.35599082708358765,0.18126080930233002,-0.06211358681321144
1725629745253732000,7.839732177734375,0.3465973138809204,0.1008882075548172,-0.026376094669103622
1725629745263686400,7.849686279296875,0.31122833490371704,0.08979282528162003,-0.006173372734338045
1725629745273639200,7.85963916015625,0.2581677734851837,0.09837033599615097,-0.012147641740739346
1725629745283592200,7.86959228515625,0.23209699988365173,0.09396439790725708,-0.0006931197713129222
1725629745293545200,7.879545166015625,0.20855732262134552,0.0380697101354599,0.008935272693634033
1725629745303499300,7.889499267578125,0.16639181971549988,0.013089034706354141,0.008873559534549713
1725629745313452300,7.899452392578125,0.13389433920383453,0.07541392743587494,0.09219321608543396
1725629745323405300,7.9094052734375,0.13628818094730377,-0.022540193051099777,0.10637202858924866
1725629745333358300,7.9193583984375,0.10052512586116791,-0.04217274859547615,0.09756682068109512
1725629745343312400,7.9293125,0.0776824951171875,-0.039290472865104675,0.13830792903900146
1725629745353265400,7.939265380859375,0.05692395195364952,-0.10073572397232056,0.1706048846244812
1725629745363218400,7.949218505859375,0.016795799136161804,-0.1559394747018814,0.2154352217912674
1725629745373171500,7.95917138671875,0.0037175482138991356,-0.22338749468326569,0.24683016538619995
1725629745383125200,7.969125244140625,0.02434656210243702,-0.310110867023468,0.2516344487667084
1725629745393078300,7.979078369140625,0.03167025372385979,-0.35777825117111206,0.23337899148464203
1725629745403031300,7.98903125,0.0517505444586277,-0.3543974757194519,0.19653022289276123
1725629745412984300,7.998984375,-0.0033928710035979748,-0.2437756508588791,0.1882520467042923
1725629745422938400,8.0089384765625,0.03309282287955284,-0.2793070077896118,0.16180412471294403
1725629745432891400,8.018891357421875,-0.000041427090764045715,-0.28050729632377625,0.15470467507839203
1725629745442844400,8.028844482421874,-0.013094304129481316,-0.2670152485370636,0.16659453511238098
1725629745452797400,8.03879736328125,-0.026853526011109352,-0.25831708312034607,0.14786319434642792
1725629745462751500,8.04875146484375,-0.014728449285030365,-0.22096720337867737,0.1593332588672638
1725629745472704500,8.05870458984375,-0.002348477952182293,-0.21708537638187408,0.1321495771408081
1725629745482657300,8.0686572265625,0.010702745988965034,-0.19841989874839783,0.10620374977588654
1725629745492610300,8.0786103515625,0.027179459109902382,-0.16460441052913666,0.06709789484739304
1725629745502564000,8.088564208984375,0.032417893409729004,-0.1290948987007141,-0.0011645171325653791
1725629745512517000,8.09851708984375,0.03747070953249931,-0.10662847012281418,-0.06896194070577621
1725629745522470100,8.10847021484375,0.03627641499042511,-0.07854560762643814,-0.13626456260681152
1725629745532423200,8.118423095703125,0.03669559583067894,-0.04335832968354225,-0.1863708794116974
1725629745542377200,8.128377197265625,0.011780807748436928,-0.010622138157486916,-0.15033072233200073
1725629745552330200,8.138330322265626,-0.02828485332429409,-0.029797431081533432,-0.09621529281139374
1725629745562283300,8.148283203125,-0.04784579202532768,-0.04717082157731056,-0.08541792631149292
1725629745572236300,8.158236328125,-0.04248964414000511,-0.09649469703435898,-0.07120384275913239
1725629745582190300,8.1681904296875,-0.05063172057271004,-0.12202180922031403,-0.06164596974849701
1725629745592143400,8.178143310546876,-0.09696832299232483,-0.09031767398118973,-0.05721340328454971
1725629745602096400,8.188096435546875,-0.1502583771944046,-0.03512726351618767,-0.027598131448030472
1725629745612049400,8.19804931640625,-0.19463250041007996,-0.007224791217595339,0.02561715431511402
1725629745622003200,8.208003173828125,-0.20737342536449432,-0.031109895557165146,0.06182653084397316
1725629745631956200,8.217956298828126,-0.2069675624370575,-0.06957819312810898,0.043614502996206284
1725629745641909200,8.2279091796875,-0.19303959608078003,-0.09517411887645721,0.03559426963329315
1725629745651862300,8.2378623046875,-0.19821758568286896,-0.11428656429052353,0.06399501860141754
1725629745661816300,8.24781640625,-0.20122937858104706,-0.11502601206302643,0.09199505299329758
1725629745671769300,8.257769287109374,-0.21238216757774353,-0.12152411788702011,0.07856526970863342
1725629745681722400,8.267722412109375,-0.22305843234062195,-0.1408812701702118,0.06166880950331688
1725629745691675100,8.277675048828126,-0.2408912181854248,-0.16866309940814972,0.0777503103017807
1725629745701629400,8.28762939453125,-0.26763224601745605,-0.19758418202400208,0.11132638901472092
1725629745711582500,8.29758251953125,-0.30566567182540894,-0.1808781772851944,0.1598515659570694
1725629745721535000,8.307534912109375,-0.3278815448284149,-0.2300957590341568,0.1940706968307495
1725629745731488000,8.317488037109374,-0.3616411089897156,-0.172532320022583,0.2638271450996399
1725629745741442000,8.327442138671875,-0.3843843936920166,-0.186814546585083,0.2963911294937134
1725629745751395000,8.33739501953125,-0.41484272480010986,-0.20004406571388245,0.2956629991531372
1725629745761348000,8.34734814453125,-0.4173496663570404,-0.18624241650104523,0.3110213577747345
1725629745771301000,8.357301025390624,-0.4264454245567322,-0.1700810343027115,0.3350643813610077
1725629745781255000,8.3672548828125,-0.45681387186050415,-0.15671966969966888,0.3572947084903717
1725629745791208000,8.3772080078125,-0.4816899299621582,-0.08991266787052155,0.3815244138240814
1725629745801161000,8.387160888671875,-0.5259418487548828,-0.07773817330598831,0.4065544605255127
1725629745811114000,8.397114013671874,-0.5359913110733032,-0.15170401334762573,0.41742628812789917
1725629745821068000,8.407068115234376,-0.5797787308692932,0.0023669309448450804,0.4200567305088043
1725629745831021000,8.41702099609375,-0.6006259322166443,0.038862891495227814,0.4340311586856842
1725629745840974000,8.42697412109375,-0.5734997987747192,-0.07190954685211182,0.4708610475063324
1725629745850927000,8.436927001953125,-0.6226468682289124,0.09518729895353317,0.46659785509109497
1725629745860881200,8.446881103515626,-0.6285807490348816,0.11556582897901535,0.4187853932380676
1725629745870834200,8.456834228515625,-0.650667130947113,0.10088968276977539,0.39058810472488403
1725629745880787000,8.466786865234376,-0.6601835489273071,0.10501956939697266,0.3608086407184601
1725629745890740000,8.476739990234375,-0.6513195037841797,0.08771088719367981,0.342511385679245
1725629745900694000,8.486694091796876,-0.6383625268936157,0.07704480737447739,0.33091863989830017
1725629745910647000,8.49664697265625,-0.6274619698524475,0.10688792169094086,0.3995400369167328
1725629745920600000,8.50660009765625,-0.5934661030769348,0.16019947826862335,0.4494131803512573
1725629745930552800,8.516552734375,-0.5893144607543945,0.16967900097370148,0.44755110144615173
1725629745940507000,8.5265068359375,-0.5841211676597595,0.1897657960653305,0.47675907611846924
1725629745950460000,8.5364599609375,-0.5666175484657288,0.20571573078632355,0.468402624130249
1725629745960413000,8.546412841796876,-0.5691395998001099,0.21317952871322632,0.4620533287525177
1725629745970366000,8.556365966796875,-0.5473613142967224,0.23500360548496246,0.48344969749450684
1725629745980320000,8.566320068359374,-0.5217444896697998,0.22977875173091888,0.4962040185928345
1725629745990273000,8.57627294921875,-0.5116042494773865,0.20869503915309906,0.4904417097568512
1725629746000226000,8.58622607421875,-0.4924062490463257,0.19785980880260468,0.4827481508255005
1725629746010180000,8.59618017578125,-0.4693451225757599,0.19818764925003052,0.4620412588119507
1725629746020133000,8.606133056640624,-0.47052690386772156,0.19445683062076569,0.4421875774860382
1725629746030086100,8.616086181640625,-0.4651603698730469,0.18848922848701477,0.42304450273513794
1725629746040039200,8.6260390625,-0.44332537055015564,0.16082467138767242,0.35628658533096313
1725629746049993000,8.635992919921875,-0.41640719771385193,0.15749970078468323,0.3108493387699127
1725629746059946000,8.645946044921875,-0.3491258919239044,0.17818306386470795,0.2617797255516052
1725629746069899000,8.65589892578125,-0.3147793710231781,0.17894499003887177,0.24494855105876923
1725629746079852000,8.66585205078125,-0.28483879566192627,0.1460050493478775,0.1983041912317276
1725629746089806000,8.67580615234375,-0.2757129371166229,0.06715098768472672,0.13873645663261414
1725629746099759000,8.685759033203125,-0.2715815007686615,-0.0108884796500206,0.0782352089881897
1725629746109712100,8.695712158203126,-0.2688051462173462,-0.04358917102217674,0.04961023107171059
1725629746119665000,8.705664794921875,-0.2615695893764496,-0.06731456518173218,-0.012349437922239304
1725629746129619200,8.715619140625,-0.2219763845205307,-0.08098270744085312,-0.044841866940259933
1725629746139572000,8.725572021484375,-0.1594225913286209,-0.0880088284611702,-0.023174414411187172
1725629746149525000,8.73552490234375,-0.11132510006427765,-0.0768512487411499,-0.01792079769074917
1725629746159478000,8.74547802734375,-0.06644236296415329,-0.07316043972969055,-0.025790980085730553
1725629746169431800,8.755431884765626,-0.03634598106145859,-0.076834537088871,-0.05158316344022751
1725629746179384800,8.765384765625,-0.017306359484791756,-0.07142949104309082,-0.09362746775150299
1725629746189337900,8.775337890625,0.012783098965883255,-0.04803841933608055,-0.11495565623044968
1725629746199291000,8.785290771484375,0.03508696332573891,-0.022929519414901733,-0.1154860258102417
1725629746209245000,8.795244873046874,0.06994427740573883,-0.019625602290034294,-0.11950260400772095
1725629746219198000,8.805197998046875,0.11653662472963333,-0.05015098676085472,-0.1584084928035736
1725629746229151000,8.81515087890625,0.1804674118757248,-0.0765913799405098,-0.21668803691864014
1725629746239104000,8.82510400390625,0.2565818727016449,-0.07572488486766815,-0.22852835059165955
1725629746249058000,8.83505810546875,0.2860729396343231,-0.07732997089624405,-0.26688265800476074
1725629746259011000,8.845010986328125,0.33073890209198,-0.07566449046134949,-0.28571707010269165
1725629746268964000,8.854964111328124,0.3740283250808716,-0.039970409125089645,-0.3142477869987488
1725629746278917000,8.864917236328125,0.4089371860027313,-0.008411685936152935,-0.3838728666305542
1725629746288871200,8.87487109375,0.4449412524700165,-0.019396958872675896,-0.45189613103866577
1725629746298824200,8.88482421875,0.473060667514801,-0.01789611391723156,-0.5165107250213623
1725629746308777200,8.894777099609374,0.5080482363700867,0.011252449825406075,-0.545740008354187
1725629746318730200,8.904730224609375,0.5143968462944031,0.060761820524930954,-0.5608268976211548
1725629746328684000,8.91468408203125,0.4947832226753235,0.0877404436469078,-0.5740806460380554
1725629746338637000,8.924636962890625,0.48722246289253235,0.10965035855770111,-0.570279061794281
1725629746348589800,8.93458984375,0.46577441692352295,0.11973948031663895,-0.5528109073638916
1725629746358542800,8.94454296875,0.4434628188610077,0.13224002718925476,-0.5321446657180786
1725629746368497000,8.954496826171875,0.43680572509765625,0.14585596323013306,-0.4977571666240692
1725629746378450000,8.964449951171876,0.43472975492477417,0.13231845200061798,-0.4969228506088257
1725629746388403000,8.97440283203125,0.4288926422595978,0.12957167625427246,-0.5045858025550842
1725629746398356000,8.98435595703125,0.4272221624851227,0.12810097634792328,-0.5378553867340088
1725629746408310000,8.99431005859375,0.45426255464553833,0.12797872722148895,-0.5687070488929749
1725629746418263000,9.004262939453126,0.5082547068595886,0.13846413791179657,-0.5477398037910461
1725629746428216000,9.014216064453125,0.5403394103050232,0.15511901676654816,-0.5444657206535339
1725629746438169000,9.024169189453126,0.5820403099060059,0.20194046199321747,-0.5310309529304504
1725629746448123000,9.034122802734375,0.6226643919944763,0.21898655593395233,-0.511933445930481
1725629746458076000,9.044075927734376,0.6460157632827759,0.22200588881969452,-0.4920963644981384
1725629746468029000,9.05402880859375,0.6495306491851807,0.21049198508262634,-0.49771031737327576
1725629746477982000,9.06398193359375,0.6446044445037842,0.22041969001293182,-0.47516676783561707
1725629746487936000,9.07393603515625,0.6447224020957947,0.2109697312116623,-0.464073121547699
1725629746497889000,9.083888916015624,0.634598970413208,0.19782641530036926,-0.4279123544692993
1725629746507842000,9.093842041015625,0.6077635884284973,0.19910766184329987,-0.36389103531837463
1725629746517795000,9.103795166015624,0.5677004456520081,0.20681780576705933,-0.31442975997924805
1725629746527749000,9.1137490234375,0.5374594330787659,0.22392062842845917,-0.287530779838562
1725629746537702100,9.1237021484375,0.498925119638443,0.22250071167945862,-0.28632643818855286
1725629746547655200,9.1336552734375,0.4660728871822357,0.22613751888275146,-0.29057416319847107
1725629746557608200,9.143608154296874,0.45477190613746643,0.2312212437391281,-0.26070183515548706
1725629746567562000,9.15356201171875,0.4277389645576477,0.196952223777771,-0.23292747139930725
1725629746577515000,9.163514892578124,0.3972782492637634,0.15725043416023254,-0.22061403095722198
1725629746587468000,9.173468017578125,0.3970244526863098,0.1303519755601883,-0.19884242117404938
1725629746597421000,9.183421142578124,0.3871416747570038,0.11521371454000473,-0.16595815122127533
1725629746607374800,9.193374755859375,0.35591158270835876,0.1319114714860916,-0.14204002916812897
1725629746617327900,9.203327880859375,0.3117097020149231,0.11368829756975174,-0.12033208459615707
1725629746627281000,9.213281005859375,0.25316113233566284,0.10446444153785706,-0.09270445257425308
1725629746637234000,9.22323388671875,0.22802183032035828,0.095509834587574,-0.09431548416614532
1725629746647188000,9.23318798828125,0.18902809917926788,0.07084176689386368,-0.0785980373620987
1725629746657141000,9.24314111328125,0.12359313666820526,0.14570511877536774,-0.03200412914156914
1725629746667094000,9.253093994140626,0.10011737048625946,0.0739089623093605,0.00387557758949697
1725629746677047000,9.263047119140625,0.08091463148593903,0.08357153832912445,0.03590371087193489
1725629746687001000,9.2730009765625,0.08260466903448105,-0.013778185471892357,0.03643767535686493
1725629746696954000,9.2829541015625,0.07513393461704254,-0.03466746211051941,0.0028930751141160727
1725629746706907100,9.2929072265625,0.036037929356098175,0.06536433100700378,-0.0004774215049110353
1725629746716860200,9.302860107421875,0.07252182066440582,-0.053364481776952744,-0.015849951654672623
1725629746726813700,9.312813720703126,0.05071665719151497,-0.062029074877500534,0.02033202163875103
1725629746736766700,9.3227666015625,0.042281635105609894,-0.061572786420583725,0.06318207085132599
1725629746746719700,9.3327197265625,-0.011919019743800163,0.04171232134103775,0.11420610547065735
1725629746756672800,9.3426728515625,0.04108133167028427,-0.15334708988666534,0.13283534348011017
1725629746766626800,9.352626708984374,0.07241687923669815,-0.18555456399917603,0.15701870620250702
1725629746776579800,9.362579833984375,0.11977557092905045,-0.1810135692358017,0.1640620082616806
1725629746786532900,9.372532958984374,0.16043032705783844,-0.1312023401260376,0.18768984079360962
1725629746796486000,9.38248583984375,0.14970378577709198,-0.06385961174964905,0.22198046743869781
1725629746806440000,9.39243994140625,0.13043102622032166,-0.021135054528713226,0.26340675354003906
1725629746816393000,9.40239306640625,0.11471492052078247,-0.02067139931023121,0.2858208417892456
1725629746826346000,9.412345947265624,0.06452711671590805,0.021170057356357574,0.26771536469459534
1725629746836298800,9.422298828125,0.10038883984088898,-0.128098264336586,0.19032248854637146
1725629746846252800,9.432252685546874,0.08030274510383606,-0.16277074813842773,0.09759947657585144
1725629746856205800,9.442205810546875,0.041914090514183044,-0.1767905056476593,0.02547958493232727
1725629746866158800,9.452158935546874,0.03239781782031059,-0.20093873143196106,-0.053428009152412415
1725629746876112000,9.46211181640625,-0.012175507843494415,-0.205576092004776,-0.04781646281480789
1725629746886065700,9.472065673828125,-0.055436164140701294,-0.1930222064256668,-0.009239512495696545
1725629746896018700,9.482018798828125,-0.07349409908056259,-0.2423650324344635,0.011135940439999104
1725629746905971700,9.4919716796875,-0.07322245836257935,-0.29593077301979065,-0.025845777243375778
1725629746915924700,9.5019248046875,-0.05608697235584259,-0.3472844660282135,-0.12080538272857666
1725629746925878800,9.511878662109375,-0.027524041011929512,-0.3106726408004761,-0.14361350238323212
1725629746935831800,9.521831787109376,-0.02287139929831028,-0.31337979435920715,-0.15347698330879211
1725629746945784800,9.531784912109375,-0.04176546260714531,-0.2840181887149811,-0.13132241368293762
1725629746955737900,9.54173779296875,-0.0758548155426979,-0.2884519398212433,-0.09951575845479965
1725629746965692000,9.55169189453125,-0.11247727274894714,-0.3045305013656616,-0.06756208091974258
1725629746975645000,9.56164501953125,-0.13301284611225128,-0.2995227575302124,-0.029445208609104156
1725629746985598000,9.571597900390625,-0.15364915132522583,-0.3045012652873993,-0.01731317676603794
1725629746995551000,9.581551025390626,-0.1727267950773239,-0.2753292918205261,-0.03203349933028221
1725629747005504800,9.5915048828125,-0.17110812664031982,-0.26707348227500916,-0.016597550362348557
1725629747015457800,9.601457763671876,-0.17983342707157135,-0.2692415714263916,0.01193502452224493
1725629747025410800,9.611410888671875,-0.17497023940086365,-0.28069981932640076,0.057125404477119446
1725629747035364900,9.62136474609375,-0.17799052596092224,-0.28874823451042175,0.09613283723592758
1725629747045318000,9.63131787109375,-0.18593952059745789,-0.2961302697658539,0.13918976485729218
1725629747055271000,9.64127099609375,-0.1929403841495514,-0.30476847290992737,0.15434880554676056
1725629747065223700,9.6512236328125,-0.20759788155555725,-0.3040584623813629,0.1491766721010208
1725629747075178000,9.661177978515624,-0.21749213337898254,-0.2736158072948456,0.15027958154678345
1725629747085130800,9.671130859375,-0.21281161904335022,-0.24044692516326904,0.173775315284729
1725629747095083800,9.681083740234374,-0.21694107353687286,-0.22401535511016846,0.1357097625732422
1725629747105036800,9.691036865234375,-0.22547809779644012,-0.21297921240329742,0.12229595333337784
1725629747114990600,9.700990478515624,-0.22818347811698914,-0.20741720497608185,0.1290503442287445
1725629747124943600,9.710943603515625,-0.2505420446395874,-0.2108478844165802,0.13744542002677917
1725629747134896600,9.720896728515624,-0.2909546494483948,-0.1967453509569168,0.14018668234348297
1725629747144849700,9.730849609375,-0.31602591276168823,-0.20712368190288544,0.1424732804298401
1725629747154803700,9.7408037109375,-0.3337455987930298,-0.21984447538852692,0.1894262284040451
1725629747164756700,9.7507568359375,-0.3515387177467346,-0.2020665407180786,0.24021004140377045
1725629747174709800,9.760709716796875,-0.3795703649520874,-0.2301759421825409,0.26503682136535645
1725629747184663800,9.770663818359376,-0.39780953526496887,-0.1986776739358902,0.2833809554576874
1725629747194616800,9.780616943359375,-0.41723060607910156,-0.18952208757400513,0.3236837685108185
1725629747204569900,9.79056982421875,-0.44108906388282776,-0.23167699575424194,0.30363333225250244
1725629747214523000,9.80052294921875,-0.4617396593093872,-0.16876307129859924,0.29851624369621277
1725629747224477000,9.810476806640626,-0.48759976029396057,-0.16031579673290253,0.3147503137588501
1725629747234430000,9.820429931640625,-0.5193677544593811,-0.14296551048755646,0.32069161534309387
1725629747244383000,9.830383056640626,-0.5102709531784058,-0.20263709127902985,0.3178694546222687
1725629747254336000,9.8403359375,-0.545610785484314,-0.09889527410268784,0.33985060453414917
1725629747264289800,9.850289794921874,-0.5628792643547058,-0.04241469129920006,0.37739983201026917
1725629747274242800,9.860242919921875,-0.585125207901001,-0.01902882009744644,0.3907937705516815
1725629747284195800,9.87019580078125,-0.6026288270950317,-0.0418395921587944,0.32732346653938293
1725629747294148900,9.88014892578125,-0.6237557530403137,-0.06230843812227249,0.33186012506484985
1725629747304103000,9.89010302734375,-0.6514230966567993,-0.046456772834062576,0.3806569576263428
1725629747314056000,9.900055908203125,-0.670701801776886,-0.002305234782397747,0.3967309594154358
1725629747324008700,9.9100087890625,-0.6664660573005676,0.0034056478179991245,0.4275442659854889
1725629747333963000,9.919962890625,-0.6608067154884338,0.023715244606137276,0.47160378098487854
1725629747343915800,9.929915771484374,-0.6417544484138489,0.057045768946409225,0.4935583472251892
1725629747353868800,9.939868896484375,-0.6400677561759949,0.09030074626207352,0.5082665085792542
1725629747363821800,9.94982177734375,-0.623985230922699,0.1082664281129837,0.508202075958252
1725629747373775600,9.959775634765625,-0.5954158306121826,0.10801660269498825,0.5019986033439636
1725629747383728600,9.969728759765625,-0.5558857321739197,0.10028944164514542,0.4779185652732849
1725629747393681700,9.979681640625,-0.5379111766815186,0.1586035192012787,0.5130500793457031
1725629747403634700,9.989634765625,-0.5058413743972778,0.1932629644870758,0.5115043520927429
1725629747413588700,9.999588623046876,-0.4727533161640167,0.1692800372838974,0.49303844571113586
1725629747423541800,10.009541748046875,-0.4422891438007355,0.13457319140434265,0.42997878789901733
1725629747433494800,10.019494873046876,-0.4092981815338135,0.1352808028459549,0.36661937832832336
1725629747443448800,10.02944873046875,-0.3597186505794525,0.1258862316608429,0.30056607723236084
1725629747453401900,10.03940185546875,-0.32511818408966064,0.1244361400604248,0.26690244674682617
1725629747463355000,10.04935498046875,-0.2952694594860077,0.13935595750808716,0.23311306536197662
1725629747473308000,10.059307861328126,-0.2615290880203247,0.13664832711219788,0.21254093945026398
1725629747483261700,10.06926171875,-0.23953591287136078,0.10533568263053894,0.19901874661445618
1725629747493214700,10.079214599609376,-0.2219514399766922,0.0667591467499733,0.1667785942554474
1725629747503167700,10.089167724609375,-0.19185665249824524,0.02042706497013569,0.12388066202402115
1725629747513120800,10.099120849609376,-0.1717248558998108,-0.010265421122312546,0.08189398050308228
1725629747523074800,10.10907470703125,-0.13823214173316956,-0.024114659056067467,0.06028936058282852
1725629747533027800,10.11902783203125,-0.1252458095550537,-0.03988240286707878,0.04174927622079849
1725629747542980900,10.12898095703125,-0.10109227150678635,-0.06616433709859848,0.026797490194439888
1725629747552933600,10.13893359375,-0.06364841014146805,-0.09416141360998154,0.018932553008198738
1725629747562888000,10.148887939453125,-0.032175708562135696,-0.09657290577888489,-0.002142106182873249
1725629747572840700,10.1588408203125,0.004721794277429581,-0.08473175764083862,-0.013415438123047352
1725629747582793700,10.168793701171875,0.05436231568455696,-0.06913628429174423,-0.03836899250745773
1725629747592747800,10.178747802734375,0.0965481773018837,-0.058288995176553726,-0.058420080691576004
1725629747602700800,10.18870068359375,0.12868773937225342,-0.05005263537168503,-0.0826583057641983
1725629747612653800,10.19865380859375,0.17023061215877533,-0.018062975257635117,-0.10850966721773148
1725629747622606800,10.20860693359375,0.21557067334651947,-0.004372728988528252,-0.11896044760942459
1725629747632560600,10.218560546875,0.2359616905450821,-0.00783857237547636,-0.14620846509933472
1725629747642513700,10.228513671875,0.2622670531272888,-0.021176481619477272,-0.19445030391216278
1725629747652466700,10.238466796875,0.316558837890625,0.02377231977880001,-0.2037075012922287
1725629747662419700,10.248419677734375,0.3594365119934082,0.058401402086019516,-0.23654454946517944
1725629747672373800,10.258373779296875,0.3921930193901062,0.07019033282995224,-0.2896822988986969
1725629747682326800,10.268326904296876,0.44157519936561584,0.06937167048454285,-0.335026353597641
1725629747692279800,10.27827978515625,0.4988265931606293,0.06498000770807266,-0.3888237476348877
1725629747702233900,10.28823388671875,0.5368047952651978,0.09399834275245667,-0.4460281729698181
1725629747712187000,10.298186767578125,0.5669739246368408,0.11773323267698288,-0.4778697192668915
1725629747722140200,10.30814013671875,0.5775328278541565,0.157932311296463,-0.49690282344818115
1725629747732093200,10.31809326171875,0.5697339773178101,0.18351607024669647,-0.5324989557266235
1725629747742047000,10.328046875,0.5638638734817505,0.18803171813488007,-0.550387978553772
1725629747752000000,10.338,0.5764309167861938,0.18895255029201508,-0.5712527632713318
1725629747761953000,10.347953125,0.583296000957489,0.19416995346546173,-0.5594509840011597
1725629747771906000,10.357906005859375,0.5895982384681702,0.1790238469839096,-0.5578743815422058
1725629747781860000,10.367860107421874,0.5928968787193298,0.18165451288223267,-0.5579097867012024
1725629747791813000,10.377813232421875,0.5999494791030884,0.17461664974689484,-0.570350706577301
1725629747801766100,10.38776611328125,0.6056169271469116,0.18563468754291534,-0.5549091696739197
1725629747811719000,10.397718994140625,0.6023792624473572,0.20509596168994904,-0.5328070521354675
1725629747821673200,10.407673095703124,0.5966539978981018,0.2175837904214859,-0.5253975987434387
1725629747831626000,10.4176259765625,0.5984369516372681,0.23501046001911163,-0.5075552463531494
1725629747841579000,10.4275791015625,0.6178892254829407,0.25139182806015015,-0.5122846961021423
1725629747851533000,10.437532958984375,0.6440272927284241,0.24271945655345917,-0.5072106122970581
1725629747861486000,10.447486083984375,0.6679046750068665,0.23290596902370453,-0.5032517910003662
1725629747871439000,10.457439208984376,0.6850545406341553,0.2416284829378128,-0.4548492729663849
1725629747881392000,10.46739208984375,0.6774706840515137,0.2206725925207138,-0.44181522727012634
1725629747891346000,10.477345947265626,0.651863157749176,0.22768878936767578,-0.4203586280345917
1725629747901299000,10.487298828125,0.6169379353523254,0.2541307806968689,-0.39987918734550476
1725629747911252000,10.497251953125,0.585976243019104,0.29585355520248413,-0.34853696823120117
1725629747921205000,10.507205078125,0.5493407845497131,0.3032297194004059,-0.31436434388160706
1725629747931159000,10.517158935546876,0.5089027285575867,0.27571749687194824,-0.32186710834503174
1725629747941112000,10.527112060546875,0.48289984464645386,0.2543048858642578,-0.31623613834381104
1725629747951065000,10.537065185546876,0.4381585717201233,0.1988571733236313,-0.2809916138648987
1725629747961019100,10.54701904296875,0.3772358298301697,0.1583811193704605,-0.2869541645050049
1725629747970972200,10.55697216796875,0.3312402367591858,0.16623924672603607,-0.2670744061470032
1725629747980925200,10.56692529296875,0.3073095977306366,0.15565024316310883,-0.21626420319080353
1725629747990878200,10.576878173828124,0.28398674726486206,0.13888633251190186,-0.18675462901592255
1725629748000832000,10.58683203125,0.2430931031703949,0.16620983183383942,-0.12734270095825195
1725629748010785000,10.596784912109374,0.21826016902923584,0.1213790699839592,-0.1094873771071434
1725629748020738000,10.606738037109375,0.18336637318134308,0.17415893077850342,-0.05356232821941376
1725629748030691000,10.616691162109374,0.1702030599117279,0.10880238562822342,-0.060861483216285706
1725629748040645000,10.62664501953125,0.1755775809288025,0.08715754002332687,-0.0773584395647049
1725629748050598100,10.63659814453125,0.15978917479515076,0.13001282513141632,-0.019597690552473068
1725629748060551200,10.64655126953125,0.18594995141029358,0.05915223807096481,0.011300303041934967
1725629748070504000,10.65650390625,0.18677833676338196,0.06625906378030777,0.05520546808838844
1725629748080458200,10.666458251953125,0.16803792119026184,0.13868878781795502,0.06759289652109146
1725629748090411000,10.676410888671874,0.21731992065906525,-0.007543907966464758,0.07444188743829727
1725629748100364000,10.686364013671875,0.22805538773536682,-0.04662686213850975,0.09563692659139633
1725629748110317800,10.69631787109375,0.21738708019256592,-0.0909774899482727,0.08474460989236832
1725629748120270800,10.706270751953125,0.2010728120803833,-0.11961126327514648,0.08191127330064774
1725629748130223900,10.716223876953125,0.16865099966526031,-0.13831263780593872,0.08430764079093933
1725629748140177000,10.726177001953126,0.09126860648393631,-0.03129749745130539,0.10430079698562622
1725629748150131000,10.736130859375,0.08974234759807587,-0.13800370693206787,0.12739066779613495
1725629748160084000,10.746083984375,0.05833781883120537,-0.14478091895580292,0.16625897586345673
1725629748170037000,10.756037109375,0.03899882361292839,-0.15300242602825165,0.1501196026802063
1725629748179990000,10.765989990234376,0.026271311566233635,-0.17491358518600464,0.1419370323419571
1725629748189944000,10.775944091796875,0.015264371410012245,-0.20695987343788147,0.13882958889007568
1725629748199897000,10.78589697265625,0.0010295091196894646,-0.2368738204240799,0.1319386512041092
1725629748209850000,10.79585009765625,-0.012798462994396687,-0.2743338346481323,0.13221965730190277
1725629748219804200,10.80580419921875,-0.02891085296869278,-0.2930803596973419,0.12137153744697571
1725629748229757200,10.815757080078125,-0.041987910866737366,-0.25253522396087646,0.09504776448011398
1725629748239710200,10.825710205078124,-0.05839218199253082,-0.19973352551460266,0.09154330939054489
1725629748249663200,10.835663330078125,-0.06342439353466034,-0.17362786829471588,0.1216408833861351
1725629748259617000,10.845616943359374,-0.06353650987148285,-0.17006589472293854,0.10168954730033875
1725629748269570000,10.855570068359375,-0.04741391912102699,-0.14524129033088684,0.07176484912633896
1725629748279523000,10.865523193359374,-0.031960926949977875,-0.12742207944393158,0.009197073988616467
1725629748289476000,10.87547607421875,-0.017298663035035133,-0.08994222432374954,0.011673114262521267
1725629748299430100,10.88543017578125,-0.014257332310080528,-0.08050291985273361,-0.0012384229339659214
1725629748309383200,10.895383056640625,-0.014454009011387825,-0.08128340542316437,-0.009427404031157494
1725629748319336000,10.9053359375,-0.013408185914158821,-0.065406434237957,0.008583554066717625
1725629748329289000,10.9152890625,-0.048397235572338104,-0.09849200397729874,0.01683276891708374
1725629748339243300,10.9252431640625,-0.05775744467973709,-0.13350512087345123,-0.026887813583016396
1725629748349196000,10.935196044921875,-0.07474638521671295,-0.12268180400133133,-0.028947098180651665
1725629748359149000,10.945149169921875,-0.12137860059738159,-0.1543361395597458,0.013878928497433662
1725629748369102800,10.955102783203126,-0.13215506076812744,-0.18399135768413544,-0.00585642084479332
1725629748379055900,10.965055908203125,-0.13330554962158203,-0.1836794912815094,-0.01615246757864952
1725629748389009000,10.9750087890625,-0.1402873545885086,-0.16862939298152924,-0.02881927601993084
1725629748398962000,10.9849619140625,-0.1560833603143692,-0.16489003598690033,-0.02232489176094532
1725629748408916000,10.994916015625,-0.18237195909023285,-0.15529271960258484,-0.007469990290701389
1725629748418869000,11.004868896484375,-0.20983846485614777,-0.14534235000610352,0.05617503076791763
1725629748428822000,11.014822021484376,-0.23115046322345734,-0.15001952648162842,0.09486271440982819
1725629748438775000,11.024775146484375,-0.24227288365364075,-0.15991529822349548,0.11274610459804535
1725629748448729000,11.03472900390625,-0.24724717438220978,-0.15662139654159546,0.1041034460067749
1725629748458682000,11.04468212890625,-0.2637142837047577,-0.14820154011249542,0.09205210953950882
1725629748468635100,11.05463525390625,-0.2912452220916748,-0.117876335978508,0.11230795830488205
1725629748478588200,11.064588134765625,-0.32971617579460144,-0.08604303747415543,0.14458228647708893
1725629748488542000,11.0745419921875,-0.3690791130065918,-0.054299693554639816,0.1312902718782425
1725629748498495000,11.084494873046875,-0.38372305035591125,-0.013040406629443169,0.14058469235897064
1725629748508448000,11.094447998046874,-0.3845653235912323,0.001989082433283329,0.19264382123947144
1725629748518401000,11.104401123046875,-0.39577484130859375,0.018722523003816605,0.17792639136314392
1725629748528355000,11.11435498046875,-0.3897938132286072,-0.007233236450701952,0.14006146788597107
1725629748538308000,11.12430810546875,-0.41943904757499695,0.07821481674909592,0.13738232851028442
1725629748548261000,11.13426123046875,-0.4177306294441223,0.049029771238565445,0.11195739358663559
1725629748558215200,11.144215087890625,-0.4660292863845825,0.12822140753269196,0.14257493615150452
1725629748568168200,11.154168212890625,-0.46684330701828003,0.09073833376169205,0.12503021955490112
1725629748578121000,11.164120849609375,-0.5050452947616577,0.128280907869339,0.1644228994846344
1725629748588074000,11.174073974609374,-0.5113247632980347,0.12616556882858276,0.22018560767173767
1725629748598028000,11.184028076171876,-0.5258515477180481,0.10010787099599838,0.26378607749938965
1725629748607981000,11.19398095703125,-0.5385876893997192,0.10827400535345078,0.32671067118644714
1725629748617934000,11.20393408203125,-0.5502994656562805,0.10846495628356934,0.35967740416526794
1725629748627887000,11.21388720703125,-0.5629028081893921,0.08487576991319656,0.3306722640991211
1725629748637841000,11.2238408203125,-0.544535219669342,0.00939565896987915,0.2942226529121399
1725629748647794000,11.2337939453125,-0.5331588983535767,0.054407697170972824,0.3155902326107025
1725629748657747000,11.243746826171876,-0.5371072888374329,0.06711283326148987,0.34898173809051514
1725629748667700000,11.253699951171875,-0.5523015856742859,0.1009536013007164,0.3835132122039795
1725629748677654000,11.263654052734376,-0.5484482645988464,0.1071891263127327,0.3929746150970459
1725629748687607000,11.27360693359375,-0.5384811162948608,0.09029977768659592,0.40717756748199463
1725629748697560000,11.28356005859375,-0.5212363600730896,0.08690051734447479,0.4256274402141571
1725629748707514000,11.29351416015625,-0.5138655304908752,0.10727638751268387,0.40962979197502136
1725629748717467100,11.303467041015624,-0.5007862448692322,0.12886689603328705,0.3981981575489044
1725629748727421000,11.3134208984375,-0.48804971575737,0.13322865962982178,0.38628751039505005
1725629748737374000,11.3233740234375,-0.5109771490097046,0.1400892287492752,0.39124152064323425
1725629748747328000,11.333327880859375,-0.5183983445167542,0.15316414833068848,0.4207897186279297
1725629748757281000,11.343281005859374,-0.5111321806907654,0.17428754270076752,0.46199095249176025
1725629748767234000,11.353234130859375,-0.4950215220451355,0.15683671832084656,0.5000929832458496
1725629748777187000,11.36318701171875,-0.4579886794090271,0.15022729337215424,0.5340794324874878
1725629748787141000,11.37314111328125,-0.41990503668785095,0.14029935002326965,0.5488201975822449
1725629748797094100,11.38309423828125,-0.34867584705352783,0.11706992238759995,0.5689278841018677
1725629748807047200,11.393047119140626,-0.30720555782318115,0.09958719462156296,0.5703971982002258
1725629748817000000,11.403,-0.27928444743156433,0.08871430158615112,0.5415064096450806
1725629748826954200,11.412954345703126,-0.2675318717956543,0.05651017278432846,0.45987606048583984
1725629748836907000,11.422906982421875,-0.24319136142730713,0.04670947417616844,0.42200592160224915
1725629748846860000,11.432860107421876,-0.24881231784820557,0.06584762781858444,0.40350890159606934
1725629748856813000,11.44281298828125,-0.24733906984329224,0.08232300728559494,0.3621617257595062
1725629748866766800,11.452766845703126,-0.21404817700386047,0.09831668436527252,0.32345667481422424
1725629748876719900,11.462719970703125,-0.23171985149383545,0.06763360649347305,0.2039462774991989
1725629748886673000,11.4726728515625,-0.23574702441692352,0.041475120931863785,0.06548379361629486
1725629748896627000,11.482626953125,-0.23830339312553406,0.031131137162446976,-0.03488169237971306
1725629748906580000,11.492580078125,-0.21216127276420593,0.01695007085800171,-0.09481906145811081
1725629748916533000,11.502532958984375,-0.19840392470359802,0.008599729277193546,-0.10500618815422058
1725629748926486000,11.512486083984374,-0.1736709177494049,0.016721423715353012,-0.08273743093013763
1725629748936440000,11.522440185546875,-0.15694227814674377,0.017096662893891335,-0.08040077239274979
1725629748946393000,11.53239306640625,-0.13059429824352264,0.017780562862753868,-0.08192543685436249
1725629748956346000,11.54234619140625,-0.08823192119598389,0.001346994424238801,-0.11802112311124802
1725629748966299100,11.552299072265624,-0.020834455266594887,0.0044357008300721645,-0.14148983359336853
1725629748976253000,11.5622529296875,0.049281250685453415,0.03680882230401039,-0.1425388604402542
1725629748986206000,11.5722060546875,0.0970468670129776,0.06929222494363785,-0.1710447520017624
1725629748996159000,11.582158935546875,0.1613488793373108,0.0880398154258728,-0.17295077443122864
1725629749006112000,11.592112060546874,0.21869294345378876,0.12243802845478058,-0.15279671549797058
1725629749016066000,11.602066162109375,0.2567383348941803,0.13767291605472565,-0.17850074172019958
1725629749026019000,11.61201904296875,0.2965974509716034,0.12176283448934555,-0.18425624072551727
1725629749035972000,11.62197216796875,0.3295189142227173,0.1053529679775238,-0.20072390139102936
1725629749045924900,11.6319248046875,0.34971827268600464,0.07733938097953796,-0.23739928007125854
1725629749055879200,11.641879150390626,0.37010931968688965,0.07311028242111206,-0.26085135340690613
1725629749065832000,11.65183203125,0.3768889307975769,0.07573145627975464,-0.3117312490940094
1725629749075785000,11.661784912109376,0.3844296634197235,0.07163284718990326,-0.3598146140575409
1725629749085738000,11.671738037109375,0.4044177532196045,0.061613235622644424,-0.4152357876300812
1725629749095692000,11.681692138671876,0.4339929521083832,0.044165533035993576,-0.4582943022251129
1725629749105645000,11.69164501953125,0.46313759684562683,0.04340118542313576,-0.5005128383636475
1725629749115598000,11.70159814453125,0.484234094619751,0.043454717844724655,-0.5375552773475647
1725629749125551900,11.7115517578125,0.49656519293785095,0.03449024260044098,-0.5850058794021606
1725629749135505000,11.7215048828125,0.5018734335899353,0.009267176501452923,-0.6368629336357117
1725629749145458000,11.7314580078125,0.5217093229293823,0.009783593006432056,-0.66986083984375
1725629749155411000,11.741410888671876,0.5270849466323853,0.007536417804658413,-0.6995177865028381
1725629749165365000,11.751364990234375,0.5351641774177551,-0.016147132962942123,-0.7339958548545837
1725629749175318000,11.761318115234374,0.560585081577301,-0.018434520810842514,-0.7085967659950256
1725629749185271000,11.77127099609375,0.5718357563018799,0.023801498115062714,-0.653592050075531
1725629749195224000,11.78122412109375,0.559123158454895,0.08874880522489548,-0.5912154912948608
1725629749205178000,11.79117822265625,0.5485160946846008,0.12889118492603302,-0.5805647373199463
1725629749215131100,11.801131103515624,0.5459360480308533,0.12914259731769562,-0.5900421142578125
1725629749225084200,11.811084228515625,0.5585020780563354,0.10525208711624146,-0.6142969131469727
1725629749235037200,11.821037109375,0.577812910079956,0.09344495832920074,-0.6110907196998596
1725629749244991000,11.830990966796875,0.5969554781913757,0.0869610533118248,-0.5745882987976074
1725629749254944000,11.840944091796874,0.608363151550293,0.10127261281013489,-0.4992358088493347
1725629749264897000,11.85089697265625,0.6025818586349487,0.09247791767120361,-0.4668687582015991
1725629749274850000,11.86085009765625,0.5990467667579651,0.10141787678003311,-0.4302990138530731
1725629749284804000,11.87080419921875,0.5875871777534485,0.0822635069489479,-0.41246911883354187
1725629749294757000,11.880757080078125,0.5818808078765869,0.08109970390796661,-0.3624328672885895
1725629749304710000,11.8907099609375,0.568770706653595,0.06872154027223587,-0.33125948905944824
1725629749314664200,11.900664306640625,0.5601047277450562,0.04182494059205055,-0.3585667312145233
1725629749324617000,11.910616943359376,0.55916827917099,0.04338952153921127,-0.34945148229599
1725629749334570000,11.920570068359375,0.5622511506080627,0.0366772897541523,-0.3223620653152466
1725629749344523000,11.93052294921875,0.5456365942955017,0.03557894378900528,-0.2911760210990906
1725629749354477000,11.94047705078125,0.5189074873924255,0.04918822646141052,-0.2775142788887024
1725629749364429800,11.950429931640626,0.5091611742973328,0.06897105276584625,-0.2785499691963196
1725629749374382800,11.9603828125,0.49418219923973083,0.08899456262588501,-0.2400856614112854
1725629749384336000,11.9703359375,0.49453431367874146,0.04040168970823288,-0.22361204028129578
1725629749394290000,11.9802900390625,0.4890178442001343,0.0459892675280571,-0.1694638431072235
1725629749404243000,11.990242919921876,0.49717801809310913,0.005047249607741833,-0.16606268286705017
1725629749414196000,12.000196044921875,0.44680434465408325,0.07194212824106216,-0.14483514428138733
1725629749424149000,12.01014892578125,0.40681248903274536,0.07940075546503067,-0.09184346348047256
1725629749434103000,12.02010302734375,0.32974886894226074,0.14265136420726776,-0.020944520831108093
1725629749444056000,12.03005615234375,0.2794051170349121,0.09720638394355774,-0.01951022259891033
1725629749454009000,12.040009033203125,0.22589395940303802,0.17598135769367218,-0.003399696433916688
1725629749463962000,12.049962158203124,0.21679644286632538,0.08112941682338715,-0.011896753683686256
1725629749473916200,12.059916259765625,0.1757797747850418,0.06499305367469788,-0.01968357153236866
1725629749483869200,12.069869140625,0.08218906074762344,0.19780927896499634,0.005278069991618395
1725629749493822200,12.079822265625,0.09877416491508484,0.1045677438378334,0.009153234772384167
1725629749503775200,12.089775146484374,0.06335373222827911,0.07625878602266312,0.031681738793849945
1725629749513729000,12.09972900390625,-0.030532287433743477,0.18066056072711945,0.07457194477319717
1725629749523682000,12.10968212890625,0.002664397470653057,0.03270136937499046,0.0788179561495781
1725629749533634800,12.119634765625,-0.008765090256929398,-0.015235529281198978,0.10074961930513382
1725629749543587800,12.129587890625,-0.01714763604104519,-0.0095110684633255,0.12117303162813187
1725629749553542000,12.1395419921875,-0.02912014350295067,-0.006901436951011419,0.12384045869112015
1725629749563495000,12.149494873046875,-0.06727763265371323,0.06400280445814133,0.10585325956344604
1725629749573448000,12.159447998046875,-0.06289753317832947,-0.04659481346607208,0.10143720358610153
1725629749583402000,12.169402099609375,-0.06396086513996124,-0.06489866226911545,0.0513763390481472
1725629749593355000,12.17935498046875,-0.05292392522096634,-0.09115610271692276,-0.0005811328301206231
1725629749603308000,12.18930810546875,-0.03367471694946289,-0.14264822006225586,-0.0033602723851799965
1725629749613261000,12.199260986328126,-0.03680099919438362,-0.05193910002708435,0.038138169795274734
1725629749623214800,12.20921484375,-0.049924448132514954,-0.05086776986718178,0.099295973777771
1725629749633168000,12.21916796875,-0.03836473077535629,-0.1279202103614807,0.08762546628713608
1725629749643121000,12.229120849609375,-0.03308828920125961,-0.1909068375825882,0.0019000032916665077
1725629749653074000,12.239073974609376,-0.028992347419261932,-0.1519053727388382,-0.06129094958305359
1725629749663028000,12.249028076171875,-0.04963133856654167,-0.09159179031848907,-0.0902053713798523
1725629749672981000,12.25898095703125,-0.05880805850028992,-0.08706734329462051,-0.09690482169389725
1725629749682934000,12.26893408203125,-0.06256996840238571,-0.1223219484090805,-0.0689566433429718
