time,seconds_elapsed,z,y,x
1725630143032344300,0.02234423828125,2.7922447004199027,-0.6881915229976177,1.6714321602523325
1725630143042297300,0.03229736328125,2.7550340369224546,0.06198153213858604,0.8234512034453452
1725630143052250400,0.04225048828125,0.7256237202912569,-0.510341970232129,0.03824965115636587
1725630143062203400,0.052203369140625,-3.7650843551695345,-1.8642010497301815,-1.9421262931928038
1725630143072156400,0.062156494140625,-5.6999073396116495,0.17118541870117188,-5.689179024848341
1725630143082109400,0.072109375,-4.775369066694378,2.88124809499681,-6.111903501904011
1725630143092063500,0.0820634765625,-4.8456467180132865,2.785397611004114,-1.6111667843818664
1725630143102016500,0.0920166015625,-4.0950072144091125,2.102696502116322,0.3139069594621658
1725630143111969500,0.101969482421875,-2.951269141206145,3.3886592724740505,0.4151094720073044
1725630143121922300,0.11192236328125,-2.2120383358448743,3.7469080624878406,0.6496791292518377
1725630143131875300,0.121875244140625,-0.799160665667057,3.522794771197438,0.5645519915863871
1725630143141828400,0.131828369140625,0.6077677407175303,2.3545862736046312,0.2371370235145092
1725630143151781400,0.141781494140625,1.8974509929031131,1.1839631160855293,-0.09186170661747455
1725630143161734400,0.151734375,3.4910219148397443,0.630965076431632,-0.19183847675994037
1725630143171687400,0.1616875,3.6749113322913645,-0.7948942403942346,-2.2562664768889547
1725630143181640400,0.171640380859375,1.727892298620939,-0.15766192026138304,-2.8259067315250634
1725630143191593500,0.181593505859375,1.0968693545222281,3.339550081390142,-2.7432985909432173
1725630143201546500,0.19154638671875,-0.37272681269943714,5.590663121038675,-3.0459508736804124
1725630143211500300,0.201500244140625,-2.1809780116707085,2.5375281810730694,-0.3692500764995813
1725630143221453300,0.211453369140625,-2.3575918851613995,1.6872072370111941,1.1905591533496975
1725630143231406300,0.22140625,1.4280921904444694,0.4788227963745594,7.3653195089220995
1725630143241359400,0.231359375,5.097367562675476,0.8167021675765513,6.2854042118102305
1725630143251312000,0.24131201171875,5.773906057280302,2.475135145524144,-0.47763840889558196
1725630143261265200,0.25126513671875,4.703479888525605,0.35171325076520443,-1.1055246624037622
1725630143271218200,0.26121826171875,1.710141537874937,-1.3298428286164998,-0.16242898853272197
1725630143281171200,0.271171142578125,-2.275891507074237,-0.020676877325773238,-0.33051161891296504
1725630143291124200,0.281124267578125,-4.988066060957312,1.8056757955253122,-0.9644405135862528
1725630143301077200,0.2910771484375,-4.716892912328243,1.8280074543207883,-2.12369647391662
1725630143311030300,0.3010302734375,-0.7278589319974184,1.485734816595912,-3.034043286004662
1725630143320983300,0.3109833984375,1.542652635604143,1.507480199936032,-0.7436858850739896
1725630143330936300,0.320936279296875,0.7035813998311757,2.4149989489912986,1.10647553338781
1725630143340890400,0.330890380859375,1.5542805295556783,4.947652802026272,0.5771025533407926
1725630143350843400,0.340843505859375,3.710865858247876,6.690704091334343,-0.14546718620732427
1725630143360796400,0.35079638671875,5.240249846956133,7.284969376400113,0.933465383477509
1725630143370749400,0.36074951171875,6.971438849034905,6.1628878392100335,0.9364311014153063
1725630143380702200,0.3707021484375,7.1106140954911705,7.740022590130567,3.8946979925543066
1725630143390655200,0.3806552734375,6.605873598527908,9.478488889735937,4.904041623836756
1725630143400608300,0.390608154296875,5.745723918890953,12.294420755213498,3.4537235730588436
1725630143410561300,0.400561279296875,3.807574420374632,13.757543342506885,3.62922685495913
1725630143420514300,0.410514404296875,3.4415134953051805,14.067819251990317,2.636141700038314
1725630143430467300,0.42046728515625,5.088881473881006,13.528955536150931,1.2814917624235151
1725630143440420400,0.43042041015625,7.027577500364184,12.76615213202238,-0.145071318757534
1725630143450373400,0.440373291015625,7.553831325477361,11.84828793004155,-1.1199953785657881
1725630143460327400,0.450327392578125,6.325826238569617,10.228073915851116,-0.9611036242485046
1725630143470280400,0.460280517578125,4.9676434506535525,10.334889445972442,-0.8173030560791492
1725630143480233500,0.4702333984375,4.391727476748824,12.051446696108579,0.17885551493763924
1725630143490186500,0.4801865234375,3.9784874518752096,11.435405048042535,0.17632628872096537
1725630143500139500,0.490139404296875,3.518029748752713,10.583298389607668,-3.9339211649179457
1725630143510092300,0.50009228515625,2.0600702433109284,11.502874071681498,-9.81114146620035
1725630143520045300,0.51004541015625,-0.794926973620057,11.55050325334072,-11.56413897998333
1725630143529998300,0.519998291015625,-3.7482588925749063,9.605963761526345,-7.974530434185266
1725630143539951400,0.529951416015625,-3.808984871694445,5.403545973712205,-7.290913964018225
1725630143549904400,0.539904296875,-3.5758570838212966,7.031745725959539,-8.647242648500203
1725630143559857400,0.549857421875,-3.088565149787068,8.4522438080132,-13.509057241982221
1725630143569810400,0.559810546875,-1.9090167814038692,1.9134820902496574,-20.301993042778967
1725630143579764500,0.569764404296875,-2.3987489481970665,-5.946923367583751,-34.483917981898784
1725630143589717500,0.579717529296875,-0.8516001702174544,-7.135208438521623,-34.46066803921461
1725630143599670500,0.58967041015625,-2.076475873058289,-6.192814190918207,-25.179678574609756
1725630143609623600,0.59962353515625,-3.0874954747289416,-3.1742209875017404,-18.675971219092606
1725630143619576600,0.60957666015625,-8.634932617503404,0.975175988742709,-9.335687853997944
1725630143629529600,0.619529541015625,-11.698277401316165,-7.294926706790924,-8.452719024309516
1725630143639482400,0.629482421875,-10.279323626095056,-3.5197985119909045,-14.176760103702545
1725630143649435400,0.639435302734375,-14.80633694064617,7.766803045028448,0.3519885605752468
1725630143659388400,0.649388427734375,-23.54808391922712,7.409086169934272,8.634992238736151
1725630143669341400,0.659341552734375,-21.054305448031425,-4.788504442599415,-9.369444577649235
1725630143679294500,0.66929443359375,-14.373051906609534,6.547385753723979,4.023317942726612
1725630143689247500,0.67924755859375,-14.056631503021716,5.73737519274056,10.62786818369627
1725630143699201300,0.689201171875,-10.721617311495542,3.749751176959276,6.28930355733633
1725630143709154300,0.699154296875,0.7956526575461029,2.3586259043842555,2.6278976033061743
1725630143719107300,0.709107421875,1.8380296666413545,-0.711044575318694,1.1950152559757232
1725630143729060400,0.719060302734375,-5.721102103331685,0.4705506425917148,1.566761825466156
1725630143739013400,0.729013427734375,1.2130460027068852,-1.395134508216381,-3.5563115486130115
1725630143748966400,0.73896630859375,-2.6674907780259844,-1.43480542434752,-4.578070424832403
1725630143758919400,0.74891943359375,-3.7464983126431703,-1.624293392458558,-5.346532877635956
1725630143768872200,0.7588720703125,-3.5580870338529347,-3.1816040834903716,-13.445606221812962
1725630143778825200,0.7688251953125,-7.1075476936578745,-6.876157689362764,-16.087198588472603
1725630143788778200,0.7787783203125,-8.450028470051288,6.984020098188519,8.750722896718978
1725630143798731300,0.788731201171875,-4.0140816200867295,-0.033277415701746936,-1.519006387078762
1725630143808684300,0.798684326171875,-8.91886763255,-1.4505571202307939,-2.8257433576568958
1725630143818638300,0.808638427734375,-3.040203854461014,-3.6103280932217836,-4.123708408236503
1725630143828591400,0.81859130859375,0.20541239021271465,-4.453116888213158,-3.5246553043723106
1725630143838544400,0.82854443359375,3.9355642559498545,-4.659510982939601,-1.799407967302203
1725630143848497400,0.838497314453125,-10.60608305286765,0.07841711863279342,4.5175303236737845
1725630143858450400,0.848450439453125,-13.688317246067523,-0.16283727707266807,-0.3525168952982872
1725630143868403500,0.858403564453125,-0.36410686839222905,-8.937803219166398,-5.486315442335605
1725630143878356500,0.8683564453125,12.649517803198098,-15.17952844824791,-11.068587167125939
1725630143888308500,0.87830859375,10.78215858169794,-16.717231352490185,-9.138522775387763
1725630143898261200,0.88826123046875,-1.29453829100132,-10.161701455277203,-6.636341217505931
1725630143908214300,0.89821435546875,-1.8308137439131735,-8.976264759507774,-5.724423356708884
1725630143918167300,0.908167236328125,1.3380547766447066,-10.348296040034294,-6.791735192835331
1725630143928120300,0.918120361328125,2.880015046070516,-11.876809091126917,-9.83921254543066
1725630143938073300,0.9280732421875,3.218614255979657,-10.20044473516941,-8.657512698101996
1725630143948027400,0.93802734375,4.682468664678931,-6.953404010650515,-3.4564395540192723
1725630143957980400,0.94798046875,6.514305906420946,-6.483496926659345,-0.4190273761034012
1725630143967933400,0.957933349609375,6.9684577873975035,-8.303409921851754,-1.3030959837272762
1725630143977886500,0.967886474609375,5.4646039612650865,-5.93021480936706,-0.5871055860368535
1725630143987839500,0.977839599609375,0.13091361406743526,-1.050417984470725,1.6657129058226943
1725630143997792500,0.98779248046875,-7.259948916912078,2.3057962314724922,0.831351601306349
1725630144007745500,0.99774560546875,-8.549809279230237,3.493439497375488,2.70799843724221
1725630144017698600,1.007698486328125,-6.893593977332115,4.523579248449206,0.23369448184520006
1725630144027651300,1.0176513671875,-5.0641550289034845,3.633023909154534,-2.538547294987738
1725630144037604400,1.027604248046875,-3.7118046004027128,3.8267864858448504,-3.4000895980268715
1725630144047557400,1.037557373046875,1.6154840630590914,1.8615438132196664,-1.7413148209042846
1725630144057510400,1.047510498046875,4.621049442598223,1.0688713405281305,-1.4908064207717775
1725630144067464400,1.05746435546875,2.384525777055323,2.9426497814208266,0.36226840091869233
1725630144077417500,1.06741748046875,-1.3402856044366955,5.831804704019427,1.1707076209321616
1725630144087370500,1.07737060546875,-2.7617531160444018,5.048104642334581,0.06070435180962085
1725630144097323500,1.087323486328125,-3.0821137816905972,5.006214881110191,-1.3974910082146526
1725630144107276500,1.097276611328125,-2.15516377145648,4.590561365354061,-1.1386749445945024
1725630144117229600,1.1072294921875,-2.105472104309499,3.8560271933764216,-1.6821664663650095
1725630144127182600,1.1171826171875,-1.463833950433135,2.5490444313436744,-1.4193340067103504
1725630144137135600,1.127135498046875,0.14407792380601167,0.183436412987113,-0.6186793030932546
1725630144147088600,1.137088623046875,1.598153281290829,-2.606504686665535,0.141264912211895
1725630144157041400,1.14704150390625,3.6708977127358313,-4.037096877232194,0.4594156467236578
1725630144166994400,1.156994384765625,4.5377471822723745,-5.414011253625154,-0.07386369311213493
1725630144176947500,1.166947509765625,1.9526482717290519,-4.196102613317966,-0.5163385802984237
1725630144186901200,1.1769013671875,0.2194154888629913,-3.652193889048695,0.9228846604913472
1725630144196854300,1.186854248046875,-0.9952259663417935,-4.482490866735577,0.8720704190552234
1725630144206807300,1.196807373046875,-0.9084802875638007,-4.290814448669552,-1.3976906224399803
1725630144216760300,1.20676025390625,-0.31250235336124893,-2.940956421506405,-1.3170645955860614
1725630144226713300,1.21671337890625,-0.43588849453330036,-1.1507669489264487,-2.526717156462371
1725630144236666400,1.226666259765625,-0.6991470706455409,-2.3658634544223545,-1.8351286845028398
1725630144246619400,1.236619384765625,-0.032563860604912044,-0.21171441296637056,-0.9237026988759637
1725630144256572400,1.246572509765625,1.0477759455293416,0.3858469910353422,1.2605527270302175
1725630144266525400,1.256525390625,0.02377367429733276,2.7596207801908252,0.6499903871580958
1725630144276478500,1.266478515625,-0.4581745606213808,1.9935855545341967,-1.171147181393206
1725630144286431200,1.27643115234375,-1.3540864585131407,6.236253519672155,1.0813532209604977
1725630144296384300,1.28638427734375,1.2917111047513783,6.047246028554439,3.5333164574727416
1725630144306337300,1.296337158203125,4.533482218304276,4.0426591875344515,2.203664767514169
1725630144316291300,1.306291259765625,0.7854998045831918,4.823186464402079,-0.11587474262863397
1725630144326244400,1.316244384765625,-1.4768991837114094,5.254128734704852,0.4552110346406698
1725630144336197400,1.326197265625,1.1849663017787038,4.6741035719156265,0.7806260610669851
1725630144346150400,1.336150390625,1.5948732367068528,3.0802386354684828,-0.8513204764932394
1725630144356103400,1.346103515625,-1.4443300624094904,1.5301350993365048,-1.7088357159733771
1725630144366056400,1.356056396484375,-1.3669405332587659,1.6711995205402372,-0.9005825200513005
1725630144376009500,1.366009521484375,0.831038297573477,1.106345623397827,-0.18148937057256698
1725630144385962500,1.37596240234375,1.5633967329472302,0.0628068770468235,0.3855871710553765
1725630144395915500,1.38591552734375,0.10202800358384848,-1.5114274762570856,-0.007162146714329719
1725630144405868300,1.395868408203125,-1.4362291735403239,-2.251610467776656,0.672047612926364
1725630144415821300,1.4058212890625,-0.9672573245726526,-0.16998013456463812,0.8099255130484699
1725630144425774300,1.4157744140625,-0.015656418815255164,-0.12266951733529567,1.0442515707954765
1725630144435727400,1.425727294921875,0.5187783746659755,0.5928296993046999,1.0995330207735299
1725630144445681400,1.435681396484375,-0.8653238674044609,1.1744827555567026,-0.47087154510915274
1725630144455634400,1.445634521484375,-1.9626719453543424,0.2550491123020649,-0.9766951611340046
1725630144465587500,1.45558740234375,-0.7800007687754928,-0.40412206791639327,-0.5694868176400661
1725630144475540500,1.46554052734375,0.4752222876645624,-0.2507213122308254,0.0384726462572813
1725630144485493500,1.475493408203125,0.18798165520131588,-0.8930752131611108,-0.17434125238358975
1725630144495446500,1.485446533203125,-0.5213274746268988,-1.2264175254553555,-0.4521750279456377
1725630144505399600,1.495399658203125,-0.6926204453557729,-2.1813731484681367,0.08164864789992571
1725630144515352600,1.5053525390625,1.0653472580552101,-1.7652677972912787,0.5016106745049357
1725630144525305600,1.5153056640625,0.7021744556427002,-1.8023703242391347,1.0018632123991846
1725630144535258400,1.52525830078125,-0.4872141926229,-1.2276181334167717,0.08617752350121737
1725630144545211400,1.53521142578125,-1.5896850204139947,-1.5117191526800393,-0.05419716187268495
1725630144555164400,1.545164306640625,-0.4355691994510591,-0.39615035838484763,0.43092970308214423
1725630144565117400,1.555117431640625,-0.20826032698974012,-0.08840601320564746,0.13907675451785326
1725630144575071200,1.5650712890625,-0.24698256409391758,0.7788409312158823,-0.20684096171110866
1725630144585024300,1.575024169921875,-1.0933299283497036,1.1608441063046455,-0.9121019851922988
1725630144594977300,1.584977294921875,-0.5767592928610742,2.202763727021217,-0.9547928336665034
1725630144604930300,1.594930419921875,-0.3552135139711201,2.8208699064016343,-1.2406558941662311
1725630144614883300,1.60488330078125,-1.7345875584758816,2.8851357500851154,-1.0140183450952172
1725630144624836400,1.61483642578125,0.3314163126677275,1.6280144588083028,-1.1527727357909083
1725630144634789400,1.624789306640625,-0.7381143685519694,6.703422703132033,-0.5854609241023659
1725630144644742400,1.634742431640625,-1.8981793071776627,5.636242384430766,1.1330515517547726
1725630144654695400,1.6446953125,-2.131856984018534,-1.3157955985635519,-0.2517602998897433
1725630144664648200,1.654648193359375,0.531840831465274,-1.3513514805912972,2.30913852763772
1725630144674601200,1.664601318359375,0.6169141931168735,-2.068928088027239,2.9043261882454154
1725630144684554200,1.67455419921875,-0.6059827569968999,-0.898830415686965,1.2199234872609377
1725630144694508300,1.68450830078125,-1.309148415634036,-0.0007148702710866927,0.0325339038580656
1725630144704461300,1.69446142578125,-0.57584634273462,0.26481822664439675,-0.18032587975114583
1725630144714414300,1.704414306640625,-0.8356589431114494,-0.7836188131421804,-0.4214665859490633
1725630144724367400,1.714367431640625,-1.1691958281297237,-1.3532605290830135,-0.12465630723834037
1725630144734320400,1.7243203125,-0.9273018924117088,-1.449285200598836,-0.27302432945370675
1725630144744273400,1.7342734375,-1.2309960854172706,-0.9739180976361036,-0.35457799254655836
1725630144754226400,1.744226318359375,-0.9620698389321565,-0.5366203208267688,-0.38907384412735696
1725630144764179500,1.754179443359375,-0.3685193510722369,0.4414186561316252,-1.0343781192958355
1725630144774132500,1.764132568359375,-0.1652531060427427,0.7347206344604492,-1.3522389309503138
1725630144784085500,1.77408544921875,-0.4616571420401335,1.2256214066416025,-1.8759893949404358
1725630144794038300,1.784038330078125,-1.4412830959290266,0.2632557996332645,-1.99232517920956
1725630144803991300,1.7939912109375,-1.3321727328687905,-0.13009995959699153,-2.120773133815825
1725630144813944300,1.8039443359375,-1.1236930640399456,-0.4719494034737348,-1.629506889323145
1725630144823898400,1.8138984375,-1.3936235191315411,-1.4072685981243849,-1.2385814259797334
1725630144833851400,1.823851318359375,-1.8753204096376894,-1.9197183542907237,-1.8292178530238568
1725630144843804400,1.833804443359375,-0.6881511909872293,-1.8308768722772597,-1.6482205037519335
1725630144853757400,1.84375732421875,0.7959394385982305,-0.6766676739424466,-1.427548000565171
1725630144863710500,1.85371044921875,0.4310732397386804,-0.5406710575222968,-1.6910563136547803
1725630144873663500,1.86366357421875,-0.7844049950838089,-0.8320470362246036,-2.290757652294636
1725630144883616500,1.873616455078125,-1.123037815001607,-0.8955027325689792,-2.4064237206086516
1725630144893569800,1.88356982421875,-0.8336842820376157,-1.030246134057641,-2.1449384377792478
1725630144903522800,1.893522705078125,-0.8427472939372063,-0.5026373872041702,-1.777571836938709
1725630144913475600,1.9034755859375,-0.9118792823523283,0.1682470271617174,-1.7892969076544045
1725630144923428600,1.9134287109375,-0.7818401130318641,0.3676958327949047,-1.4046233443126082
1725630144933381600,1.923381591796875,-0.7195943769991398,0.3197106773048639,-1.0296880617834627
1725630144943335400,1.93333544921875,-0.28198212741315365,0.20047990224659443,-0.8392850246541201
1725630144953288400,1.943288330078125,-0.2721557299256325,0.25519758086204525,-0.6693636345393955
1725630144963241500,1.953241455078125,-0.9730325469732284,0.5183084190666676,-1.174242078668624
1725630144973194500,1.963194580078125,-1.4861118332147598,0.7639964133054018,-1.3522047364197671
1725630144983147500,1.9731474609375,-1.0054746808946131,0.2187064638108015,-0.6705502139754593
1725630144993100500,1.9831005859375,0.026171373955672605,1.0829331836283207,-0.9558313098687679
1725630145003053600,1.993053466796875,0.14660158793157896,0.4204816665649414,-0.7089714953716844
1725630145013006600,2.003006591796875,-0.24258244770513845,-0.48053719907701015,-0.6651853259414434
1725630145022959600,2.012959716796875,0.09124622333394362,-0.7171195113182067,-0.5986242109276354
1725630145032912600,2.02291259765625,-0.008546879070997238,-1.1578028389126063,0.15754165488258004
1725630145042865400,2.032865478515625,-0.32224224160909654,-1.3585709104508161,0.9309617300935089
1725630145052818400,2.042818359375,-0.4782160626530647,-0.6714028852820396,1.3651578876256942
1725630145062771500,2.052771484375,-0.7609259198188781,-0.24213410114943978,0.9729510792348534
1725630145072725500,2.0627255859375,-0.9201847538828849,0.022336334970593452,0.1281203300870955
1725630145082678500,2.072678466796875,-0.5812649337172507,-0.8442150284022092,0.9809279033329337
1725630145092631600,2.082631591796875,0.8893050469726324,-0.1831570115238428,0.9849902574010193
1725630145102584600,2.09258447265625,1.3453490253061056,1.3389742295771836,0.4089127362590283
1725630145112537600,2.10253759765625,-0.640844080889225,1.0774831015288828,0.762331548833102
1725630145122490600,2.11249072265625,-1.0293851333141326,0.6856909383535384,1.2607704614341257
1725630145132443600,2.122443603515625,-0.6283692147195339,0.320721315652132,1.626539856211096
1725630145142396700,2.132396728515625,0.5092834010899067,0.5000602301925421,2.7371470825761555
1725630145152349700,2.142349609375,0.5610130038052797,1.6281255179673433,2.6142680141434074
1725630145162302700,2.152302734375,0.5413613778740167,0.37871523945927615,2.3343689766146243
1725630145172255500,2.16225537109375,0.8207289388746023,-0.21633447398245334,2.7856834422081707
1725630145182208500,2.17220849609375,0.4053355353593826,0.7038081943243741,2.623891582535207
1725630145192161500,2.18216162109375,-0.7156126138865947,-0.1429851601332426,1.7181496338941156
1725630145202115600,2.192115478515625,-0.9593658406704664,-0.8167799089878797,1.017020303390175
1725630145212068600,2.202068603515625,0.7822603842705488,-1.766654867735505,1.2592157793380319
1725630145222021600,2.212021728515625,1.104540619802475,-1.3192740883290768,0.6369888667657971
1725630145231974700,2.221974609375,0.03156710465252399,-1.3860767570137977,0.45505189855620265
1725630145241927700,2.231927734375,0.8215402552574872,-2.992685439699888,-0.10007467755898833
1725630145251880700,2.241880615234375,-0.3043856458684429,-3.0368676957756278,0.3267861686490476
1725630145261833700,2.251833740234375,0.47601478974912315,-1.5830641409695148,-0.1506324600160122
1725630145271786800,2.261786865234375,1.3643962556034326,-0.6043827744543552,1.418861128501594
1725630145281739800,2.27173974609375,1.068230704537034,-2.5052450371056794,2.0912360736861824
1725630145291692800,2.28169287109375,-0.967592986267805,-1.1279641654878854,2.1629835052967072
1725630145301645600,2.2916455078125,-1.7815093225181102,-0.5851993505567312,0.9822972189247607
1725630145311598600,2.3015986328125,-2.086406461572647,0.6323351957410573,0.1229208617478609
1725630145321551600,2.311551513671875,-0.9510773933399468,0.1537158129841089,0.6194819977782666
1725630145331505700,2.321505615234375,0.030405002070590853,0.526910827717185,1.1283780069857836
1725630145341458400,2.33145849609375,-1.1301146945852785,2.2306232093274594,0.6673536098912358
1725630145351411500,2.341411376953125,-2.705947057670355,2.8076696485668418,0.40543241986259815
1725630145361364500,2.351364501953125,-2.386277296897769,2.5254800158828496,0.44403205350041386
1725630145371317500,2.3613173828125,-0.7597714890867471,2.0331483341157437,0.40850919695943594
1725630145381270500,2.3712705078125,-0.9389197764258831,2.9897809504300352,-0.43889191413298245
1725630145391223600,2.3812236328125,-1.5231886411994695,3.108817664220929,-0.8891578935869038
1725630145401176600,2.391176513671875,-1.4266934295624494,2.797989966073632,-0.9081050245106219
1725630145411129600,2.401129638671875,-1.3040303419679402,1.9309709851890802,-1.0855968498796225
1725630145421082600,2.41108251953125,-1.2952303649187087,1.1413462096303701,-2.2651415650010107
1725630145431035400,2.421035400390625,-0.888008065964654,0.20138532665371894,-2.336142269897461
1725630145440988400,2.430988525390625,-0.31427287016510963,-0.08640636382102966,-2.7086627463698387
1725630145450942500,2.4409423828125,-0.6934592342674731,0.2748860316723585,-2.779737101024389
1725630145460895500,2.4508955078125,-1.1220984883248806,0.27132044814527034,-2.6637834479406473
1725630145470848500,2.4608486328125,-1.188905833184719,-0.48945466502606866,-2.463126143300533
1725630145480801500,2.470801513671875,-0.6685667120080441,-0.2856418189644813,-2.427313510032743
1725630145490754600,2.480754638671875,-0.6714508160769939,0.3462023783892393,-2.1515543487876654
1725630145500707600,2.49070751953125,-0.8035930951565503,0.020199322941899297,-1.4688102775409817
1725630145510660600,2.50066064453125,-0.956625017529726,-0.8527455408602952,-1.4856667197957634
1725630145520613600,2.510613525390625,-1.0700660302054137,-1.0482359642565249,-1.827506226800382
1725630145530566700,2.520566650390625,-1.7490560826808212,-0.23791502214968202,-2.3433088005259632
1725630145540519700,2.530519775390625,-2.5657857227861878,0.3185322811752558,-2.4381907317474485
1725630145550472700,2.54047265625,-2.9829513966709373,0.2721720965385437,-1.2037488897904753
1725630145560425500,2.550425537109375,-2.01195006326437,-0.23782091412544248,-0.549287202437222
1725630145570378500,2.56037841796875,-1.8792834680497645,-0.513783050596714,-0.6659606942281127
1725630145580332500,2.57033251953125,-2.367358661416173,-0.9347995546907186,-0.43378480025231836
1725630145590285600,2.58028564453125,-2.0129969419687983,-1.1691671134918928,-0.004193944558501243
1725630145600238600,2.590238525390625,-1.5072686030119657,-1.1331821923971175,0.6714131144151091
1725630145610191600,2.600191650390625,-1.5339368297070264,-0.9416139108806848,1.0831380585506558
1725630145620144600,2.61014453125,-0.7963684046000242,-1.537232948642969,1.985998460406065
1725630145630097700,2.62009765625,0.19097966797351837,-1.6535475439935923,2.92421746815145
1725630145640050700,2.63005078125,0.49566937482245266,-1.2929448843300342,2.7951024279385805
1725630145650003700,2.640003662109375,0.18190248141810297,-0.7855886519104242,2.2195465195178983
1725630145659956700,2.649956787109375,0.6221795662991703,-0.8815665616750716,2.5516081443518397
1725630145669909800,2.65990966796875,0.01695566484555602,-0.18319442092478275,2.119544176542759
1725630145679862500,2.669862548828125,-0.5771674352705478,0.4733575167059898,2.3676500455781815
1725630145689815600,2.679815673828125,0.6230884978376329,0.6924667160987854,2.0819065198048947
1725630145699768600,2.6897685546875,2.804799061566591,0.13829846362173556,1.543061216405034
1725630145709722600,2.69972265625,1.0158115121223033,1.4876748447477817,-0.1369552323192358
1725630145719675600,2.709675537109375,-2.1302187152922154,2.853783749487996,-1.2183023157998918
1725630145729628700,2.719628662109375,-1.7198276501089333,2.0347855799287555,-0.6254276083096861
1725630145739581700,2.729581787109375,-0.8957190056681632,1.6165969927370547,0.5829688150256872
1725630145749534700,2.73953466796875,-3.0321722314357755,1.1197492948502301,0.020536592072248457
1725630145759487700,2.74948779296875,-2.9771430026531216,0.09614332945942879,-0.4680895131751895
1725630145769440800,2.759440673828125,-0.3615422786012292,-0.39929099449813366,0.015654080727696418
1725630145779393800,2.769393798828125,2.204582759141922,-0.3995353246480226,0.4388856305226683
1725630145789346800,2.779346923828125,1.5524170737713574,0.7037199315190314,0.4530222924247384
1725630145799299800,2.7892998046875,-1.0227177843794226,0.9288988062143325,-1.4408847442612052
1725630145809252600,2.799252685546875,0.13079276416674254,-0.49322424669265746,-1.2090192314088344
1725630145819205600,2.80920556640625,1.3841782299160956,-1.7860908050894737,-0.5954398818030953
1725630145829159700,2.81915966796875,-1.111938913360238,-0.7212924130886793,-1.831126170863211
1725630145839112400,2.829112548828125,-1.1734665642514823,-0.41402796038091183,0.04597790732085705
1725630145849065500,2.8390654296875,1.540956499210745,-1.6200748979806898,1.0390092862278222
1725630145859018500,2.8490185546875,1.4567846164435148,-1.831316432738304,2.3752801020652052
1725630145868971500,2.858971435546875,0.629801293349266,-1.909279377862811,3.985129958629608
1725630145878924500,2.868924560546875,0.18357231432646512,-2.4324814141899345,5.1613072431445115
1725630145888878800,2.87887890625,1.7735116017624735,-3.820239256158471,5.8711997258186335
1725630145898832000,2.888831787109375,2.4468700050264593,-3.9821915670901533,5.653064339894056
1725630145908785000,2.898784912109375,1.8357818877145646,-3.3251457084625957,4.7562069778457285
1725630145918738000,2.908738037109375,3.2943396513104437,-3.1070337034136055,3.713256845037639
1725630145928691000,2.91869091796875,3.1205539869830012,-1.5003928720235824,1.2698767279535532
1725630145938644000,2.92864404296875,1.2809694921150803,-0.9574930325359106,-0.5913581654474139
1725630145948597000,2.938596923828125,2.58107564637661,-1.6000304733395576,-1.1030123873218893
1725630145958550000,2.948550048828125,-0.7322104052051901,1.254554071137309,-2.5678382714018224
1725630145968504000,2.958504150390625,-3.9586011404052375,3.0163667595386503,-3.699498661059141
1725630145978457000,2.96845703125,-0.3246922651097178,2.9834657759338614,-2.8537504317402838
1725630145988409900,2.978409912109375,-1.0525114496186374,5.426885348245501,-3.9339009989127516
1725630145998363000,2.98836279296875,-3.8547900527969,6.74050535633564,-5.92751139562726
1725630146008316000,2.99831591796875,-2.5998680251300335,5.2604801495581865,-4.800000526864826
1725630146018269000,3.00826904296875,-0.4963277656659484,3.765866445457935,-1.793928659108281
1725630146028222000,3.018221923828125,-0.19072832356095312,2.967358690741658,0.32699177422374487
1725630146038175000,3.028175048828125,-1.4035837721318005,2.161202467098832,0.33947540822178124
1725630146048128000,3.0381279296875,-0.15510405247211456,0.4940560213416815,2.239976144084334
1725630146058081000,3.0480810546875,2.2182041649982334,-0.35244448764920233,5.496654465520382
1725630146068034000,3.058033935546875,1.0767787526518107,0.42643794462084766,4.576094156323373
1725630146077987000,3.067987060546875,-0.6924404126137494,0.7643582323551178,1.8085326462611555
1725630146087940900,3.07794091796875,0.08845511304438114,1.098480881372094,1.491536780872941
1725630146097894000,3.087893798828125,1.2209636439636349,2.11497263084352,1.7031965410426257
1725630146107847000,3.097846923828125,0.9299275647401809,2.5221710374653337,0.9665817633986472
1725630146117799700,3.107799560546875,-0.5972527764439582,3.248428379485011,-0.6039192485958338
1725630146127752700,3.117752685546875,-1.4751023634225129,1.9703309356749057,-0.8272893203034997
1725630146137705700,3.127705810546875,-1.0675625960171222,0.8696820626139641,-0.1876455551147461
1725630146147658800,3.13765869140625,-1.099389228388667,0.3768757490724325,-0.9453875842005014
1725630146157611800,3.14761181640625,-0.46578883501738305,-0.18263678704202174,-1.7236387328296898
1725630146167564800,3.157564697265625,0.20033347951322794,-0.3863081788063049,-2.2735721242159603
1725630146177517800,3.167517822265625,0.8598723240002989,-0.4127618859678507,-2.2484014426022765
1725630146187470800,3.177470947265625,0.1521345351420343,0.17235972317755222,-2.587364225126803
1725630146197425000,3.1874248046875,-0.2618178757846355,-0.08177578141093253,-2.740633755648136
1725630146207378000,3.1973779296875,-1.045231521743536,-0.8538871121108531,-2.2511777754478155
1725630146217331000,3.2073310546875,-1.1499468647152185,-0.647125353115797,-0.8417986149102449
1725630146227284000,3.217283935546875,0.21307941770926117,-0.8250321890264749,0.8269774778753518
1725630146237237000,3.227237060546875,0.7787900778114796,-1.0058943676114083,-0.6324260888949036
1725630146247189800,3.237189697265625,-1.0692924885496498,-1.786291296097636,-2.2123843728035686
1725630146257142800,3.247142822265625,-0.7984352740019559,-2.269229126575589,-2.2517884546920657
1725630146267095800,3.257095703125,-0.5740129167623818,-2.616788180270791,-1.9486958808414636
1725630146277048800,3.267048828125,-0.28413842866420747,-2.0473311732470987,-2.1046942518047986
1725630146287001900,3.277001953125,-0.02396276712864637,-1.1000105751574039,-1.2586525924973189
1725630146296955000,3.286954833984375,-0.6291150646507739,-2.481513448384404,-1.4444846684493124
1725630146306908000,3.296907958984375,-0.8250238595895468,-0.42735564398765563,-0.5031652104705572
1725630146316862000,3.306862060546875,-1.0976584590733052,-2.203596086192131,-0.5312224073059857
1725630146326815000,3.31681494140625,-0.9541570199809968,-3.3015076432436703,-1.2346727281033991
1725630146336768000,3.32676806640625,-1.8808575854986904,-2.65992764929533,-1.5707470957100391
1725630146346721000,3.336720947265625,-1.2889945392690598,-2.0936621317893267,-1.5429722229473293
1725630146356674000,3.346674072265625,-0.02249181779325008,-1.7823837672650813,-1.637401003573835
1725630146366627000,3.356626953125,0.8251492395348846,-1.5096388392746447,-1.7740283191129564
1725630146376579800,3.366579833984375,0.7682964485868811,-1.9240759649783372,-1.779015021484345
1725630146386532900,3.376532958984375,0.024805501563102007,-2.783961440721154,-2.099368234476447
1725630146396486000,3.38648583984375,-0.715563514047861,-3.214378225845098,-2.197950043129176
1725630146406439000,3.39643896484375,-0.5689888049900531,-2.773239555698633,-1.9945725197449324
1725630146416392700,3.406392822265625,0.36465967996940013,-1.6921411862820386,-1.5853971139617262
1725630146426345700,3.416345703125,0.9889661752946675,-0.6911211467087268,-1.1836001279920338
1725630146436298800,3.426298828125,0.6853817993391305,0.6513929474323987,-1.3562667251616716
1725630146446251800,3.436251708984375,1.1701922187559306,0.7837462389141321,-1.6405346254244446
1725630146456204800,3.446204833984375,0.6691875473201274,0.9128957659184932,-1.113734126213938
1725630146466157800,3.45615771484375,1.3071505198150872,0.6360691215723753,-1.2051198858827352
1725630146476110800,3.46611083984375,1.4293956742584704,-0.08728957639634609,-0.6571879705119877
1725630146486063900,3.47606396484375,-0.0825472041748464,0.36419513119757174,-1.1872863422241062
1725630146496017000,3.486016845703125,-1.4536756906427442,0.4165215307623148,-0.9406051722295582
1725630146505969700,3.4959697265625,-0.47078912752270696,0.30924364382624625,-0.9150606158021837
1725630146515922700,3.505922607421875,0.7235983519434929,0.8282394606351852,-0.45374461534991856
1725630146525876700,3.515876708984375,0.7181342413187026,1.518995281162858,-0.594481485099718
1725630146535829800,3.525829833984375,0.41950558807440097,1.5672423024594784,-0.5706834070134907
1725630146545782800,3.53578271484375,0.17441504827216267,1.549842254847288,-0.00553593375198543
1725630146555735800,3.54573583984375,0.5347269082956015,1.5609727206707,0.3712745680645108
1725630146565688800,3.555688720703125,-0.08033135475628078,2.771378438001871,-0.1269390113480389
1725630146575641900,3.565641845703125,-1.3790274230241775,2.125512145036459,0.20496420805379748
1725630146585595000,3.575594970703125,0.16752572714984415,0.9538637361228466,0.5452793550353497
1725630146595548000,3.5855478515625,1.7526843561805783,1.7525766580224036,0.5280055641513317
1725630146605501000,3.5955009765625,-0.08837664098069072,3.1333085468769073,0.4154462296810001
1725630146615454000,3.605453857421875,-0.7825367169938982,1.3895277742505072,0.6587018091410398
1725630146625408000,3.615407958984375,0.3142262545444071,-0.006752396869659423,1.378433256523311
1725630146635361000,3.625361083984375,1.2228951965481043,0.5457125588208437,1.9904270905032753
1725630146645314000,3.63531396484375,1.685635457649827,0.4450198954939842,1.4938487110771237
1725630146655266800,3.645266845703125,1.3450066416092217,0.35598201412558556,1.1826563443358986
1725630146665219800,3.6552197265625,0.4228425504773855,-0.054068859317898746,0.7901899351608007
1725630146675172900,3.6651728515625,0.8642292040355503,-0.8288350884407758,0.6604905191887169
1725630146685126000,3.6751259765625,1.3943394123159347,-0.14541910928189752,0.8930405802391469
1725630146695079000,3.685078857421875,0.7473935074202716,0.07515782457590103,0.6184834882602095
1725630146705032000,3.695031982421875,0.6666526220150292,-0.8252899631798267,0.6142855981789529
1725630146714985000,3.70498486328125,0.7055144137203693,-1.2387591206341981,0.4415978851560503
1725630146724938800,3.714938720703125,0.5767062474995851,-1.4971113661348818,0.5576541948966681
1725630146734891800,3.724891845703125,1.0709043076604605,-1.3386100724399088,0.4829769934445619
1725630146744844800,3.7348447265625,0.047494887755066155,-0.7998626764565706,0.21893121247738598
1725630146754797800,3.7447978515625,0.18944661318734288,-0.9015583793461323,-0.12830503900423645
1725630146764750800,3.754750732421875,-0.015031564915180205,-1.0723714576035737,-0.24375454195812343
1725630146774703900,3.764703857421875,-0.3367809084407985,-0.6305857217252254,-0.8178712113559246
1725630146784656600,3.77465673828125,0.009855185190588235,-0.45092005944848057,-0.5701563874647021
1725630146794609700,3.784609619140625,0.5095756620347499,-0.09529226558804511,-0.2995078472316265
1725630146804562700,3.794562744140625,1.0789590193003415,-0.9072931236058474,-0.3272276288062334
1725630146814515700,3.804515625,0.879795021957904,-0.18580781829357146,-0.6622248687006532
1725630146824469800,3.8144697265625,-0.9260516000896691,1.261618602696061,-2.108708748143166
1725630146834422800,3.8244228515625,-1.208197393631935,1.4229478132933377,-2.425420828153938
1725630146844375800,3.834375732421875,-0.9215046043097972,1.1338345188260077,-2.2742061843357977
1725630146854328800,3.844328857421875,-1.8070365624845026,0.9184113144695758,-2.8328876764535904
1725630146864281900,3.85428173828125,-2.1459406005591153,0.9021154287070036,-2.990236585243046
1725630146874235000,3.86423486328125,-0.8057213393568993,0.4928285253733396,-2.037184603894502
1725630146884188000,3.87418798828125,-0.07408639595210552,0.5956891803890466,-1.2555758154004812
1725630146894139600,3.8841396484375,0.23565642956793306,0.11651742444634437,-1.0567314054012298
1725630146904092700,3.8940927734375,-0.4057838636487722,0.2661889304757118,-1.4632169875785708
1725630146914045700,3.904045654296875,-0.9761188225507735,0.0375356576681137,-1.6832815880000591
1725630146923999700,3.913999755859375,-0.9556406826674938,-0.36575405107736586,-1.8243359262011944
1725630146933952800,3.923952880859375,-0.7334761873573065,-0.4326414754360914,-1.876771339098364
1725630146943905800,3.93390576171875,-0.7249613108597696,-0.2707382643431425,-1.6775677403979004
1725630146953858800,3.94385888671875,-0.34671325052082536,0.03134673990011215,-1.3611005750589071
1725630146963811600,3.9538115234375,-0.32593802738711236,0.42052258309721946,-0.8752250836938619
1725630146973764600,3.9637646484375,-0.14217267470657824,0.41601942645907397,-0.3329633959792554
1725630146983717600,3.973717529296875,-0.6173726044088602,0.2505593996673822,-0.2784710505522787
1725630146993670700,3.983670654296875,-1.1196282988190651,-0.4041945486307144,-0.31794980511218307
1725630147003623700,3.993623779296875,-0.874815479979664,-1.080390513408184,-0.10948884098380804
1725630147013576700,4.00357666015625,-0.52926995806396,-1.1511422119796275,-0.006428571742773056
1725630147023529700,4.01352978515625,-1.0043496223874389,-0.7292384036570787,0.07746770895347
1725630147033483800,4.02348388671875,-0.6144692841827869,-0.45400575050413605,0.5605865950867533
1725630147043436800,4.033436767578125,-0.06702610217705368,-0.26825170822441574,0.8207727780163288
1725630147053389800,4.043389892578125,-0.28225451461374756,-0.3345347369492054,0.9885217925280332
1725630147063342800,4.0533427734375,0.4930692022614181,-0.8484808691531419,1.310994628022611
1725630147073296000,4.0632958984375,0.5202260892562568,-0.5320446834743022,1.359216514877975
1725630147083249000,4.073248779296875,0.04511690657734871,-0.9725824651181697,0.7756953266665338
1725630147093201700,4.08320166015625,0.22974589034989476,-1.3650719629079102,0.6815326496303081
1725630147103154700,4.09315478515625,-0.7028162606775761,-1.27737965092957,0.696309363001585
1725630147113107700,4.103107666015625,-1.3861803635187446,-0.9638117141634225,0.7781564560830593
1725630147123060700,4.113060791015625,-0.796012430769205,-0.08790916959941386,0.8687108794942497
1725630147133014800,4.123014892578125,0.14301993918567896,1.1580191120117902,0.3208887811735272
1725630147142967800,4.1329677734375,2.103349997588992,2.0538906778931616,0.12456629086732864
1725630147152920800,4.1429208984375,2.390585807746649,2.145700362062454,-0.07445289117693901
1725630147162873900,4.152873779296875,0.6200521988816559,1.4553706579923629,-0.8912617339983582
1725630147172827000,4.162826904296875,0.20493162095844744,-0.246268424475193,-0.012595569939911365
1725630147182780000,4.17277978515625,0.858861393392086,-0.8938549653619527,0.9826140297889709
1725630147192733000,4.18273291015625,0.23786124613583087,-1.635097695067525,1.0027136917486785
1725630147202686000,4.19268603515625,0.05682780263721943,-1.9078852931559085,0.6919137583911419
1725630147212639000,4.202638916015625,-0.09756430217325687,-1.6612696626782417,-0.6183952254548668
1725630147222591700,4.212591796875,1.2679422527596353,-0.5563578714758157,-0.5514657155200838
1725630147232545800,4.2225458984375,0.5811499290354549,0.7463830152034759,-0.14123831646591425
1725630147242498600,4.23249853515625,-0.7322019296377896,1.017610524368286,-0.4721311897814274
1725630147252451600,4.24245166015625,0.3486825047671795,1.6164555384397505,0.3922738092124462
1725630147262404600,4.252404541015625,0.420978510171175,1.859552347141504,0.028329145644605157
1725630147272357600,4.262357666015625,-0.2848044913575053,1.3113766130775213,-1.3487339915692806
1725630147282310700,4.272310546875,0.4522805341467261,0.1539952144473791,-1.3367439863070845
1725630147292263700,4.282263671875,1.2044924016341567,0.017993921852111815,-1.0466846431612968
1725630147302216700,4.292216796875,0.5153375865623354,0.8113356721073388,-1.4489260118976235
1725630147312169700,4.302169677734375,0.7965466837763786,1.6138351268082856,-0.9453259171411394
1725630147322122800,4.312122802734375,0.5612129102915525,1.669035035982728,-0.3593155424624681
1725630147332076800,4.322076904296875,-0.14828034393191336,1.2946575334668158,-0.4973196993127465
1725630147342029800,4.33202978515625,0.43913083745539183,1.1050538300216197,-0.0057435120880603785
1725630147351982800,4.34198291015625,1.217694413034618,0.5031769009083509,0.3240791016474366
1725630147361936000,4.351935791015625,0.6811310830920935,-0.16847557522058487,0.5056371535420418
1725630147371888600,4.361888671875,0.936180779916048,-1.1076391703397035,0.9068702220186591
1725630147381841700,4.371841552734375,1.4408040802404283,-1.79555304543972,1.2165607328295707
1725630147391794700,4.381794677734375,0.8355597205206752,-1.6836270404368638,1.1273784745544195
1725630147401747700,4.391747802734375,0.39111762491464613,-1.418303202357888,0.6661924571573734
1725630147411700700,4.40170068359375,0.20364757249727844,-1.4292162260383368,0.5460635642156004
1725630147421653800,4.41165380859375,-0.004420154529809952,-1.5120546682447193,0.5479176676496863
1725630147431606800,4.421606689453125,-0.14296119473576546,-1.5060159726023674,0.4031880019366741
1725630147441560800,4.431560791015625,0.08083879282176494,-1.5700824943214653,0.33019904583245513
1725630147451513900,4.441513916015625,0.6137114515528083,-1.612715182867646,0.44682606813311576
1725630147461467000,4.451466796875,0.8166407927781343,-1.156198910847306,0.16273381669819353
1725630147471420000,4.461419921875,0.31438875162974,-0.8078074979811907,0.12718231858462095
1725630147481373000,4.471373046875,0.7069377245217562,-1.0658604682743549,-0.3978182915970683
1725630147491326000,4.481325927734375,0.25633973663449283,-1.286445585438609,-0.8246151326581835
1725630147501278700,4.49127880859375,-0.13192951311171053,-1.02332890201509,-1.0034741547271608
1725630147511231700,4.501231689453125,-0.030577509093284605,-0.5618938782930374,-0.8479910398095846
1725630147521184800,4.511184814453125,0.07854863605797291,-0.4299363081306219,-0.6835524650201201
1725630147531137800,4.5211376953125,0.0443809935182333,-0.2589589792221784,-0.4871510642588138
1725630147541091600,4.531091552734375,-0.6937542716912924,0.40022622952163217,-0.7060653256013989
1725630147551044600,4.541044677734375,-0.638126638624072,0.38635318699181076,-1.0976485222011805
1725630147560997600,4.55099755859375,-0.10015051927417516,0.4628390453010797,-1.2258619373992086
1725630147570950700,4.56095068359375,-0.009760200383514165,0.7989046450793743,-1.0986802033364773
1725630147580903700,4.570903564453125,0.13538243004456163,1.0685299797445535,-0.5478706136375665
1725630147590856700,4.580856689453125,-0.9159481392264366,1.258105041617155,0.015257774886488914
1725630147600809700,4.590809814453125,-1.785330195980519,0.2839431983530521,-0.21732290049791333
1725630147610762800,4.6007626953125,-1.421461812519282,-0.4134036910027265,-0.590343435446918
1725630147620715800,4.6107158203125,-1.1947130581587553,-0.6420809292078018,-0.09441022205650806
1725630147630668500,4.62066845703125,-0.7365285606652497,-0.10621054996550082,0.07194646131396293
1725630147640622800,4.630622802734375,-0.32417525549829,0.8993132307678461,0.2504121001511812
1725630147650575600,4.64057568359375,-0.2382468844525516,2.132326501226425,-0.11704057153761387
1725630147660528600,4.650528564453125,-0.4004973015479743,3.0677193456351755,-0.17399799190387127
1725630147670481700,4.660481689453125,-0.7178842120803892,3.5032857686072587,0.007247340779751539
1725630147680434700,4.6704345703125,-1.065973865520954,3.1001445284217595,-0.3847643103651702
1725630147690387700,4.6803876953125,-1.7488298727095126,2.3931471826672555,-1.042166873475909
1725630147700340700,4.6903408203125,-1.3675197944514452,1.4341051671236753,-0.897885682182759
1725630147710293800,4.700293701171875,-1.11577264630422,1.221550796201825,0.01668225473165512
1725630147720246800,4.710246826171875,-0.9411626599818468,0.47928164605796336,-0.3326541838996112
1725630147730199800,4.72019970703125,-1.452236305489391,-0.17793606200516224,-0.41004473596364255
1725630147740153900,4.73015380859375,-0.7907138859696686,-0.9113567197829484,-0.20543781691491603
1725630147750107000,4.74010693359375,0.5615764829069375,-1.3745476472616194,-0.36822599414885043
1725630147760060000,4.750059814453125,0.14033084623217582,-1.1452578301161527,-0.8297212236255407
1725630147770013000,4.760012939453125,-0.4205136691384017,-2.2185580930024384,-0.3116736474521458
1725630147779965700,4.769965576171875,2.1109230631917715,-3.6098557995349165,1.084742717268318
1725630147789918700,4.779918701171875,1.8157792563885449,-2.79359202337563,-0.35235943971425293
1725630147799871700,4.789871826171875,0.8575649238407611,-1.080129232123494,-0.6957090590208769
1725630147809824800,4.79982470703125,0.5089204860616475,-0.7204413492172956,0.5178855174794793
1725630147819777800,4.80977783203125,0.29204642530977726,0.1700122832685709,0.940074134092778
1725630147829730800,4.819730712890625,0.5804160618029535,0.3879407484441995,0.4151766920246184
1725630147839683800,4.829683837890625,1.1023720435917377,0.004754501050710678,-0.8862760545402765
1725630147849637600,4.8396376953125,0.4025697239078581,1.2532190231412648,-1.254807022985071
1725630147859590700,4.849590576171875,0.32355449325144287,1.1702753669947386,-0.7077094395466148
1725630147869543700,4.859543701171875,0.4415412595979869,0.5670253959625959,-0.8170905823722481
1725630147879496700,4.86949658203125,-1.1515016929417847,0.9048767101138829,-0.5019723474241793
1725630147889449700,4.87944970703125,-1.0894617086142302,-0.31346856804490086,0.23137889837920664
1725630147899402800,4.88940283203125,-0.12167290751338004,-1.218956688055396,0.7952320940464734
1725630147909355800,4.899355712890625,0.4301671942770481,-1.3891998574703932,1.0951169578969477
1725630147919308800,4.909308837890625,1.135739329534024,-1.4899778609931469,0.5274278373286128
1725630147929261800,4.91926171875,1.0186461510263383,-1.2682482499688863,-0.48168929172158237
1725630147939214800,4.92921484375,0.6792294872544705,-0.6392687943965196,-1.2926181365936993
1725630147949169000,4.9391689453125,0.7243120531708002,0.14560732533037662,-1.177201805257052
1725630147959122000,4.949121826171875,0.48146819631680843,1.534181744378805,-0.5870348954208194
1725630147969075000,4.959074951171875,0.5156371540307998,1.673549883058667,-0.37234541216641664
1725630147979028000,4.969028076171875,0.13346665955111384,1.223037235367298,0.0023624913476407525
1725630147988981000,4.97898095703125,-0.5342929007925092,0.31377894916832444,0.31193156773597003
1725630147998933800,4.988933837890625,-0.06193243229985237,-0.9224725725591182,0.7592775680899619
1725630148008886800,4.99888671875,0.3249877409249544,-1.044656936725974,1.0320121208168567
1725630148018839800,5.00883984375,-0.02068506063222885,-1.2778957837581635,0.8249421726554632
1725630148028792800,5.018792724609375,0.43103184828236696,-1.7756418917894363,0.5918266597419977
1725630148038745900,5.028745849609375,0.907879399061203,-1.026437973946333,0.8882456010475754
1725630148048699000,5.038698974609375,1.0770033551879226,0.06704056909382343,1.1814397350877524
1725630148058653000,5.04865283203125,1.2092029174126684,0.12726385938823223,0.5635097890570759
1725630148068606000,5.05860595703125,0.6608033114649355,0.4188338993579149,0.18780995189622043
1725630148078559000,5.06855908203125,-1.1337087004892528,1.650401647183299,-0.12048092124983667
1725630148088512000,5.078511962890625,-1.570374170744419,1.8198399299561976,-0.06632847530171275
1725630148098465000,5.088465087890625,-1.1100753114454447,2.1495418399214743,0.6088561204761266
1725630148108418000,5.09841796875,-1.6864312842026352,2.9810090304315087,0.5161141238927841
1725630148118371000,5.10837109375,-1.5195190127760172,2.559527246913314,0.5138812502741813
1725630148128323800,5.11832373046875,-0.9470259990572929,2.2736370061457154,0.7959200763106345
1725630148138276900,5.12827685546875,-0.9677261111281812,2.031025350612402,0.3078374302901327
1725630148148230000,5.13822998046875,-1.3660912229530513,1.0162333907961845,-0.26173092815354465
1725630148158184000,5.148183837890625,-1.640078990611434,0.35068741484880445,-0.5193823319084943
1725630148168137000,5.158136962890625,-1.1260060171574353,-0.4013572793781757,-0.6952414415091276
1725630148178090000,5.168090087890625,-0.9137534056611358,-0.7373053902566432,-0.5435889907956123
1725630148188042800,5.178042724609375,-0.13063362808227538,-0.42632104024291034,0.11134586702734231
1725630148197995800,5.187995849609375,0.40892340378351505,0.12465163106322288,0.818631382073462
1725630148207948800,5.19794873046875,0.5367604599498212,0.4148299244135618,1.2460586299926042
1725630148217901800,5.20790185546875,0.005834259111434221,0.08753624463379382,0.8251157756567001
1725630148227854800,5.217854736328125,-0.6029783144839108,-1.271471303668618,0.2609600899115205
1725630148237807900,5.227807861328125,-0.9740086254637688,-1.8750591283529996,0.1053165237352252
1725630148247761000,5.237760986328125,-0.9609674306482076,-1.8532927022248507,0.4113087645500898
1725630148257714000,5.2477138671875,-0.5280979916751385,-0.9599556232571601,1.3014192826867104
1725630148267668000,5.25766796875,-0.20081497941985726,0.2700444368600845,1.29853846655339
1725630148277620700,5.267620849609375,-0.44639410645663735,0.7949760734587907,1.2601941228508948
1725630148287573800,5.27757373046875,-0.3062386167913675,0.5731693055450916,1.0523153425246476
1725630148297526800,5.28752685546875,-0.16792539399191736,-0.12269289821088314,0.40992373993247744
1725630148307479800,5.297479736328125,-0.15099939363226295,-1.3003040149211882,-0.11151187124401331
1725630148317432800,5.307432861328125,-0.9908737624816596,-1.65461429644227,-1.2194558697491884
1725630148327385900,5.3173857421875,-1.2043237670689821,-1.560252589702606,-1.3314479257255791
1725630148337339000,5.3273388671875,-0.881121009864658,-0.451411642357707,-0.4984814365684986
1725630148347292000,5.3372919921875,-1.5601777709007263,0.5981921031206846,-0.24504735824763774
1725630148357245000,5.347244873046875,-1.5703396839529276,0.5208242012798786,0.003678103990852833
1725630148367199000,5.357198974609375,-0.683395082501322,0.2138607773452997,0.4926663205489516
1725630148377152000,5.367152099609375,0.048082916776090855,0.37611528609395023,0.8020619400665163
1725630148387105000,5.37710498046875,0.16331848471835256,0.575949291652441,0.31204379593878984
1725630148397058000,5.38705810546875,0.09420344743803143,0.0933060602068901,0.09143734372556209
1725630148407010800,5.3970107421875,0.2424129180908203,-0.31034137593507766,0.25233020873218776
1725630148416963800,5.4069638671875,0.043819998634606595,-0.5544073219299316,0.5274848282128572
1725630148426916900,5.416916748046875,0.016882161217927932,-0.9908961204439402,0.7746832270145416
1725630148436870000,5.426869873046875,0.4542342985630035,-1.327111942347884,1.163398174701631
1725630148446823000,5.436822998046875,1.293522538087517,-1.6219389382869005,1.7579215261816978
1725630148456776000,5.44677587890625,1.3676502889633178,-1.0795856267660855,1.8774279033109544
1725630148466729000,5.45672900390625,-0.2769260130673647,-0.5729758287996053,1.1625567554414271
1725630148476683000,5.46668310546875,-0.6594298311546445,-0.3172223676204681,0.46034430587589736
1725630148486636000,5.476635986328125,-0.9271662833333015,0.32691549411714077,-0.3624944647595286
1725630148496589000,5.486589111328125,-1.8350737394452095,0.8082114026069641,-0.91053312844038
1725630148506542000,5.4965419921875,-0.5776935049712658,1.320366559740901,-0.4865808631554246
1725630148516495000,5.5064951171875,0.6089028822273016,2.3596289439469573,-0.17246610616147517
1725630148526448000,5.5164482421875,0.6937602630406617,2.675464825645089,-0.49790246763676405
1725630148536401000,5.52640087890625,1.2438861082591115,2.428439445322752,-0.07234568976461887
1725630148546354000,5.53635400390625,0.46449499581456183,2.2135504939734933,-0.3552870175987482
1725630148556307000,5.546306884765625,-0.5559270788431168,1.3110083642870187,-0.7417638309702277
1725630148566260000,5.556260009765625,0.2808990083515644,0.492732663783431,0.1469298061057925
1725630148576213000,5.566212890625,0.6392211558625102,1.1214520071148872,0.34964521231949325
1725630148586166800,5.576166748046875,-0.09232055630087851,1.1770178269922733,0.021734861946105955
1725630148596119800,5.586119873046875,0.8275625842869281,1.0522726724267006,0.6000871230870485
1725630148606072800,5.59607275390625,1.256171150945127,1.1253922691732645,1.3179200433716176
1725630148616025900,5.60602587890625,0.8865209692120551,-0.40056817482709883,1.276286887256801
1725630148625979000,5.615978759765625,0.8270435288488864,-1.73154614495337,1.4753712434917687
1725630148635932000,5.625931884765625,0.9324830944418907,-2.335998477512598,1.6989248550727962
1725630148645885000,5.635885009765625,1.2533096240341663,-2.6466362060457467,1.7389011838912962
1725630148655838000,5.645837890625,1.0300681471422315,-2.5191952365249395,1.8358301107704638
1725630148665790700,5.655790771484375,0.809088185441494,-2.142019627723098,1.6851663788333535
1725630148675743700,5.66574365234375,0.5953614097394049,-1.614306251451373,1.2374442386433482
1725630148685696800,5.67569677734375,0.44622751771807667,-1.6247136636972426,0.8449357438921928
1725630148695650800,5.68565087890625,0.3426088839419186,-1.6617817038536071,0.7902697954639792
1725630148705603800,5.695603759765625,0.02330211126282811,-1.2051380060613155,0.4246045917138457
1725630148715556900,5.705556884765625,-0.33110768510997296,-0.9785288063019514,0.12070143213272094
1725630148725510000,5.715510009765625,0.5567210056997836,-0.9261217427164316,0.47245998334437606
1725630148735463000,5.725462890625,0.4836027241274714,-0.33844109673798084,0.44529315947741266
1725630148745416000,5.735416015625,0.563134818264842,-0.3067570877075195,0.2366504090413451
1725630148755369000,5.745368896484375,0.6624234600126743,-0.6020037703633309,0.013761106587946414
1725630148765322000,5.755322021484375,0.03363689666390419,-0.8810141884893179,0.29234628503918647
1725630148775275000,5.76527490234375,-0.12840543063879012,-1.0036632475584746,0.7970993492230772
1725630148785228000,5.77522802734375,-0.3655418696314096,-0.7789946604728698,0.7572925317525864
1725630148795180800,5.785180908203125,-0.7673205892920494,-0.4974439102143049,0.4562406699493527
1725630148805135000,5.795135009765625,-0.6024129356861114,0.043453941801190374,0.2597653271690011
1725630148815087900,5.805087890625,-0.5075935483068228,1.380786833912134,-0.33399493098407984
1725630148825041000,5.815041015625,-0.27461291381940245,2.544196406790614,-0.7166548164159059
1725630148834994000,5.824993896484375,-0.9677861707523464,2.8939772281885143,-1.0242734893888235
1725630148844947000,5.834947021484375,-1.5006477235674858,2.207971232536435,-1.528573841369152
1725630148854900000,5.84489990234375,-1.9609012824200092,1.6969588156968354,-1.56381671192497
1725630148864853000,5.85485302734375,-1.5021229106865823,1.2824544699758291,-0.7898302350029349
1725630148874806000,5.864805908203125,-0.4883031569033861,1.1765355964332818,-0.17148849330097435
1725630148884759000,5.874759033203125,0.521308185404539,1.6807704819619655,-0.13262012572437523
1725630148894711600,5.884711669921875,0.7842388447366654,2.9771675525724888,0.3784257549934089
1725630148904665300,5.894665283203125,1.111947242797166,3.3674329445719717,0.2959310116581619
1725630148914618400,5.904618408203125,-0.43638928366228935,2.1626824765235186,-0.002283580892533064
1725630148924571400,5.9145712890625,-1.2055639763884245,0.24289397960603235,-0.5098121011391282
1725630148934524400,5.9245244140625,-2.0299450080297885,-1.084245435270667,-0.39652576756849883
1725630148944477400,5.9344775390625,-1.3593945017933844,-1.8754793995916843,-0.11042816766053437
1725630148954430500,5.944430419921875,0.15069690355435014,-1.6801345221459865,0.20661782047972083
1725630148964383500,5.954383544921875,0.3910702786415815,-0.37884324975311756,-0.007055763730406761
1725630148974336500,5.96433642578125,0.9687614455252885,0.21446517297923565,-0.18737404469698665
1725630148984289500,5.97428955078125,0.6500741199187934,-0.01697159306704998,-0.41880102000162
1725630148994242300,5.9842421875,-0.3677529698096216,-0.9248334564715623,-0.4344255823738873
1725630149004195300,5.9941953125,-0.7810537849597633,-1.5580524493098258,-0.9296323811858892
1725630149014148400,6.0041484375,-0.705856359025836,-1.9165859014838933,-1.0047123182199895
1725630149024102400,6.014102294921875,0.6924328138291835,-2.240310490605235,0.12104922265708445
1725630149034055400,6.024055419921875,0.6160084764488041,-1.8845880041986702,0.2257490757986903
1725630149044008400,6.034008544921875,-0.04471767812669277,-2.8957191034197804,-0.3315384777426719
1725630149053961500,6.04396142578125,-0.801644883698225,-3.6824721229344606,-0.8119925285808741
1725630149063914500,6.05391455078125,-0.7866413758337497,-3.88400591814816,-0.7045034831121564
1725630149073867500,6.063867431640625,1.1148739438988269,-3.730517484179139,-0.5165072148635983
1725630149083820500,6.073820556640625,1.113162317675352,-2.870699228453636,-1.1923491055063902
1725630149093773600,6.083773681640625,0.950734352055937,-0.6399070923000574,-0.9619226855464279
1725630149103726600,6.0937265625,0.5636724322728812,0.417496513274312,-0.6853364258274436
1725630149113679600,6.1036796875,0.9435013320624828,0.1581260306417942,-0.3944078986316919
1725630149123633700,6.113633544921875,1.3954822987407445,-0.22221534871459006,-0.4712454929880798
1725630149133586700,6.123586669921875,1.6301286744832992,1.4591688812315464,-1.3993039028555154
1725630149143539500,6.13353955078125,0.7587649423927069,4.590801603850722,-2.006730282789469
1725630149153492500,6.143492431640625,-0.14438859719038008,5.898013498464226,-2.0118432418890295
1725630149163445500,6.153445556640625,-0.21287001274228096,6.51823447804153,-1.074135252405703
1725630149173398500,6.1633984375,-0.21483049916028976,7.780271013888716,-0.9866608209617436
1725630149183351600,6.1733515625,-0.9747299985408783,8.206088196262717,-1.918334644847363
1725630149193304600,6.1833046875,-1.3041884551391005,7.513553091102838,-2.3419549016989767
1725630149203257600,6.193257568359375,-1.4006826438628137,6.561082270643115,-2.523582657828927
1725630149213210600,6.203210693359375,-2.2403809254929423,5.473808427461981,-1.9845177203290163
1725630149223163600,6.21316357421875,-1.7432156860895454,3.5412983961373565,-1.1668234729751943
1725630149233116700,6.22311669921875,-0.44293505204394457,2.3973037178248164,-0.055056555180996655
1725630149243070700,6.23307080078125,-0.13706629147827623,2.813051341605186,0.38563802445977924
1725630149253023700,6.243023681640625,-0.056436026840656996,2.269068383055925,0.7797377339251339
1725630149262976800,6.252976806640625,0.8297599482007324,1.5497095683783293,1.3788954672075808
1725630149272929500,6.262929443359375,1.8871881036944687,1.5155600460171699,1.5314508581101893
1725630149282882600,6.272882568359375,0.41329029375612736,1.180384673076868,0.4987839266464114
1725630149292835600,6.282835693359375,-0.7575694489978253,-1.212505319958925,0.10494155294299125
1725630149302788600,6.29278857421875,0.5605718359090387,-2.8751895256102085,0.7063590478509664
1725630149312741600,6.30274169921875,0.39107393190339207,-2.7280554291039705,0.44632118735089893
1725630149322694700,6.312694580078125,-0.5642245131976902,-3.167160547596216,0.6131196231395006
1725630149332647700,6.322647705078125,0.6643214025884866,-3.962906436383724,1.36689070276767
1725630149342601500,6.3326015625,2.314981846838444,-4.69118096344471,2.310150188898295
1725630149352554500,6.342554443359375,2.748914092737436,-4.954845928400754,2.636081494283676
1725630149362507500,6.352507568359375,2.801666024237871,-5.308810757485031,2.7310844215363264
1725630149372460500,6.36246044921875,2.044877204223722,-4.595229941686988,2.0456946580864486
1725630149382413600,6.37241357421875,1.2624855947889386,-4.661158165624737,1.5133818251952529
1725630149392366600,6.38236669921875,0.20897826600074768,-3.410898576810956,0.6246528245449066
1725630149402319400,6.3923193359375,-0.07120996373295783,-2.579273565390706,1.3367052617318926
1725630149412272400,6.4022724609375,0.8685784852862357,-3.0784277866542338,2.7574609718084333
1725630149422225400,6.412225341796875,0.9415665646076202,-3.793170631968975,2.441831426337361
1725630149432178400,6.422178466796875,0.09271496244594454,-4.236609980273246,1.8855577260136602
1725630149442131500,6.43213134765625,-0.6383838282555341,-3.672230130383372,1.864872519250959
1725630149452084500,6.44208447265625,-1.2978683122068644,-2.099724792829156,1.0553501801759004
1725630149462038500,6.45203857421875,-1.713794799685478,-1.398616505113244,0.7498027605190872
1725630149471991600,6.461991455078125,-1.6071832677036524,-0.787892252677679,-0.10089037785604596
1725630149481944600,6.471944580078125,-2.021494721201062,-0.2881757213562727,-1.1948660567633806
1725630149491897600,6.481897705078125,-1.6158330226272344,1.3001175524383783,-0.6771969585135579
1725630149501850600,6.4918505859375,0.07562719565331935,2.761558470255136,0.4889161742351949
1725630149511803600,6.5018037109375,1.425801887550205,3.574312192466855,0.6043759063221514
1725630149521756700,6.511756591796875,0.007007832935452461,4.3492491019815205,-1.3173900281481443
1725630149531709400,6.52170947265625,-2.627250537574291,3.794412740984559,-3.8784564673274753
1725630149541662500,6.531662353515625,-2.651439806935191,2.8802415483027697,-3.8916698769047855
1725630149551615500,6.541615478515625,-1.0733850185602902,3.612102701678872,-3.2491005796581507
1725630149561568500,6.551568603515625,-0.5328022238433361,4.056470270743966,-2.921561108423769
1725630149571522600,6.5615224609375,-1.5750357328146696,3.35995690960288,-2.236770626041293
1725630149581475600,6.5714755859375,-1.61298333228454,2.098724091354012,-1.0507239816799758
1725630149591428600,6.5814287109375,-1.4332207855045795,1.6541320658832788,-0.32126433648765085
1725630149601381600,6.591381591796875,-1.3170178338348866,1.551578284859657,-0.20820377449691294
1725630149611334700,6.601334716796875,-0.6370334365598858,1.2108581372737883,0.23731501042991876
1725630149621287700,6.61128759765625,0.5369546673476696,0.7649544446825981,0.5116349326521158
1725630149631240700,6.62124072265625,0.647625119331479,0.6418319228827953,0.17148235582113264
1725630149641193700,6.63119384765625,1.507228855523467,0.5489858814030886,0.45727468917220826
1725630149651146800,6.641146728515625,2.105276873998344,0.6956009224712848,1.0278826197966933
1725630149661099500,6.651099609375,2.1998077998250722,0.062356210669875144,1.704007272903621
1725630149671052500,6.661052490234375,1.2125240246593951,-0.853510680013895,1.748945023521781
1725630149681006300,6.67100634765625,0.951976461071521,-2.183771441781521,1.4267393145307898
1725630149690959400,6.68095947265625,1.5715689334869385,-2.669799054968357,1.3986197199836372
1725630149700912400,6.690912353515625,1.4391526597715913,-2.7707804721087217,1.3981605780392885
1725630149710865400,6.700865478515625,1.666482575020939,-3.080240389034152,1.3121651331067083
1725630149720818400,6.710818359375,1.7020365573525427,-2.9471809951096772,1.3693439411386847
1725630149730771500,6.720771484375,1.8071417764246462,-2.9962790802776813,1.21467857234478
1725630149740724500,6.730724365234375,2.2558085039883853,-2.5996605198591944,0.9183364956676959
1725630149750677500,6.740677490234375,1.7169725529387592,-2.0221073001414536,0.29187223778665067
1725630149760630500,6.750630615234375,1.0476309841006994,-2.0520991183012725,0.3541469076529145
1725630149770583600,6.76058349609375,0.26423633510321376,-1.961736125808954,-0.12355243764966725
1725630149780536600,6.77053662109375,0.015650573596358297,-1.608369847139716,-0.3718377549052238
1725630149790490600,6.78049072265625,0.6294821443974972,-0.6845195564866066,-0.008789163394272327
1725630149800443600,6.790443603515625,1.4102756709858775,0.29181729272902013,0.6097966161966324
1725630149810396400,6.800396484375,1.3432342251092195,0.9370154771745204,1.7396747986122965
1725630149820349400,6.810349365234375,0.03451601758599281,0.8134118938595056,0.7650707645386458
1725630149830302500,6.820302490234375,0.4437701876938343,0.8995698358774185,-0.2226151616871357
1725630149840255500,6.83025537109375,1.0113792287632823,1.6163438947588205,-1.7295698764443397
1725630149850208500,6.84020849609375,-0.21521453004181385,1.3811930766254663,-2.254137648166716
1725630149860161500,6.85016162109375,-1.159073004978895,0.8502969786643981,-1.3080121050804854
1725630149870114600,6.860114501953125,-0.960045347367227,1.034393901386857,-0.14348171147853137
1725630149880067600,6.870067626953125,-0.5356278026580811,1.5465999119251965,0.3223231978908181
1725630149890020600,6.8800205078125,-1.558266384321451,1.8384376629203556,-0.14801614003777502
1725630149899975000,6.889974853515625,-1.832289953945577,1.5871236454933881,-0.23134119671732187
1725630149909928000,6.899927978515625,-0.7099670092150568,2.236059847423434,0.32149230002462864
1725630149919880700,6.909880615234375,-0.39325726729184385,3.1258611534804106,0.09696341367065905
1725630149929833700,6.919833740234375,-1.0214847354531287,2.7361194930940864,-0.1434030932843685
1725630149939786800,6.929786865234375,-0.724002841091156,0.791288324856758,-0.01895195322930813
1725630149949739800,6.93973974609375,0.025946342161297795,-0.5317255345225333,0.872953339369595
1725630149959692800,6.94969287109375,-0.0400368268340826,-0.22565467551350593,0.9852087224572896
1725630149969645800,6.959645751953125,0.07016746894270182,-0.2102571998953819,0.21232523834109304
1725630149979598800,6.969598876953125,0.7852247870340943,-0.5804477721154689,0.25384587399214503
1725630149989551900,6.9795517578125,0.47058922103643414,-0.19604688823521135,0.9239540432885288
1725630149999505000,6.9895048828125,0.08552958098649978,0.1219797815054655,1.247317690142989
1725630150009458700,6.999458740234375,0.7234864160016179,-0.06628945846557617,1.7054314604878424
1725630150019411700,7.00941162109375,0.10987053377777338,-0.5501128396064042,1.5851552680298686
1725630150029364700,7.01936474609375,-0.16295184336304663,-2.247123677751422,1.034585916827619
1725630150039317800,7.02931787109375,2.5401149826958775,-3.657438803964853,3.266951001386344
1725630150049270500,7.0392705078125,2.349692656344175,-2.185878643193841,3.6748724615857005
1725630150059223600,7.0492236328125,0.9990924325115978,-1.7933996667981147,0.7796592618614435
1725630150069176600,7.059176513671875,1.218019261074811,-1.6601251688182352,-1.8357789651051162
1725630150079129600,7.069129638671875,0.19110022561326623,-1.1188941393256187,-1.8670184452384708
1725630150089082600,7.07908251953125,0.3932939460404217,0.4916320090651512,-1.130697097583115
1725630150099035600,7.08903564453125,0.12319850964546203,1.8761469235897064,-1.4838362894982098
1725630150108988700,7.09898876953125,-2.2985423148214816,3.1022277644366025,-1.9482903687804936
1725630150118942700,7.108942626953125,-4.001262178263068,2.9810119530409573,-0.7502411519363522
1725630150128895700,7.118895751953125,-2.04067536861971,1.5609376493573188,0.12645605013668537
1725630150138848800,7.128848876953125,-0.471191863104701,0.995735961690545,0.18628157328516243
1725630150148801800,7.1388017578125,0.6030949266009032,0.9279799378037452,-0.019164426936209202
1725630150158754800,7.1487548828125,1.517199045395851,0.7130740353196859,-0.3245622089892626
1725630150168707800,7.158707763671875,2.029496679740399,0.8427753509879111,-0.7225092415325343
1725630150178660600,7.16866064453125,0.4406171304903924,1.6801450435400007,-1.2811280436776578
1725630150188613600,7.178613525390625,-1.1694921076625584,1.2007950084209442,-1.3216910863429308
1725630150198566700,7.188566650390625,-0.7272109894827008,0.6355407137840986,-0.5047995336741209
1725630150208519700,7.198519775390625,-0.43445290877223014,1.4691437472790478,-0.17384996173530817
1725630150218473700,7.2084736328125,-0.9920774391829967,1.7754606900036334,-0.013129092294722795
1725630150228426800,7.2184267578125,-0.15177169317901135,1.2660802582800388,0.6921187794439494
1725630150238379800,7.2283798828125,0.38148105091080065,0.5989899755001068,0.7774160129792987
1725630150248332800,7.238332763671875,0.6657067194670439,-0.5981739829421043,0.8790130777999758
1725630150258285800,7.248285888671875,1.0722985384978354,-1.343402567413449,0.3632657413929701
1725630150268238800,7.25823876953125,0.65935413556993,-1.091024720147252,-0.21285510743409394
1725630150278191900,7.26819189453125,0.6464910007350146,-0.8424632162988185,-0.6557680937767029
1725630150288145000,7.278144775390625,0.7824772418916225,-0.34796997258365153,-0.6291939751058817
1725630150298098000,7.288097900390625,0.5742588543474674,0.14886837295293806,-0.7387345462769269
1725630150308050700,7.29805078125,0.17527926388606427,-0.11899229012727737,-0.5600440126426518
1725630150318003700,7.308003662109375,0.36498175153061746,-1.1419640492677687,-0.6311186595581472
1725630150327957500,7.31795751953125,0.33231004663705827,-0.9454156412512064,-0.5774133728556334
1725630150337910500,7.32791064453125,0.15014832976087927,-0.7942325616151094,-0.16438173003569245
1725630150347863600,7.337863525390625,0.7290219844274223,-0.8704249899357557,0.14455650110319257
1725630150357816600,7.347816650390625,0.8625438812971115,-0.5485077424973249,-0.28381986423432826
1725630150367769600,7.35776953125,0.09248553760424255,-1.63706461122632,-0.2985872252553701
1725630150377722600,7.36772265625,1.0536626654803751,-1.7400591217547654,-0.17389920770451425
1725630150387675600,7.377675537109375,1.3609664272852242,-1.754744649711251,-0.11630202812999486
1725630150397628700,7.387628662109375,0.8657815480440855,-1.905062636950612,-0.446027318970859
1725630150407581700,7.397581787109375,1.1328957766711711,-2.0944564970374104,-0.29890184416249393
1725630150417535700,7.40753564453125,0.6679885467939078,-1.840097120565176,-0.2038113847568631
1725630150427488800,7.41748876953125,0.40857466341108084,-1.154943942350149,0.15997881890162824
1725630150437441800,7.42744189453125,1.042178563913703,-0.5193313323736191,0.0859083511710167
1725630150447394800,7.437394775390625,0.41648426749184725,-0.06034194823801517,-0.9591581892691552
1725630150457347600,7.44734765625,-0.4840742871619761,0.9693208329737186,-0.8539771284818649
1725630150467300600,7.457300537109375,-0.290158565736562,1.3622814554065465,0.16557006303742527
1725630150477253600,7.467253662109375,0.12929317325875161,2.598728791967034,1.4595336228907108
1725630150487206700,7.47720654296875,0.3306862448275089,2.7919635453909635,2.394947217826545
1725630150497159700,7.48715966796875,1.134261219805479,2.803676779538393,2.1831820975862444
1725630150507112700,7.49711279296875,2.375455897023529,3.617276304924488,1.105066397242248
1725630150517066800,7.507066650390625,1.9003356084287166,3.262973622187972,-0.9683671855106949
1725630150527019800,7.517019775390625,-0.43534503530636426,1.5645581779420374,-2.284965478759259
1725630150536972800,7.526972900390625,-1.527963600516319,-0.235859843185544,-1.866627546224743
1725630150546925800,7.53692578125,-1.3631442097157238,-0.5411421821653842,-1.052718224237114
1725630150556878800,7.54687890625,-1.3251933953754602,-0.03621171558797359,-0.23364450522363184
1725630150566831900,7.556831787109375,-0.04739990294799208,0.3008452333152294,0.23136399307101962
1725630150576785000,7.566784912109375,1.3855080172151326,1.3290835346817969,0.576872543977201
1725630150586737700,7.576737548828125,1.0518494785785675,2.07521052929759,0.6926430955789983
1725630150596690700,7.586690673828125,0.919542948848009,1.088935638913512,0.6434941570065915
1725630150606644700,7.596644775390625,0.414562797909975,-0.8215116136848926,-0.07929580116346478
1725630150616597800,7.60659765625,-0.3409878586113453,-2.5930980926036833,-0.756915661264211
1725630150626550800,7.61655078125,-0.2804769835472107,-3.033071810624003,-0.4913676590405404
1725630150636503800,7.62650390625,0.31618411061391233,-2.0261545297056434,0.18028496321886778
1725630150646456800,7.636456787109375,0.3705051911272108,-0.9265893602281808,0.4025609560795128
1725630150656409900,7.646409912109375,0.6781419842787086,-1.0594880106329918,0.526360500358045
1725630150666363000,7.65636279296875,0.6341415145106614,-0.9685340665102005,-0.15582973639816045
1725630150676316000,7.66631591796875,0.1315842068053782,-0.8814929119169711,-0.13844064857140181
1725630150686269000,7.67626904296875,-0.14356135258600114,-0.6333873351424932,0.16104060291424394
1725630150696222700,7.68622265625,0.1969996589154005,-0.5224029949039221,0.593772386982292
1725630150706175700,7.69617578125,-0.226792155110836,0.06578735416233539,0.015274433760344982
1725630150716128800,7.706128662109375,-0.6662078008569776,0.11303133589625358,-0.22921295251697302
1725630150726081800,7.716081787109375,-0.37494682683646674,0.14636895735263825,-0.3309945801243186
1725630150736034600,7.72603466796875,-1.1853294360026716,-0.31042846969664095,-0.8190536991387605
1725630150745987600,7.735987548828125,-1.8645161070287226,-0.6635831514418125,-1.0409951993480324
1725630150755940600,7.745940673828125,-0.7364841370016336,-0.5371528202682733,-0.24110738845020532
1725630150765893600,7.7558935546875,0.84875953996405,0.3912380364239216,-0.15441636246889828
1725630150775846700,7.7658466796875,1.4256985733062029,0.9529530510187149,0.07729892825782299
1725630150785800700,7.77580078125,0.8214525769740343,1.1902625084906815,-0.9206573398306965
1725630150795753700,7.785753662109375,-0.2558230192840099,0.7443956407785415,-2.0545278067529202
1725630150805706800,7.795706787109375,0.16655016011595725,0.8193640802621841,-1.934317080746591
1725630150815659800,7.80565966796875,-0.08063304111659526,1.8731752143025397,-1.872368866355717
1725630150825612800,7.81561279296875,-1.4322592469960451,1.9071973108917473,-2.262677805235982
1725630150835565800,7.82556591796875,-1.8621815266013144,1.1322533871144056,-1.6067127275824546
1725630150845518800,7.835518798828125,-1.2762936092585324,1.170600945687294,-0.4857683777287602
1725630150855471900,7.845471923828125,-1.0700815931007266,1.6486954277873038,-0.5760775942072272
1725630150865424600,7.855424560546875,-0.5017785784177482,2.0330460427850485,-0.29538287625610826
1725630150875379000,7.86537890625,0.1913821112945676,2.1507605680614708,-0.16167963147014378
1725630150885331700,7.875331787109375,-0.35792028871178627,2.0116279917031523,-0.41407150726169345
1725630150895284700,7.88528466796875,0.010552665935456753,0.9620043724805116,0.055851066559553145
1725630150905237800,7.89523779296875,1.079862982402742,0.42511809419393537,0.22931202897727487
1725630150915190800,7.905190673828125,1.4475415718019007,-0.8097510332643986,0.34759091013818977
1725630150925143800,7.915143798828125,1.8226354058936238,-1.6966829213649033,1.1642033536046743
1725630150935096600,7.9250966796875,1.6477239524066447,-2.196352106413245,1.2118486096158623
1725630150945049600,7.935049560546875,1.5042343498826025,-2.540531454542279,1.8268454248040913
1725630150955002600,7.945002685546875,1.890179832856357,-2.3059704189956185,2.3379624710619447
1725630150964955600,7.95495556640625,1.8653996118649838,-2.291273785123229,2.4651579413890836
1725630150974909400,7.964909423828125,1.9644576597273349,-2.105233911639452,2.5197902798086402
1725630150984862500,7.974862548828125,1.4297037172943352,-2.228889517402649,1.9334654323533176
1725630150994815500,7.9848154296875,1.5306275590285658,-2.655542566078901,1.4713018020957707
1725630151004768500,7.9947685546875,1.3811480684399604,-1.7132681454628704,1.3890107646390795
1725630151014721500,8.004721435546875,0.20274784717857836,-0.9613613984018564,0.4700158050626516
1725630151024674600,8.014674560546876,0.41982057230770586,-0.3064262483179569,0.28186346946954727
1725630151034627600,8.024627685546875,0.41167964368909593,0.9243430426061153,-0.4012929819703102
1725630151044580600,8.03458056640625,0.21451398055702448,1.6554682829231022,-1.012640334740281
1725630151054533600,8.04453369140625,0.2746107218623161,1.7151392000317573,-1.3773036679714918
1725630151064487700,8.05448779296875,0.666588470737636,1.246825522711873,-0.9677829558819532
1725630151074440700,8.064440673828125,0.7256000471547246,1.2174100431352852,-0.3713473410397768
1725630151084393500,8.0743935546875,0.2554141462221742,0.6582219166696072,-0.3410284828826785
1725630151094346500,8.084346435546875,0.21309008523374795,0.4896557405561208,-0.22185469870865343
1725630151104299500,8.094299560546874,0.7336711254075169,1.100105267703533,-0.18881196854561566
1725630151114252500,8.10425244140625,0.9045721742093562,1.8326216701179743,-0.48013709384351966
1725630151124205600,8.11420556640625,1.1252218810424208,1.614089978352189,-0.38305999066531654
1725630151134158600,8.12415869140625,0.37992958368510005,0.29378830054104327,-0.25647008501589297
1725630151144111600,8.134111572265626,0.1584738211661577,-1.3465309285670517,0.29828356613367796
1725630151154065700,8.144065673828125,-0.06323123993873596,-1.269513155338168,0.583383241045475
1725630151164018700,8.154018798828124,-0.34528117189109325,-1.0676958670079708,0.6048389937892555
1725630151173971700,8.1639716796875,0.568733661185205,-0.6891998232573271,0.6171680217474699
1725630151183924700,8.1739248046875,1.137060787396133,0.8321212705045938,0.41186201451867815
1725630151193877800,8.183877685546875,0.880172769229114,1.387687699341774,0.2505158527866006
1725630151203830800,8.193830810546874,0.4337479753732681,0.7781149550288915,-0.22000117979645728
1725630151213783600,8.203783447265625,0.25548224302232264,-1.1236673450767993,0.16438509103655813
1725630151223736600,8.213736572265624,0.41586861981153483,-0.850077198433876,0.39029900200814005
1725630151233689600,8.223689697265625,-0.5501582861833274,-0.20512743579149245,-0.47531829538494347
1725630151243643600,8.2336435546875,-0.2401325520686805,-0.5777355905473232,-0.8051639977350831
1725630151253596700,8.2435966796875,0.13957768977731466,-0.5576403125017881,-0.6445110789641738
1725630151263549400,8.253549560546874,-0.6138203187547624,-0.13658172283172607,-0.4642281615719199
1725630151273502500,8.26350244140625,0.5061791514642536,0.3498234914958477,0.1547594768181443
1725630151283455500,8.27345556640625,1.0772621522545813,0.6889701061546802,0.6181950267076491
1725630151293408500,8.283408447265625,1.1093882059641182,-0.10888649117648601,0.6003577567219733
1725630151303361500,8.293361572265624,0.4422966080099344,-0.7462514977782965,0.33202947613000866
1725630151313314600,8.303314453125,-0.6545299302838742,-1.6559399920880793,-0.10023089103400706
1725630151323267600,8.313267578125,-0.38398543494716286,-2.468463997197151,0.5578358350738882
1725630151333221600,8.3232216796875,-0.05461597180664539,-2.14363816883564,0.5989721475824713
1725630151343174700,8.333174560546874,-0.04186038899943232,-1.9570874232202766,-0.24469810641855
1725630151353127700,8.343127685546875,0.7590811687350273,-1.0636597433596848,-0.41259705079495906
1725630151363080400,8.35308056640625,1.2349597283512352,0.456792166352272,-0.06283288827091454
1725630151373033500,8.363033447265625,1.0505005481876433,1.0712222875684498,-0.15948825890570878
1725630151382986500,8.372986572265624,0.02040624369084835,1.1332803920745849,-1.0767433890774845
1725630151392939500,8.382939453125,-1.733884817034006,0.23169980089664458,-1.9047598546117543
1725630151402892500,8.392892578125,-1.0733670445121823,-0.3019552403837442,-1.4676263284534214
1725630151412845600,8.402845458984375,-0.6651981854230166,1.2689081751823426,-0.6828674053654075
1725630151422798600,8.412798583984374,-1.1669973682373762,1.9753999095022676,-0.1415977974280715
1725630151432752600,8.422752685546875,-1.0238216539680958,1.2003899347513913,-0.06870660260990262
1725630151442705700,8.43270556640625,-0.21380174063444135,-0.17343407441079617,0.06894903306365013
1725630151452658700,8.44265869140625,0.8031291309066116,0.35371114658415315,0.02817570864856243
1725630151462611700,8.45261181640625,-0.29802886072024704,1.0306108757168053,-0.45144992854148147
1725630151472564700,8.462564697265625,-0.5163917717903852,1.3385405143350362,0.0807277336627245
1725630151482517800,8.472517822265624,0.812927179082483,2.5427631591171025,0.45011590345874425
1725630151492470500,8.482470458984375,-0.14241685872599483,3.2021231399059293,-0.44828225829079743
1725630151502423600,8.492423583984374,-0.29871582007110115,2.8387136061280964,-1.3411917594961822
1725630151512376600,8.50237646484375,-1.124012797513604,1.4219108714610338,-1.7598896113842726
1725630151522330600,8.51233056640625,-0.4394903184175491,-0.44751931109428406,-1.1895002919465303
1725630151532283600,8.52228369140625,0.9627958151191472,-0.1819149025082588,-0.7245701195850968
1725630151542236700,8.532236572265624,0.3548626547068357,0.1832347529351711,-0.7517825361594558
1725630151552189700,8.542189697265625,0.12841492911949753,-0.8531178813040255,-0.6137561674773693
1725630151562142700,8.552142822265624,0.32094650271013375,-1.5008587359696626,0.11533712862059474
1725630151572095700,8.562095703125,0.9528281094647943,-1.4412819268852473,-0.13740706773996353
1725630151582048800,8.572048828125,-0.018787556447833774,-1.1276298189669847,0.49800066731423137
1725630151592001800,8.582001708984375,0.6488286499023437,-2.3396400488853453,0.15237608881294726
1725630151601954800,8.591954833984374,1.6655733512215316,-2.986238747778535,0.3146035634241998
1725630151611908600,8.60190869140625,2.4036194768428802,-3.304208134374022,-0.3566831481322646
1725630151621861600,8.611861572265624,1.7757454982943832,-1.360773388931155,-0.6244714766286313
1725630151631814700,8.621814697265625,0.852434575214982,-0.8331570432931185,-1.62416377472952
1725630151641767400,8.631767333984374,0.1176234859921038,-0.4604594566881656,-1.426902688398957
1725630151651720400,8.641720458984375,0.17287293339669704,-0.27555881636738777,-0.8666022167772054
1725630151661673500,8.651673583984374,-0.04216857816576958,-0.873984728243947,-0.7249800155602395
1725630151671626500,8.66162646484375,0.6623766982614994,-0.29554478881955143,-0.912151231161505
1725630151681579500,8.67157958984375,0.06637085313871502,1.2527438068449497,-0.936573432495445
1725630151691532500,8.681532470703125,0.10849252342283724,0.8338742516517639,-0.3551321192979812
1725630151701486600,8.691486572265624,0.9689017307788133,0.9793529821664094,0.10898805185481905
1725630151711439600,8.701439697265625,0.9032780427455902,1.6223516107410192,0.17363514994084833
1725630151721392600,8.711392578125,0.3667442311584949,1.33267717525959,0.3896411226212978
1725630151731345700,8.721345703125,0.2502444884993136,0.8339648525446652,0.6359945950314402
1725630151741298700,8.731298583984374,0.6870489288337528,0.7683142765045166,0.1561136679060757
1725630151751251700,8.741251708984375,-0.22512436802908778,1.194036181810498,-0.21053353261873126
1725630151761204700,8.751204833984374,-0.49872912771925326,0.841941822773218,-0.0743570295870304
1725630151771157500,8.761157470703125,-0.01080722521841526,0.8490268125981092,0.18796470406651497
1725630151781110500,8.771110595703124,-0.17471870739385484,1.3589075950592755,-0.3203904762625694
1725630151791063600,8.7810634765625,-0.6045933484651148,1.3858002781599759,-0.3944558294266462
1725630151801017600,8.791017578125,0.3118339525803923,1.3411013047337532,0.49172684774175285
1725630151810970600,8.800970703125,1.0076210452735423,2.0799486637353897,1.1801960186369715
1725630151820923600,8.810923583984374,0.6112551444418728,1.8942331999003885,1.2861200067460536
1725630151830876700,8.820876708984375,-0.1221357027195394,0.746472447052598,0.7442161925584078
1725630151840829700,8.83082958984375,-0.9117739222817123,-0.6920885304361581,0.3284405117273331
1725630151850782700,8.84078271484375,-0.7208921617247164,-1.5037439360171556,1.1257266156941652
1725630151860735700,8.85073583984375,0.19316227270960806,-0.863958424270153,1.5064958650738
1725630151870688800,8.860688720703125,0.5061912802934646,-0.39356384902298447,1.498999517969042
1725630151880641800,8.870641845703124,1.0337183402128518,-0.1893570352077484,1.2297110140427947
1725630151890595600,8.880595703125,0.07121230182051658,-0.443037781766057,0.8548184016115963
1725630151900549400,8.89054931640625,0.22696166645884513,-1.2480857519060373,0.600184007590264
1725630151910502400,8.90050244140625,-0.29324045739993454,-1.245913668563962,0.38045389982014893
1725630151920455400,8.910455322265625,-0.6298546309716999,-1.491682326823473,0.38972719346955415
1725630151930408400,8.920408447265626,-0.2507299339286983,-1.543846229302883,0.3459147936195135
1725630151940361200,8.930361328125,0.033382045120000835,-0.8987824848920106,0.3517953760907054
1725630151950314200,8.940314208984375,-0.13090133910775184,-0.2803583256036043,0.39373160680532454
1725630151960267300,8.950267333984375,0.004309679892659187,-0.005232639956474304,0.42174452610760926
1725630151970220300,8.96022021484375,0.17668284707367418,-0.27484102348685263,-0.16724223403334618
1725630151980173300,8.97017333984375,-0.35304186902046203,-0.39645372524559497,-0.34843525200784203
1725630151990127400,8.98012744140625,-1.3673258793145417,-0.10526362450420856,-0.756343852725625
1725630152000080400,8.990080322265625,-0.6510001487225294,-0.1303805301040411,-1.0861343177571892
1725630152010033400,9.000033447265626,-0.6211468622505665,0.6610545097470283,-1.0911115216478704
1725630152019986400,9.009986328125,-0.8609859843306243,1.3425082489222286,-0.9782461899682879
1725630152029939500,9.019939453125,-0.3834693021185696,1.4825655389100312,-1.4350672901540993
1725630152039892500,9.029892578125,-1.292916388887912,0.6781371619731188,-1.435372118319571
1725630152049845500,9.039845458984376,-0.2797660587988794,-0.03240472452044487,-1.1097653687134383
1725630152059798500,9.049798583984375,0.15708324359059334,0.6841343565613031,-0.9558142856687307
1725630152069751300,9.059751220703125,-0.7815897915326059,0.8903156853199005,-1.0654133090287445
1725630152079704300,9.069704345703125,-0.2652320681422949,0.90454645524621,-0.17613690362870693
1725630152089658400,9.079658447265626,0.005777998879551887,1.48040456148386,-0.06656126114428043
1725630152099611400,9.089611328125,-0.3100460462503135,1.5306073930233717,-0.4338756934061646
1725630152109564400,9.099564453125,-0.5612570416942239,1.1851923656195402,-0.4298068365320563
1725630152119517400,9.109517333984375,0.3941735053539276,0.4161673104971647,0.2509688572511077
1725630152129470500,9.119470458984376,0.7598195660121738,0.45805298006832595,0.4245832566648721
1725630152139423500,9.129423583984375,0.030859833166003225,0.43110126025676726,0.17481442285329102
1725630152149376500,9.13937646484375,0.31910949654132126,0.23436872784495352,0.30214024156183
1725630152159329500,9.14932958984375,0.3032255525805056,0.40101358050704,0.042428105884790415
1725630152169282600,9.159282470703126,0.28735476036220786,0.8021440653920173,-0.13578355819135904
1725630152179236400,9.169236328125,0.6802297503381967,0.9753706345319747,0.221025554408133
1725630152189189400,9.179189453125,1.088908166384697,0.1752279720902443,0.3089388156607747
1725630152199142400,9.189142333984375,1.2829054286137223,-0.2945025862902403,0.9753557292237878
1725630152209095400,9.199095458984376,0.749253017681837,-0.7665607108354568,0.7956351218894123
1725630152219048200,9.209048095703125,0.9189055277273058,-1.5509546000033616,0.6931304407045245
1725630152229001200,9.219001220703126,1.3415858733803032,-1.56865626091063,0.8709618732914328
1725630152238954200,9.228954345703125,1.0129910478740929,-1.1795493912965058,0.6454311164185405
1725630152248907300,9.2389072265625,1.471307062792778,-0.6293097104400396,0.9255594326585531
1725630152258860300,9.2488603515625,1.3159621873021126,-1.5667290922403334,0.9502107665732502
1725630152268813300,9.258813232421875,1.6204527913823723,-0.8111924642443656,1.3170800854161382
1725630152278767400,9.268767333984375,1.217483108371496,-1.2243553322285412,0.8471221480205655
1725630152288720400,9.278720458984376,0.6883712634786963,-1.882434625557065,0.6839309429436922
1725630152298673400,9.28867333984375,0.6966577380478381,-1.9043635487705468,0.6300318872347473
1725630152308626400,9.29862646484375,0.6045177990108728,-1.1034966637074948,0.5397311463236808
1725630152318579500,9.308579345703125,0.9096475777775048,-0.14124562298953533,0.2572512985214591
1725630152328532500,9.318532470703126,1.1568161659628151,0.16916063487529753,0.10097878679186105
1725630152338485500,9.328485595703125,0.9615086979180574,-0.5008867441445589,0.4101955426111817
1725630152348438300,9.338438232421876,0.5760737948149443,-1.0473509981155396,0.7182648819610477
1725630152358391300,9.348391357421875,0.1478019127652049,-0.779792532852292,0.2884703203886747
1725630152368345300,9.358345458984376,0.17825287286937236,-0.9016279374510049,0.17823007651567457
1725630152378298400,9.36829833984375,0.24226561857461928,-0.6008335575401783,0.17491992905437945
1725630152388251400,9.37825146484375,-0.20231033254414796,0.28210078535676003,-0.40383097601532936
1725630152398204400,9.388204345703125,0.22941315126419065,1.0430185218691825,-0.4751821017846465
1725630152408157400,9.398157470703126,-0.09553834930360317,1.1957798106074333,-0.304134045727551
1725630152418110500,9.4081103515625,-0.2562307233020663,-0.2977478518217802,0.07274521047621965
1725630152428063500,9.4180634765625,0.3247352274686098,-0.6723492262214422,0.40866380299925803
1725630152438016500,9.4280166015625,-0.08621756325066089,-0.10477671777009963,-0.16633564058244227
1725630152447969500,9.437969482421876,0.03321618703380227,-0.2825362541645765,-0.5580129452064633
1725630152457922600,9.447922607421875,0.5439620618917048,0.20325287409126758,-0.5751172247424722
1725630152467876400,9.45787646484375,-0.1800590455085039,1.0656447796970605,-0.41672932829409837
1725630152477829400,9.467829345703125,-0.6299640826955437,1.3991817377805709,-0.43381519539058205
1725630152487782400,9.477782470703126,-0.3848188170313835,0.7817834144085645,-0.10306319185048342
1725630152497735200,9.487735107421875,0.520161353456974,0.69130176397264,0.15928075363487004
1725630152507688200,9.497688232421876,-0.24866671778857707,1.1876456039905547,-0.33799773688465357
1725630152517641200,9.50764111328125,-0.9107949942469596,0.7998200063586235,-0.5475403587698936
1725630152527594200,9.51759423828125,-0.31433073783218857,0.792918556407094,-0.005484276629984379
1725630152537547300,9.52754736328125,-0.44263197744414207,1.2036311086297034,-0.28694559503942724
1725630152547500300,9.537500244140626,-0.5012123228371143,0.6847171248853207,-0.47425095841437576
1725630152557453300,9.547453369140625,-0.4344990860015154,0.008685410758852959,-0.20154022495448587
1725630152567407400,9.557407470703126,-0.22064590744078158,-0.8875222552090882,0.2755623234987259
1725630152577360400,9.5673603515625,0.10827230480089783,-0.8540846805095672,0.5111725758373737
1725630152587313400,9.5773134765625,-0.4351034816354513,-0.4383195210725069,0.18435148200541734
1725630152597266400,9.587266357421875,0.3818227039553225,-0.6450789419800043,-0.13047434586733578
1725630152607219500,9.597219482421876,-0.21545199205949903,-0.24836218188405035,-0.26133886009603735
1725630152617172500,9.60717236328125,-0.8571458216458558,-0.3581961830437183,-0.39505964053869247
1725630152627125200,9.617125244140626,-0.49738297380730506,-0.5382739332526922,-0.12883242387920618
1725630152637078300,9.627078369140625,-0.4650222345590591,-0.44289106677174567,0.4527949134096503
1725630152647031300,9.63703125,0.1030124845765531,0.014266425761580466,0.2632017313584685
1725630152656984300,9.646984375,-0.6783855837762356,0.5052285727411508,-0.060737085035443304
1725630152666938400,9.6569384765625,-0.8640671453416346,0.41987376379966734,0.2045268395498395
1725630152676891400,9.666891357421875,0.05685688260123133,0.8641536545813083,0.21581804889291523
1725630152686844400,9.676844482421876,-0.08400339433252811,1.4475912561625242,-0.05367869095653295
1725630152696797400,9.68679736328125,0.2573456988066435,1.57475516230762,0.1294698449999094
1725630152706750500,9.69675048828125,0.1367554719634354,1.369732940456271,0.2230108830064535
1725630152716703500,9.706703369140625,0.2142927390217781,0.38864334375560283,-0.17261501311287283
1725630152726656500,9.716656494140626,-0.21508988074883817,0.3155564802348614,0.07780322451815008
1725630152736609500,9.726609619140625,-0.7250503043174743,-0.22119477349519728,0.039418256544321774
1725630152746562600,9.7365625,-0.24262027723118662,-0.4582891269117593,0.38199616082608695
1725630152756515300,9.746515380859375,0.6484675615049899,0.7599597051352263,0.8443670040935277
1725630152766469400,9.756469482421876,0.864292186269164,0.9740905315935611,0.19421864989474413
1725630152776422100,9.766422119140625,0.5262479798942804,1.0944739838182926,0.09975494408532977
1725630152786375200,9.776375244140626,0.5464971333272755,0.6146008016079664,-0.08034194921553134
1725630152796328200,9.786328125,-0.29851284484490753,-0.02205050376653671,-0.5147103945747018
1725630152806281200,9.79628125,-0.7514806306034326,-0.34769992347061635,-0.2982645691722631
1725630152816234200,9.806234130859375,0.3736826521195471,-0.36972470827400683,0.2851042049564421
1725630152826187300,9.816187255859376,1.27550114370659,0.3124006465524435,0.12894172947257757
1725630152836140300,9.826140380859375,0.6653266341082751,0.4588122740030288,0.11954159457311034
1725630152846093300,9.83609326171875,1.1876127246342598,0.11110475174784659,0.5264800350844859
1725630152856047400,9.84604736328125,0.6234956173337995,-0.9724182144671678,0.36037674195319414
1725630152866000400,9.85600048828125,0.2628080558657646,-1.971229345819354,0.603960895780474
1725630152875953400,9.865953369140625,0.7928210873819888,-2.377028991559148,0.0057584173962473865
1725630152885906400,9.875906494140626,0.42802082989811896,-1.8323557126581669,-0.2724193492978811
1725630152895859500,9.885859375,0.521625288529694,-1.5627783087879419,-0.4130997396200895
1725630152905812200,9.895812255859376,0.47677755428254603,-1.2399001073628664,-0.19795184507369995
1725630152915765200,9.90576513671875,0.8747545435726642,-0.7011293305039406,-0.11032105402424931
1725630152925718300,9.91571826171875,0.5747944225288927,-0.3901023103922605,-0.25888196846321226
1725630152935671300,9.92567138671875,0.32914076895117755,-0.9115624714881181,-0.5872988070540129
1725630152945624300,9.935624267578126,0.382245021020621,-0.5772925229549407,-0.5908420326188206
1725630152955578400,9.945578369140625,-0.10360372846797108,0.2123661548733711,-0.6161515381813049
1725630152965531400,9.955531494140626,-0.17065876447856426,-0.0716430944532156,-0.2102240282781422
1725630152975484400,9.965484375,0.3574813127726316,0.0844920546323061,-0.04742737547680735
1725630152985437400,9.9754375,0.5707751038849354,1.0106196425676346,-0.2162815747514367
1725630152995390500,9.985390380859375,0.6372627152711152,1.2085054366677999,-0.2524136492319405
1725630153005343500,9.995343505859376,0.2565630239963531,0.8277695050358772,-0.19638050410375
1725630153015296500,10.005296630859375,-0.09069631609991193,0.09260521846115588,-0.4236325318112969
1725630153025249500,10.01524951171875,-0.6329127033680677,0.05133271235227584,-0.6535919187813997
1725630153035202300,10.025202392578125,-0.8139706967860459,-0.011152093133330345,-0.4130889259651303
1725630153045155300,10.0351552734375,-0.3579781563788652,0.16613631861805914,-0.10579495490193366
1725630153055109400,10.045109375,-0.6680639501176774,1.3183902912318706,-0.14526070384979248
1725630153065062400,10.0550625,-0.8277155828915536,1.548400823867321,-0.15974807888567447
1725630153075015400,10.065015380859375,-0.17357611322999,1.761360268458724,0.3082300828695297
1725630153084968400,10.074968505859376,-0.0009708908587694168,2.410490531656146,-0.09719839147031306
1725630153094921500,10.08492138671875,-0.9564631049662828,2.523505500939488,-0.8853297136008739
1725630153104874500,10.09487451171875,-1.6110083789497613,1.6173393355369567,-1.007174178288877
1725630153114827500,10.10482763671875,-1.0695486552678048,1.148054767358303,-0.16372487356215715
1725630153124780500,10.114780517578126,-0.2354062541991472,1.9957249046504497,0.06820785930752754
1725630153134733300,10.1247333984375,-0.4083867396235466,1.7922820609450338,-0.23420798432528972
1725630153144686300,10.134686279296876,-0.3889531403571367,0.8508826695978641,-0.3956944313108921
1725630153154640400,10.144640380859375,-1.0636484913133084,-0.40654958732426166,-0.4315051648825407
1725630153164593400,10.154593505859374,-0.8522785078704357,-1.8728011202931403,-0.4292462800398469
1725630153174546400,10.16454638671875,-0.3918978155069053,-2.366447976312041,0.014536474874615669
1725630153184499200,10.174499267578126,-0.17010113059580326,-2.2370523655921217,0.3525432718485594
1725630153194452200,10.1844521484375,0.607316051427275,-1.8115917415708302,0.7549123586177825
1725630153204405200,10.1944052734375,0.20348302958533165,-0.1559217985957861,1.2523305498689412
1725630153214358300,10.204358154296875,0.3038948301441967,0.7517167774468659,1.3300731302410362
1725630153224311300,10.214311279296876,0.23764088138341902,0.41140404161810873,0.8271452356576919
1725630153234264300,10.224264404296875,-0.33937092493399973,-1.134980766251683,-0.19568653049021958
1725630153244217300,10.23421728515625,-0.3123250970982015,-1.8450795851528643,-0.4225494127497077
1725630153254171400,10.24417138671875,-0.9013513124667107,-1.130055584809184,-0.052370530967414376
1725630153264124400,10.25412451171875,-1.2388209338240326,-0.6238578747749328,0.17983663492947816
1725630153274077400,10.264077392578125,-1.2444497334912419,-0.2749561742991209,-0.2534749948531389
1725630153284030500,10.274030517578124,-1.331691086831689,0.21033084965348242,-0.37140988488197324
1725630153293983500,10.2839833984375,-0.6372019249945878,0.7089198382496833,-0.4103843431815505
1725630153303936500,10.2939365234375,-0.2854226232558489,1.0860405019938946,-0.48219198054671286
1725630153313889300,10.30388916015625,0.08259235849082469,0.8550912272036075,-0.5477706603944301
1725630153323842300,10.31384228515625,-0.23351883301734924,0.468334720107913,-0.7649500607684254
1725630153333795300,10.32379541015625,-0.41394378922879693,-0.08924187950789927,-0.716966074322164
1725630153343748400,10.333748291015626,0.034760347735881804,0.02921148143708706,0.10998977624326944
1725630153353702400,10.343702392578125,0.014492927993834018,0.6468365993022919,0.6840984084650874
1725630153363655400,10.353655517578124,0.5843526705995201,0.6790992850035429,0.9076546503946185
1725630153373608400,10.3636083984375,0.8972872778981924,0.2278904717415571,1.2613856707230209
1725630153383561500,10.3735615234375,1.234675066190958,0.01736146916747093,1.469958570793271
1725630153393514500,10.383514404296875,0.282458805014193,0.08607903156280516,0.9548977553457021
1725630153403467500,10.393467529296874,-0.03248363497555256,0.39886780065000055,1.2063526425480842
1725630153413420500,10.403420654296875,0.2730538478091359,0.8304641509473323,0.8677844122990965
1725630153423373600,10.41337353515625,-0.4001820981189608,1.1286574084490537,0.6042138476282358
1725630153433326600,10.42332666015625,-0.3415545525833964,1.9016133732795715,0.4919871061131358
1725630153443279400,10.433279296875,0.8972340864062309,2.433566286817193,0.3281748465284705
1725630153453233400,10.4432333984375,1.4071359116554258,2.0078665933430195,0.147589146797359
1725630153463186200,10.453186279296874,0.4470999166384339,1.1328192043036223,-0.512369384406507
1725630153473139200,10.46313916015625,0.05207593193501234,-0.3686883509635925,-0.29609891557097434
1725630153483092200,10.47309228515625,1.073258469571173,-0.4023761010318994,1.0100886044308544
1725630153493045200,10.483045166015625,0.8290329491004347,-0.3643190498381853,1.367275025910139
1725630153502998300,10.492998291015626,0.500024866618216,-0.916793942400813,1.2787646755471824
1725630153512951300,10.502951416015625,1.2272159823566675,-0.7877268329828977,1.573354647859931
1725630153522904300,10.512904296875,1.3866606943815947,-0.54724868234694,1.8238102948918937
1725630153532857300,10.522857421875,1.6153011077076196,-1.4203729943692682,2.2501325041785836
1725630153542810400,10.532810302734376,1.5420768815428019,-0.7718722612470388,2.0720637557044626
1725630153552764400,10.542764404296875,1.254710723003745,-1.6788479894667863,1.80478498416543
1725630153562717400,10.552717529296874,1.8863181889921425,-1.21646896289289,1.546925198356807
1725630153572670500,10.56267041015625,1.3839847531706093,-0.10197685791850089,1.023065574903786
1725630153582623500,10.57262353515625,0.7402864518940449,0.37763504300713535,0.25885288849920035
1725630153592576300,10.582576171875,0.1808285685762763,-0.0027086744368076325,0.019807401014864445
1725630153602529300,10.592529296875,-0.13675707939863205,-0.515888498443365,0.30541853258013724
1725630153612482300,10.602482421875,0.11821049209982155,-0.4403559953361749,-0.19290157594680785
1725630153622435300,10.612435302734376,-0.32040976548492905,-0.13768939181268214,-0.5193342549830675
1725630153632388400,10.622388427734375,-0.16406535756289958,-0.1395779820382595,-0.5692959712430834
1725630153642341400,10.63234130859375,-0.4521326501086354,-0.15009002370238303,-0.8231830540284514
1725630153652295400,10.64229541015625,-0.14484189391583202,0.09251111043691634,-0.6521320753619074
1725630153662248400,10.65224853515625,0.7334703421384096,0.4281161069661379,-0.22205665102154015
1725630153672201500,10.662201416015625,0.8539759594380855,-0.22913433432281016,-0.11790274132490157
1725630153682154500,10.672154541015624,1.2759504949092864,-0.6587684446364641,0.2825809700891375
1725630153692107500,10.682107421875,0.41168227403759955,-0.4036801693677902,-0.06312222660630941
1725630153702060500,10.692060546875,0.30983634902238844,-1.0531792658776045,-0.2656526316419244
1725630153712013600,10.702013671875,0.45119259277954693,-1.2052683544427156,0.18534575373977422
1725630153721966300,10.71196630859375,-0.7652662871107458,-0.755530782777071,-0.5449167322680354
1725630153731919400,10.72191943359375,-0.13035598018467426,0.21731296362578867,-1.0361758163675665
1725630153741872400,10.731872314453126,1.8121806473746895,2.0007062001943585,-1.0155991845458745
1725630153751826200,10.741826171875,1.0867758305311201,2.728928704807162,-1.5707742759779095
1725630153761779200,10.751779296875,-0.511949697689712,2.3097522756218907,-2.1845994170382617
1725630153771732200,10.761732177734375,-1.3724141423642635,1.2272095526158808,-1.9037974393203854
1725630153781685200,10.771685302734374,-0.6300315949738026,0.7532166606158017,-0.8544178579866886
1725630153791638300,10.78163818359375,-1.130393438461423,0.7530915729314088,-0.6119143390029669
1725630153801591300,10.79159130859375,-0.9217313988029956,-0.7033300554186105,-0.9499778346002101
1725630153811544300,10.80154443359375,0.22317031135186552,-1.7288520835638046,-0.7528305839076638
1725630153821497300,10.811497314453124,0.6377560517460107,-1.4104057271063326,-0.32563217630833385
1725630153831450400,10.821450439453125,0.6755202574729919,-0.28018647616803644,-0.36871699253618717
1725630153841403400,10.8314033203125,0.443779101652652,0.10052665911018847,-0.920043007324636
1725630153851357400,10.841357421875,0.11957637362554668,-0.02933423103392124,-0.9393117714181541
1725630153861310500,10.851310546875,0.03454246720150113,0.1973784290999174,-1.14616763843745
1725630153871263200,10.86126318359375,-0.8604623988479375,0.26314064882099625,-1.3020096497952938
1725630153881216300,10.87121630859375,-0.5981790975086391,-0.20535306124091146,-1.2729241328254342
1725630153891169300,10.881169189453125,-0.4581985260188579,-0.25149171208143234,-0.8813464891836047
1725630153901121800,10.891121826171876,0.1025602107644081,-0.3437660911530256,-0.8695232187904417
1725630153911074800,10.90107470703125,0.10467208835184573,-0.3889981485426426,-0.7164896889820694
1725630153921027800,10.91102783203125,0.1862671063683927,-0.4572165292441845,-0.23849822886511682
1725630153930980900,10.92098095703125,0.8998854776978492,-0.2402297288328409,-0.22705986613631246
1725630153940935000,10.930934814453124,0.3058483022995293,-0.2453717678964138,-0.550962880564481
1725630153950888000,10.940887939453125,0.1844942514769733,-0.3053291007310152,-0.10694295589327811
1725630153960841000,10.950841064453124,0.12304726460650563,-0.5153939929246902,-0.14492840315550565
1725630153970794000,10.9607939453125,-0.06098433779478073,-1.0329173990935088,-0.378708955848962
1725630153980747000,10.9707470703125,0.34575331944748755,-0.7407271813988685,-0.018404694610089062
1725630153990700000,10.980699951171875,0.04455050486624241,-0.15552783084213734,-0.2714269772596657
1725630154000653000,10.990653076171874,-0.08691372882127761,-0.3723480425149202,-0.6572809825576842
1725630154010605800,11.000605712890625,-0.33353461999595163,-0.296079041826725,-0.3340044294647872
1725630154020558800,11.010558837890626,-0.5400532178848981,-0.5587888980150223,-0.6978614147491753
1725630154030511900,11.020511962890625,0.04364902598187327,-0.16135609860420225,-0.16687003972008824
1725630154040466000,11.0304658203125,1.0503512028448283,0.9310065921485423,0.42417350682020183
1725630154050419000,11.0404189453125,1.342432407207042,1.0002572385072708,0.12169643451943993
1725630154060372000,11.0503720703125,0.1347558225788176,0.1415478208065033,-1.0423705793544649
1725630154070325000,11.060324951171875,-0.09994023752436042,-1.1135825889140367,-1.2424069756172598
1725630154080278000,11.070278076171874,1.2031326575882733,-0.34542496427595615,-0.010549012673646212
1725630154090231000,11.08023095703125,1.2907961818635463,0.789895409193635,0.367843570702523
1725630154100184000,11.09018408203125,0.982352748504281,0.31315351074635983,-0.07234934302642941
1725630154110137000,11.10013720703125,0.1265466510295868,-0.9379179789721965,-0.605951631206274
1725630154120090000,11.110090087890624,0.21094752024710178,-1.516650763863325,-0.21611396309956907
1725630154130043000,11.12004296875,0.5980109013348818,-1.2216092483907937,-0.26959011722132564
1725630154139997000,11.129996826171874,0.37631168544888494,-0.8587433199703692,-0.23633272139430045
1725630154149950000,11.139949951171875,0.34657471883296964,-1.2015478726148605,-0.35590032719150183
1725630154159902700,11.14990283203125,0.4413726250328123,-0.7876707188814878,-0.1672572854720056
1725630154169855700,11.159855712890625,1.1278145278841256,0.14683423677682875,0.1767833848387003
1725630154179808800,11.169808837890624,1.089521914368868,0.39526305415630336,0.14751447412595153
1725630154189761800,11.17976171875,0.19751579174399375,-0.5432599049717187,-0.3422011799238622
1725630154199714800,11.18971484375,-0.5613911894679069,-0.9565040214985608,-0.8437889119446277
1725630154209667800,11.199667724609375,-1.1026578747957945,-0.4814303485244512,-0.4688419389776885
1725630154219620900,11.209620849609376,-0.49322921512871976,-0.5534387691587209,0.05533215725198388
1725630154229574000,11.219573974609375,0.5843238828964531,1.0715127949476242,0.06361994699537754
1725630154239527000,11.22952685546875,0.9366548271685838,2.3668127179712055,0.40609994386062026
1725630154249481000,11.23948095703125,1.1817919095262885,2.33196586099565,0.7398264331668615
1725630154259434000,11.24943408203125,0.25152692952528594,1.3446855929613113,0.5444879854619503
1725630154269387000,11.259386962890625,-0.40436932067573067,-0.9612339726299047,0.7762354248926043
1725630154279340000,11.269340087890624,0.7877486064232886,-1.4404600891083479,1.4392682489752768
1725630154289292800,11.279292724609375,0.7100234155774117,-0.39005262603163715,1.2059645200133322
1725630154299245800,11.289245849609374,-0.11484802992939948,-1.277410046067834,0.21344868941307066
1725630154309198800,11.29919873046875,-0.9541671029835939,-1.7911773145735264,-0.7246405544728041
1725630154319151900,11.30915185546875,-2.40927063447237,-2.214500342044234,-0.9923477805569767
1725630154329105000,11.31910498046875,-0.9375865550607442,-2.144454161393642,-0.3226657277181744
1725630154339059000,11.329058837890624,0.5497697252571583,0.8054612271159887,0.008957797959446907
1725630154349012000,11.339011962890625,0.31068098315298553,2.6996839056223627,-0.0159206227093935
1725630154358965000,11.348965087890624,1.150684531340003,3.2057781552821396,-0.1706754233524203
1725630154368918000,11.35891796875,0.8663350902736187,4.145487693846225,-1.0232803866982458
1725630154378871000,11.36887109375,-0.08543196583092212,4.105543805992603,-1.1412032940283416
1725630154388824000,11.378823974609375,-0.9030904112190008,3.1890228353142738,-0.9293146935388445
1725630154398777000,11.388777099609374,-1.776099572429061,2.2195038494199513,-0.500463258035481
1725630154408729900,11.398729736328125,-0.8874018436998128,1.1174047775506972,-0.39393560494482516
1725630154418683000,11.408682861328124,-0.8451438336849212,1.308493751117587,-0.39569033965766426
1725630154428636000,11.418635986328125,-0.9634813131652772,0.7319909172356128,-0.3868149592846632
1725630154438589700,11.428589599609374,-0.3189966838166117,0.7932423815339803,0.2241314114689827
1725630154448542700,11.438542724609375,0.9657797993659972,1.1526795045495033,0.3862386207014322
1725630154458495700,11.448495849609374,0.8783455538019538,2.147355143532157,0.49994391033649443
1725630154468448800,11.45844873046875,0.31718685791566964,1.8897849883198736,0.7095353397995233
1725630154478401800,11.46840185546875,0.15608575698584318,1.400440213409066,0.7167033317327499
1725630154488354800,11.478354736328125,-0.13474310922771693,0.7300128951609134,0.6740472623109817
1725630154498307800,11.488307861328124,-0.564662173962593,0.6306938582748174,0.6012734102621674
1725630154508260900,11.4982607421875,0.04825578912496566,0.6423842960685491,0.356529418875277
1725630154518214000,11.5082138671875,0.5811997595265508,1.741376634094119,0.15586422318965196
1725630154528167000,11.5181669921875,0.026660627910494804,2.4863036052703857,0.09398410559892655
1725630154538121000,11.528120849609374,0.15343933413028715,2.2415146056979895,0.22238135293126104
1725630154548074000,11.538073974609375,0.8155307857096195,2.49008137024343,0.06277268251627684
1725630154558027000,11.548027099609374,-0.8868339806839823,1.860281830459833,-0.21813304783701895
1725630154567979800,11.557979736328125,-0.833255681362003,0.055149055770039555,-0.22864538176208732
1725630154577932800,11.567932861328124,0.2748212958730757,-0.8439677756428718,0.469352957239747
1725630154587885800,11.5778857421875,0.7097860996901989,-0.9439829780995845,0.8089452698394656
1725630154597838800,11.5878388671875,0.05162234294861555,-1.6392799491882324,1.1436492258757351
1725630154607791900,11.5977919921875,1.2144313195854424,-2.701991013520956,1.5052511257097123
1725630154617745000,11.607744873046874,2.1899127210155127,-3.2901778554558754,2.1625939214572307
1725630154627698000,11.617697998046875,1.7114298241198063,-4.036827412641048,2.0037053820103408
1725630154637652000,11.62765185546875,1.7808517353922129,-4.861815762525796,1.9600065255373715
1725630154647605000,11.63760498046875,2.6430197691142556,-4.802380992260575,2.200975674560666
1725630154657558000,11.64755810546875,2.378424975962192,-3.780338622924685,1.8287135567635298
1725630154667511000,11.657510986328125,1.659641915345937,-2.3655501506894825,0.9799708218038081
1725630154677464000,11.667464111328124,1.369065416458249,-0.5811521209925413,0.732661948364973
1725630154687416800,11.677416748046875,0.9627679041989147,0.4931745623320341,0.46095776159912344
1725630154697369900,11.687369873046874,0.08350260520353912,0.29214228689968585,-0.058686582246422765
1725630154707323000,11.697322998046875,-0.437843720254302,-0.10807868192493915,-0.3793020994365215
1725630154717276000,11.70727587890625,-1.2965145595103502,0.026136896297335625,-0.8393351474061608
1725630154727229000,11.71722900390625,-1.4941834959894418,0.2159223860502243,-1.0406745890915394
1725630154737183000,11.727182861328124,-0.09992810869514941,1.6553239060163496,-0.9745318456202745
1725630154747136000,11.737135986328125,-0.20865151826441286,2.9611458075761794,-1.1889090480551123
1725630154757089000,11.747089111328124,-0.552325254958868,3.184454796746373,-1.5360437388584016
1725630154767042000,11.7570419921875,-0.8773040819250046,2.696315305972099,-1.4853049007460475
1725630154776994800,11.766994873046874,-0.8061305046796798,1.395675190964341,-0.9329352221235633
1725630154786947800,11.77694775390625,-0.002090250277519226,0.9759797063410282,-0.49087914487123485
1725630154796900900,11.78690087890625,-0.036774464037269354,0.5706687209010124,-0.705356592810154
1725630154806854000,11.79685400390625,0.5968231528550386,0.33600013332664963,-0.2664735926359892
1725630154816807000,11.806806884765624,0.9261328486323356,0.30356676723361015,-0.15541384907364844
1725630154826761000,11.816760986328125,0.02706424027532339,0.5740373205512762,0.06374065076559782
1725630154836713700,11.826713623046874,0.12280687997937202,0.951363736000657,0.6605325316995382
1725630154846666800,11.836666748046875,0.9647983871132135,1.359007548302412,0.5848129815876484
1725630154856619800,11.846619873046874,0.8511176473975182,0.8271522499203682,0.14708733475506305
1725630154866572800,11.85657275390625,0.018675766636431217,-0.06990940252840519,-0.07093377714008092
1725630154876525800,11.86652587890625,-0.3509989650160074,-1.3187258067965506,-0.06843260797411203
1725630154886478800,11.876478759765625,0.5973796176940203,-1.7434873426377773,0.29584932472407816
1725630154896431900,11.886431884765624,0.7643544329628348,-0.8683481836616992,0.5071782455042004
1725630154906385000,11.896385009765625,0.9236230577684938,-0.803964851078391,0.47869507834166286
1725630154916338000,11.906337890625,1.396281632424891,-1.5183885474413632,0.6403399307593702
1725630154926291000,11.916291015625,0.8495335930764675,-2.7936206649482247,0.798133076184988
1725630154936245000,11.926244873046874,-0.5304539071515202,-4.113165971434116,0.7563707407325506
1725630154946198000,11.936197998046875,1.2603139498382807,-4.796702946624159,1.8488301698580383
1725630154956151000,11.946151123046874,2.146170317661762,-3.5021851138889786,2.3629341229721903
1725630154966103800,11.956103759765625,0.09533844281733035,-2.1542980945378543,0.7475742708146572
1725630154976056800,11.966056884765624,0.41365737350285053,-1.2521861729621886,-0.13268851478546856
1725630154986009900,11.976009765625,0.5231634578824043,1.274086454603076,-0.052929626154899594
1725630154995963000,11.985962890625,0.6103811380863189,3.5417268506824966,-0.07438274855017661
1725630155005916000,11.995916015625,-0.057770344184339045,4.903160164827108,-0.8135518868520856
1725630155015869000,12.005868896484374,-2.588103937578201,4.095878152024746,-2.35142722505182
1725630155025823000,12.015822998046875,-2.7972578524067995,2.2464941476762292,-2.192381741477549
1725630155035776000,12.02577587890625,-0.44176089369803667,2.248071187734604,-0.9205474497154355
1725630155045729000,12.03572900390625,0.26665771703124047,2.66863760997355,-1.2650462390571833
1725630155055682000,12.04568212890625,-0.6045858958110213,2.2635937510371207,-1.1463918025821447
1725630155065635000,12.055635009765625,0.6165341077581048,1.5988462319910526,-0.17976766134649513
1725630155075588000,12.065588134765624,1.1787393900878727,1.4712053559839724,0.30541122605651616
1725630155085541000,12.075541015625,-0.3440015073440969,-0.013164601999521255,0.272967923091352
1725630155095494000,12.085493896484374,1.2181599847197533,-1.59387136618793,1.2309531230583786
1725630155105447000,12.095447021484375,0.5879547867447138,-2.289324989143014,1.2284390944108365
1725630155115400000,12.10539990234375,-0.9147592217028141,-3.442817563641071,0.6082385730996728
1725630155125353700,12.115353759765625,0.3176233496367931,-3.5426714380562303,1.4074743498295545
1725630155135306800,12.125306640625,1.3492274741746484,-1.9795202043026685,1.6652774370148777
1725630155145259800,12.135259765625,1.0109104422077535,0.6939069780349731,1.4465592827662825
1725630155155212800,12.145212890625,0.4921627549409866,0.7138648934364319,1.4194064874246715
1725630155165165800,12.155165771484375,1.5825978386320172,-0.26883623011410235,1.5006205432996154
1725630155175118800,12.165118896484374,-0.07867766926512122,-0.18774317027032375,0.09260317263454199
1725630155185071900,12.17507177734375,-0.5617978705726564,-0.6469733774244785,-1.1498135937243699
1725630155195025000,12.18502490234375,-0.7135982053242623,-0.6204717394679784,-0.9929840326339006
1725630155204978000,12.19497802734375,-1.4811220621034502,-0.21534370937943456,-0.4043587992817163
1725630155214931000,12.204930908203124,-0.5437859746724367,0.13839666329920292,0.3701350426405668
1725630155224885000,12.214885009765625,0.6410698524691164,1.029749874973297,1.0380153067544102
1725630155234838000,12.224838134765625,0.07786898323073983,0.698696550399065,0.9785589091792702
1725630155244790800,12.234790771484375,1.2441323381051421,-0.7956950353831053,1.2099977210521697
1725630155254743800,12.244743896484374,1.303127401778847,-1.443497849369049,0.8854775976389646
1725630155264696800,12.25469677734375,0.1965526458002627,-1.0374299080818892,0.5364993247956037
1725630155274649900,12.26464990234375,1.1596978588789701,0.3338800724327564,0.08875497277379035
1725630155284603000,12.274602783203125,1.1869944466054438,2.4114473939895626,-0.4725312950149178
1725630155294556000,12.284555908203124,-0.044432431444525716,3.16888722525835,-1.0515379284113644
1725630155304509000,12.294509033203125,-1.4457389062941073,2.372498362392187,-1.4260884494066237
1725630155314462000,12.3044619140625,0.06108794429972767,1.8928198259711264,-0.5671624663457274
1725630155324416000,12.314416015625,0.014098667979240417,3.2159500052064653,-1.143856731146574
1725630155334369000,12.324369140625,-1.5208365251153706,3.0061428871661424,-1.972172764149308
1725630155344322000,12.334322021484375,-1.2040399816915393,3.044443683987856,-0.49991643780767914
1725630155354275000,12.344275146484375,0.037996991569548846,4.109829520487785,0.2849929996669292
1725630155364228000,12.35422802734375,-0.2881375813029706,3.831435188433528,-0.6818173117905855
1725630155374180900,12.364180908203124,0.03753682671189308,2.0308634380489585,-1.269681205381453
1725630155384134000,12.3741337890625,-0.9903190512083471,-1.023356959065795,-1.0235632952928542
1725630155394087000,12.3840869140625,0.5746908160239458,-3.6400989621073006,0.21614713471680877
1725630155404040000,12.3940400390625,2.584336693999171,-3.827372761300206,1.2038251698970794
1725630155413993000,12.403992919921874,1.356418993113935,-2.6583681448936463,1.0458122442409397
1725630155423946800,12.41394677734375,1.8578854368425906,-2.157987596705556,1.0626596264064312
1725630155433899800,12.423899658203124,1.879985478839278,-1.8554945961832998,1.4067729235619306
1725630155443852800,12.433852783203125,0.8040531138837337,-1.7747428971230983,1.5141893421858548
1725630155453805800,12.443805908203124,0.29446809949874875,-1.1922440376967192,0.8117901378765702
1725630155463758800,12.4537587890625,1.1482806850686669,-1.0233259794056415,-0.03304419146776199
1725630155473711900,12.4637119140625,0.8325574699647724,-0.26005729585289955,-0.9205912888571619
1725630155483665000,12.473664794921875,0.03637275136858225,-0.31266952662169933,-1.9251871410906314
