time,seconds_elapsed,z,y,x
1725630143032344300,0.02234423828125,1.5572974681854248,-0.1860770285129547,-2.1408982276916504
1725630143042297300,0.03229736328125,1.833890438079834,-0.4024748206138611,-2.198089122772217
1725630143052250400,0.04225048828125,1.4023090600967407,-0.7617418169975281,-1.3066469430923462
1725630143062203400,0.052203369140625,0.2544451355934143,-0.8113714456558228,-0.37412598729133606
1725630143072156400,0.062156494140625,-0.48226314783096313,-1.1750328540802002,0.34657132625579834
1725630143082109400,0.072109375,-0.6393459439277649,-1.3435654640197754,1.0417826175689697
1725630143092063500,0.0820634765625,-0.5254844427108765,-1.4463112354278564,1.4825325012207031
1725630143102016500,0.0920166015625,-0.28032001852989197,-1.3293901681900024,1.660907506942749
1725630143111969500,0.101969482421875,0.020794976502656937,-0.879958987236023,1.8017929792404175
1725630143121922300,0.11192236328125,0.27721503376960754,-0.5870001316070557,1.8412786722183228
1725630143131875300,0.121875244140625,0.43875494599342346,-0.6063644886016846,1.838841438293457
1725630143141828400,0.131828369140625,0.4064556062221527,-0.9583120942115784,1.8235962390899658
1725630143151781400,0.141781494140625,-0.1835324615240097,-1.1897183656692505,1.441412329673767
1725630143161734400,0.151734375,-1.2824679613113403,-1.5446175336837769,1.1481245756149292
1725630143171687400,0.1616875,-1.930931568145752,-1.491028904914856,1.3089003562927246
1725630143181640400,0.171640380859375,-2.376877784729004,-0.39623621106147766,1.393358826637268
1725630143191593500,0.181593505859375,-2.346374034881592,1.2309473752975464,1.621030569076538
1725630143201546500,0.19154638671875,-1.5248159170150757,0.15473045408725739,1.2365814447402954
1725630143211500300,0.201500244140625,-0.7942132949829102,0.7744758725166321,0.9734846353530884
1725630143221453300,0.211453369140625,0.7451529502868652,1.9340513944625854,0.2731768488883972
1725630143231406300,0.22140625,2.0638928413391113,2.7160286903381348,-0.9066447019577026
1725630143241359400,0.231359375,2.1223180294036865,2.5633466243743896,-1.6612468957901
1725630143251312000,0.24131201171875,1.7159674167633057,1.4445812702178955,-2.0715255737304688
1725630143261265200,0.25126513671875,1.2726153135299683,0.4490901231765747,-2.082951307296753
1725630143271218200,0.26121826171875,1.0722094774246216,-0.3308200538158417,-1.579002022743225
1725630143281171200,0.271171142578125,1.0641592741012573,-0.9816023707389832,-0.6596956849098206
1725630143291124200,0.281124267578125,0.8249874711036682,-0.9946275949478149,0.22460052371025085
1725630143301077200,0.2910771484375,0.24404390156269073,-0.4383302330970764,0.31655949354171753
1725630143311030300,0.3010302734375,0.22236156463623047,-0.3799394965171814,-0.144010990858078
1725630143320983300,0.3109833984375,0.6671158075332642,-0.03635600954294205,-0.46200042963027954
1725630143330936300,0.320936279296875,1.0647971630096436,0.36358997225761414,-0.8004586696624756
1725630143340890400,0.330890380859375,1.355049967765808,1.3273091316223145,-1.6040449142456055
1725630143350843400,0.340843505859375,1.510739803314209,1.0413068532943726,-1.8181086778640747
1725630143360796400,0.35079638671875,1.481376051902771,-0.03411807492375374,-2.0210580825805664
1725630143370749400,0.36074951171875,1.6445105075836182,-1.4697449207305908,-1.9494843482971191
1725630143380702200,0.3707021484375,2.172023296356201,-2.90901255607605,-1.747688889503479
1725630143390655200,0.3806552734375,2.600752592086792,-4.253194808959961,-1.4790310859680176
1725630143400608300,0.390608154296875,3.155694007873535,-5.222455978393555,-1.090515375137329
1725630143410561300,0.400561279296875,3.7384822368621826,-5.819565296173096,-0.7750260233879089
1725630143420514300,0.410514404296875,4.243973731994629,-6.496784210205078,-0.7470892071723938
1725630143430467300,0.42046728515625,4.877091407775879,-7.582717418670654,-1.0034966468811035
1725630143440420400,0.43042041015625,5.371164798736572,-8.109781265258789,-1.1607604026794434
1725630143450373400,0.440373291015625,5.238277912139893,-7.035116672515869,-0.9552030563354492
1725630143460327400,0.450327392578125,5.263319969177246,-5.739637851715088,-0.935719907283783
1725630143470280400,0.460280517578125,5.986098289489746,-4.830180644989014,-1.3968191146850586
1725630143480233500,0.4702333984375,6.780241012573242,-3.702643632888794,-1.8617843389511108
1725630143490186500,0.4801865234375,7.142402172088623,-2.9851372241973877,-2.376704692840576
1725630143500139500,0.490139404296875,6.831515312194824,-2.6414425373077393,-2.7879955768585205
1725630143510092300,0.50009228515625,6.269496440887451,-2.4608938694000244,-2.9672975540161133
1725630143520045300,0.51004541015625,6.38392448425293,-2.705242156982422,-2.7047369480133057
1725630143529998300,0.519998291015625,6.384729862213135,-2.9887564182281494,-2.5523271560668945
1725630143539951400,0.529951416015625,6.512948989868164,-3.5328149795532227,-2.4030275344848633
1725630143549904400,0.539904296875,6.274084568023682,-3.3907694816589355,-2.566523790359497
1725630143559857400,0.549857421875,6.0732741355896,-3.435574769973755,-2.879554271697998
1725630143569810400,0.559810546875,4.167407512664795,-1.7105997800827026,-3.709857702255249
1725630143579764500,0.569764404296875,2.713388442993164,-0.3628140985965729,-4.2890496253967285
1725630143589717500,0.579717529296875,2.126934051513672,1.2229039669036865,-5.144076824188232
1725630143599670500,0.58967041015625,1.995697021484375,2.39500093460083,-5.830780982971191
1725630143609623600,0.59962353515625,2.524099588394165,3.111706256866455,-6.008592128753662
1725630143619576600,0.60957666015625,3.187554359436035,3.5862889289855957,-5.952215671539307
1725630143629529600,0.619529541015625,2.346742868423462,3.45170521736145,-5.727985382080078
1725630143639482400,0.629482421875,2.287602186203003,2.0819625854492188,-4.070296287536621
1725630143649435400,0.639435302734375,3.742650032043457,2.9852817058563232,-3.1495707035064697
1725630143659388400,0.649388427734375,3.054964542388916,3.242685079574585,-1.2627958059310913
1725630143669341400,0.659341552734375,3.070739507675171,3.3897359371185303,-0.6256474256515503
1725630143679294500,0.66929443359375,3.6538379192352295,3.3793931007385254,0.02032865211367607
1725630143689247500,0.67924755859375,3.928058624267578,2.767899513244629,0.6317483186721802
1725630143699201300,0.689201171875,3.695917844772339,0.8814066052436829,0.20269230008125305
1725630143709154300,0.699154296875,3.530459403991699,0.3702314496040344,-0.18780650198459625
1725630143719107300,0.709107421875,3.761557102203369,0.6937777996063232,0.03797363489866257
1725630143729060400,0.719060302734375,3.4394915103912354,0.47943028807640076,-0.24883799254894257
1725630143739013400,0.729013427734375,3.1930603981018066,0.8519985675811768,-0.3919980823993683
1725630143748966400,0.73896630859375,3.009178638458252,1.458784818649292,-0.45042067766189575
1725630143758919400,0.74891943359375,2.29378080368042,1.9583874940872192,-0.6233018636703491
1725630143768872200,0.7588720703125,1.5148615837097168,2.5502560138702393,-0.19019490480422974
1725630143778825200,0.7688251953125,3.298022508621216,4.845395565032959,-0.11326044797897339
1725630143788778200,0.7787783203125,3.3519325256347656,4.896304607391357,-0.42056116461753845
1725630143798731300,0.788731201171875,3.223878860473633,4.61558723449707,0.46148446202278137
1725630143808684300,0.798684326171875,2.913986921310425,3.937171697616577,0.8907402753829956
1725630143818638300,0.808638427734375,2.78324556350708,3.668886423110962,0.9280852675437927
1725630143828591400,0.81859130859375,2.8389298915863037,3.7233223915100098,0.2610945999622345
1725630143838544400,0.82854443359375,3.6665167808532715,4.409634113311768,1.0974727869033813
1725630143848497400,0.838497314453125,3.567890167236328,3.113805055618286,2.2376627922058105
1725630143858450400,0.848450439453125,2.9893221855163574,2.0398333072662354,2.409818649291992
1725630143868403500,0.858403564453125,1.8061268329620361,1.2044446468353271,0.8928021788597107
1725630143878356500,0.8683564453125,1.143031120300293,1.7678142786026,-0.20434719324111938
1725630143888308500,0.87830859375,0.6577503085136414,1.490700125694275,-0.07401417195796967
1725630143898261200,0.88826123046875,0.28515276312828064,0.8379483819007874,0.3311687409877777
1725630143908214300,0.89821435546875,-0.0700317993760109,0.40762409567832947,0.36157137155532837
1725630143918167300,0.908167236328125,-0.7969093918800354,-0.09418444335460663,0.2817481756210327
1725630143928120300,0.918120361328125,-1.3490140438079834,-0.5179208517074585,0.15379124879837036
1725630143938073300,0.9280732421875,-1.36196768283844,-0.5450568795204163,-0.18081256747245789
1725630143948027400,0.93802734375,-1.2428265810012817,-0.8056173920631409,-0.6591500639915466
1725630143957980400,0.94798046875,-1.4373444318771362,-1.6791059970855713,-0.8940446376800537
1725630143967933400,0.957933349609375,-1.5355926752090454,-2.63311767578125,-1.0280673503875732
1725630143977886500,0.967886474609375,-1.2630252838134766,-3.2277934551239014,-1.0035444498062134
1725630143987839500,0.977839599609375,-1.0860249996185303,-3.6082680225372314,-0.31071433424949646
1725630143997792500,0.98779248046875,-0.5672599077224731,-2.875627279281616,0.2698774039745331
1725630144007745500,0.99774560546875,-0.29601579904556274,-1.2871330976486206,0.11900676041841507
1725630144017698600,1.007698486328125,-0.2491271197795868,0.3977847695350647,-0.2903498709201813
1725630144027651300,1.0176513671875,-0.39359310269355774,1.4775227308273315,-0.5164124369621277
1725630144037604400,1.027604248046875,-0.38924363255500793,2.0191376209259033,-0.8256616592407227
1725630144047557400,1.037557373046875,-0.6074841618537903,1.5910111665725708,-1.0002299547195435
1725630144057510400,1.047510498046875,-0.7829734683036804,0.6496487855911255,-0.8173259496688843
1725630144067464400,1.05746435546875,-0.7927171587944031,-0.011449014768004417,-0.5248544216156006
1725630144077417500,1.06741748046875,-0.6800990104675293,-0.13961070775985718,-0.4604892432689667
1725630144087370500,1.07737060546875,-0.5777198672294617,-0.020857270807027817,-0.6392307281494141
1725630144097323500,1.087323486328125,-0.47545126080513,0.11159291118383408,-0.9341901540756226
1725630144107276500,1.097276611328125,-0.5681610107421875,0.22067147493362427,-1.0310909748077393
1725630144117229600,1.1072294921875,-0.7577927112579346,0.18545623123645782,-0.8719860315322876
1725630144127182600,1.1171826171875,-1.0316256284713745,0.035647183656692505,-0.6805547475814819
1725630144137135600,1.127135498046875,-1.238131046295166,0.034253284335136414,-0.618830680847168
1725630144147088600,1.137088623046875,-1.3791158199310303,0.05254870280623436,-0.7200606465339661
1725630144157041400,1.14704150390625,-1.5374561548233032,0.2248549610376358,-0.987859845161438
1725630144166994400,1.156994384765625,-1.7540227174758911,0.44172462821006775,-1.2336328029632568
1725630144176947500,1.166947509765625,-1.7740744352340698,0.6214698553085327,-1.5638916492462158
1725630144186901200,1.1769013671875,-1.5766385793685913,0.6814388632774353,-1.762468934059143
1725630144196854300,1.186854248046875,-1.549577236175537,0.04464566335082054,-1.7494181394577026
1725630144206807300,1.196807373046875,-1.5183651447296143,0.052866384387016296,-1.9424411058425903
1725630144216760300,1.20676025390625,-1.8143699169158936,0.32631683349609375,-2.3547375202178955
1725630144226713300,1.21671337890625,-1.9999470710754395,0.5030273795127869,-2.390230655670166
1725630144236666400,1.226666259765625,-2.1166276931762695,1.1524043083190918,-2.1796865463256836
1725630144246619400,1.236619384765625,-2.078867197036743,-0.24688193202018738,-1.1849560737609863
1725630144256572400,1.246572509765625,-2.219329833984375,-0.532227098941803,-0.910975456237793
1725630144266525400,1.256525390625,-2.4154253005981445,-0.3033805191516876,-0.5207361578941345
1725630144276478500,1.266478515625,-2.491302490234375,0.005848438944667578,-0.08832083642482758
1725630144286431200,1.27643115234375,-2.138702392578125,0.06416118890047073,0.15680988132953644
1725630144296384300,1.28638427734375,-1.5952709913253784,-0.6252313256263733,0.27513307332992554
1725630144306337300,1.296337158203125,-1.2455861568450928,-0.5133637189865112,0.3090280592441559
1725630144316291300,1.306291259765625,-0.905975878238678,-0.36477532982826233,0.4422740042209625
1725630144326244400,1.316244384765625,-0.5030645132064819,-0.40091070532798767,0.4387824833393097
1725630144336197400,1.326197265625,-0.2974924147129059,-0.2544882595539093,0.5280375480651855
1725630144346150400,1.336150390625,-0.16407209634780884,-0.040423329919576645,0.7276020646095276
1725630144356103400,1.346103515625,-0.1227925717830658,0.20932233333587646,0.8237709403038025
1725630144366056400,1.356056396484375,0.021402068436145782,0.23837505280971527,0.9098988771438599
1725630144376009500,1.366009521484375,0.1676868498325348,0.12403091043233871,0.8039098381996155
1725630144385962500,1.37596240234375,0.34593090415000916,0.3010566234588623,0.4166281819343567
1725630144395915500,1.38591552734375,0.601813793182373,0.42993178963661194,0.050991080701351166
1725630144405868300,1.395868408203125,0.46746379137039185,0.03248414769768715,-0.2652512788772583
1725630144415821300,1.4058212890625,0.2508225739002228,-0.28076672554016113,-0.4551836848258972
1725630144425774300,1.4157744140625,-0.006226351484656334,-0.4246205985546112,-0.5619432926177979
1725630144435727400,1.425727294921875,-0.25042515993118286,-0.23421841859817505,-0.4664233922958374
1725630144445681400,1.435681396484375,-0.4413911700248718,0.16213996708393097,-0.34218472242355347
1725630144455634400,1.445634521484375,-0.4736526906490326,0.28524404764175415,-0.25543782114982605
1725630144465587500,1.45558740234375,-0.4818302392959595,0.27361494302749634,-0.22653606534004211
1725630144475540500,1.46554052734375,-0.43623557686805725,0.21778973937034607,-0.16999582946300507
1725630144485493500,1.475493408203125,-0.3300008773803711,0.3245943784713745,-0.0605689212679863
1725630144495446500,1.485446533203125,-0.12230919301509857,0.39261552691459656,0.13032619655132294
1725630144505399600,1.495399658203125,0.13635195791721344,0.3991261422634125,0.17893844842910767
1725630144515352600,1.5053525390625,0.4326499402523041,0.39431726932525635,0.25241851806640625
1725630144525305600,1.5153056640625,0.7437881827354431,0.44362449645996094,0.23200783133506775
1725630144535258400,1.52525830078125,1.0245338678359985,0.6072107553482056,0.26946091651916504
1725630144545211400,1.53521142578125,1.372133493423462,0.4951268136501312,0.2149163782596588
1725630144555164400,1.545164306640625,1.5984805822372437,0.30302661657333374,0.1523246318101883
1725630144565117400,1.555117431640625,1.8527263402938843,0.05698976293206215,-0.01674792170524597
1725630144575071200,1.5650712890625,1.9555014371871948,-0.24569286406040192,-0.10267907381057739
1725630144585024300,1.575024169921875,2.004669427871704,-0.5991347432136536,-0.2758355140686035
1725630144594977300,1.584977294921875,2.052079200744629,-0.9945888519287109,-0.41515052318573
1725630144604930300,1.594930419921875,2.2334604263305664,-1.3946516513824463,-0.42240381240844727
1725630144614883300,1.60488330078125,2.43394136428833,-1.4384698867797852,-0.4384951591491699
1725630144624836400,1.61483642578125,1.4214545488357544,-0.9689250588417053,-0.6241365075111389
1725630144634789400,1.624789306640625,0.25846990942955017,-0.31534966826438904,-0.4030299186706543
1725630144644742400,1.634742431640625,0.10162371397018433,0.04406316578388214,0.08230982720851898
1725630144654695400,1.6446953125,0.03126433491706848,0.17817382514476776,0.1140991821885109
1725630144664648200,1.654648193359375,0.2753910720348358,-0.0010745339095592499,-0.28951504826545715
1725630144674601200,1.664601318359375,0.3797321319580078,-0.016325125470757484,-0.5286940932273865
1725630144684554200,1.67455419921875,0.47037187218666077,-0.1834353506565094,-0.6295516490936279
1725630144694508300,1.68450830078125,0.580156147480011,-0.1046992689371109,-0.7207555770874023
1725630144704461300,1.69446142578125,0.6218557357788086,-0.06488177925348282,-0.7013942003250122
1725630144714414300,1.704414306640625,0.6551511287689209,-0.0050842249765992165,-0.5922570824623108
1725630144724367400,1.714367431640625,0.6717448830604553,0.07697682827711105,-0.5177744626998901
1725630144734320400,1.7243203125,0.7025496363639832,0.11159312725067139,-0.47370633482933044
1725630144744273400,1.7342734375,0.7703938484191895,0.08244282752275467,-0.48215848207473755
1725630144754226400,1.744226318359375,0.8115836381912231,-0.06754747033119202,-0.6063835024833679
1725630144764179500,1.754179443359375,0.8490440845489502,-0.1838434785604477,-0.6918138265609741
1725630144774132500,1.764132568359375,0.8558005094528198,-0.29552581906318665,-0.7190592885017395
1725630144784085500,1.77408544921875,0.8229237198829651,-0.2770214080810547,-0.5737488865852356
1725630144794038300,1.784038330078125,0.7588781714439392,-0.2558324933052063,-0.47051361203193665
1725630144803991300,1.7939912109375,0.6927228569984436,-0.2805688977241516,-0.4318420886993408
1725630144813944300,1.8039443359375,0.618575394153595,-0.23180590569972992,-0.2886870801448822
1725630144823898400,1.8138984375,0.5238449573516846,-0.1402040272951126,-0.08147341758012772
1725630144833851400,1.823851318359375,0.5015133023262024,-0.17397557199001312,-0.04348928481340408
1725630144843804400,1.833804443359375,0.5557550191879272,-0.3147030472755432,-0.22068879008293152
1725630144853757400,1.84375732421875,0.613011360168457,-0.37404388189315796,-0.3117334842681885
1725630144863710500,1.85371044921875,0.6301047801971436,-0.3705538213253021,-0.2547334134578705
1725630144873663500,1.86366357421875,0.5719069838523865,-0.33278942108154297,-0.18557193875312805
1725630144883616500,1.873616455078125,0.5294635891914368,-0.4055342376232147,-0.15770074725151062
1725630144893569800,1.88356982421875,0.48116928339004517,-0.41654855012893677,-0.19827347993850708
1725630144903522800,1.893522705078125,0.5421823263168335,-0.5804247856140137,-0.2632206678390503
1725630144913475600,1.9034755859375,0.5892608761787415,-0.7149402499198914,-0.3224179446697235
1725630144923428600,1.9134287109375,0.6080436706542969,-0.7981171011924744,-0.35914212465286255
1725630144933381600,1.923381591796875,0.6102679371833801,-0.8655725717544556,-0.3943432569503784
1725630144943335400,1.93333544921875,0.5464909672737122,-0.8351522088050842,-0.4019106328487396
1725630144953288400,1.943288330078125,0.4448609948158264,-0.6657527685165405,-0.3117271959781647
1725630144963241500,1.953241455078125,0.34407687187194824,-0.6781588196754456,-0.17116259038448334
1725630144973194500,1.963194580078125,0.28300899267196655,-0.534749448299408,-0.03785485774278641
1725630144983147500,1.9731474609375,0.2603033185005188,-0.7113775014877319,-0.05638134852051735
1725630144993100500,1.9831005859375,0.23021890223026276,-0.7801549434661865,-0.10715531557798386
1725630145003053600,1.993053466796875,0.1885836124420166,-0.6705371737480164,-0.10061169415712357
1725630145013006600,2.003006591796875,0.15488317608833313,-0.7846972942352295,-0.10908640176057816
1725630145022959600,2.012959716796875,0.12714409828186035,-0.7726926207542419,-0.04882810637354851
1725630145032912600,2.02291259765625,0.14427514374256134,-0.6105474233627319,0.08287160098552704
1725630145042865400,2.032865478515625,0.11847534030675888,-0.4855995774269104,0.2062094658613205
1725630145052818400,2.042818359375,0.1259998381137848,-0.4607911705970764,0.29876893758773804
1725630145062771500,2.052771484375,0.05729277431964874,-0.5936117172241211,0.3728162944316864
1725630145072725500,2.0627255859375,0.04897145926952362,-0.47580063343048096,0.4329741895198822
1725630145082678500,2.072678466796875,0.05428684502840042,-0.29997989535331726,0.38211387395858765
1725630145092631600,2.082631591796875,-0.052740272134542465,-0.4217689037322998,0.2624939978122711
1725630145102584600,2.09258447265625,-0.1383703351020813,-0.2718912661075592,0.32915911078453064
1725630145112537600,2.10253759765625,-0.14030511677265167,-0.1876315176486969,0.38388440012931824
1725630145122490600,2.11249072265625,-0.19483834505081177,-0.20289741456508636,0.4271731972694397
1725630145132443600,2.122443603515625,-0.1883000135421753,-0.09905596822500229,0.38071727752685547
1725630145142396700,2.132396728515625,-0.21702413260936737,-0.08282360434532166,0.32343143224716187
1725630145152349700,2.142349609375,-0.2255433201789856,-0.03884044289588928,0.2712017893791199
1725630145162302700,2.152302734375,-0.18290479481220245,-0.01909824088215828,0.17822681367397308
1725630145172255500,2.16225537109375,-0.17231686413288116,-0.05357951670885086,0.10268838703632355
1725630145182208500,2.17220849609375,-0.18058297038078308,-0.06069215014576912,0.15656577050685883
1725630145192161500,2.18216162109375,-0.24224473536014557,-0.0934239998459816,0.24124658107757568
1725630145202115600,2.192115478515625,-0.286837637424469,-0.1616896241903305,0.19194352626800537
1725630145212068600,2.202068603515625,-0.40656936168670654,-0.10124038904905319,0.17093652486801147
1725630145222021600,2.212021728515625,-0.5085030198097229,0.04062420502305031,0.3118598759174347
1725630145231974700,2.221974609375,-0.5962813496589661,0.16709798574447632,0.3242712914943695
1725630145241927700,2.231927734375,-0.6254479885101318,0.4010048508644104,0.4702542722225189
1725630145251880700,2.241880615234375,-0.6639993786811829,0.33274778723716736,0.421345055103302
1725630145261833700,2.251833740234375,-0.5752949118614197,0.07665260136127472,0.16818594932556152
1725630145271786800,2.261786865234375,-0.4781303107738495,0.16559232771396637,0.08306998014450073
1725630145281739800,2.27173974609375,-0.39970648288726807,0.402033269405365,0.23483718931674957
1725630145291692800,2.28169287109375,-0.3874466121196747,0.5523295998573303,0.4483518600463867
1725630145301645600,2.2916455078125,-0.3869905173778534,0.5437199473381042,0.5146040916442871
1725630145311598600,2.3015986328125,-0.35533538460731506,0.40859270095825195,0.35216373205184937
1725630145321551600,2.311551513671875,-0.31430402398109436,0.3829737901687622,0.12774254381656647
1725630145331505700,2.321505615234375,-0.3263511061668396,0.4120371341705322,0.040804456919431686
1725630145341458400,2.33145849609375,-0.3292086124420166,0.48550117015838623,0.10999692231416702
1725630145351411500,2.341411376953125,-0.3313279449939728,0.4874354302883148,0.06945908069610596
1725630145361364500,2.351364501953125,-0.33119991421699524,0.465083509683609,-0.12646566331386566
1725630145371317500,2.3613173828125,-0.37488001585006714,0.4604645073413849,-0.28377777338027954
1725630145381270500,2.3712705078125,-0.4229276180267334,0.37317338585853577,-0.3019586503505707
1725630145391223600,2.3812236328125,-0.43849778175354004,0.2167598158121109,-0.27128034830093384
1725630145401176600,2.391176513671875,-0.48802945017814636,0.2656208574771881,-0.17386282980442047
1725630145411129600,2.401129638671875,-0.5382716059684753,0.2708454430103302,-0.03610629960894585
1725630145421082600,2.41108251953125,-0.6100788712501526,0.3769344985485077,0.04024926573038101
1725630145431035400,2.421035400390625,-0.5988366007804871,0.4356297552585602,0.08725485950708389
1725630145440988400,2.430988525390625,-0.5397379994392395,0.44257238507270813,0.17087796330451965
1725630145450942500,2.4409423828125,-0.4655231833457947,0.4317895174026489,0.266152024269104
1725630145460895500,2.4508955078125,-0.4028797745704651,0.4045293629169464,0.32895132899284363
1725630145470848500,2.4608486328125,-0.32387709617614746,0.31221142411231995,0.25248584151268005
1725630145480801500,2.470801513671875,-0.21851401031017303,0.06202206388115883,0.10486497730016708
1725630145490754600,2.480754638671875,-0.11621879786252975,-0.21064382791519165,-0.012780429795384407
1725630145500707600,2.49070751953125,-0.12594832479953766,-0.42922261357307434,-0.0768752172589302
1725630145510660600,2.50066064453125,-0.12239859998226166,-0.5556849837303162,-0.049678217619657516
1725630145520613600,2.510613525390625,-0.1384001523256302,-0.46363139152526855,0.028388094156980515
1725630145530566700,2.520566650390625,-0.11185322701931,-0.5185628533363342,0.13285697996616364
1725630145540519700,2.530519775390625,-0.11655854433774948,-0.4528774619102478,0.2138681411743164
1725630145550472700,2.54047265625,-0.11488182097673416,-0.5297544002532959,0.23027454316616058
1725630145560425500,2.550425537109375,-0.16295331716537476,-0.6463150382041931,0.2835109829902649
1725630145570378500,2.56037841796875,-0.24941231310367584,-0.4761731028556824,0.40667206048965454
1725630145580332500,2.57033251953125,-0.27688631415367126,-0.3654874861240387,0.47196444869041443
1725630145590285600,2.58028564453125,-0.2665471136569977,-0.3314927816390991,0.42937171459198
1725630145600238600,2.590238525390625,-0.25489872694015503,-0.28830909729003906,0.37361791729927063
1725630145610191600,2.600191650390625,-0.24882085621356964,-0.3295119106769562,0.3098783493041992
1725630145620144600,2.61014453125,-0.2196332961320877,-0.35359373688697815,0.23666562139987946
1725630145630097700,2.62009765625,-0.19430290162563324,-0.2948388159275055,0.2013835310935974
1725630145640050700,2.63005078125,-0.15373536944389343,-0.04664203152060509,0.20281720161437988
1725630145650003700,2.640003662109375,-0.11744500696659088,0.07733797281980515,0.14297224581241608
1725630145659956700,2.649956787109375,-0.11045654118061066,0.2292635440826416,0.17387256026268005
1725630145669909800,2.65990966796875,-0.126772940158844,0.41449466347694397,0.2941233515739441
1725630145679862500,2.669862548828125,-0.19465622305870056,0.40507370233535767,0.33998411893844604
1725630145689815600,2.679815673828125,-0.3282182514667511,0.19256916642189026,0.19581307470798492
1725630145699768600,2.6897685546875,-0.464241623878479,0.45938628911972046,0.24501167237758636
1725630145709722600,2.69972265625,-0.5926976203918457,0.966896653175354,0.5270431041717529
1725630145719675600,2.709675537109375,-0.7153817415237427,1.0001415014266968,0.6682880520820618
1725630145729628700,2.719628662109375,-0.8793512582778931,0.8215017914772034,0.6724207401275635
1725630145739581700,2.729581787109375,-0.9848747849464417,0.8130485415458679,0.962528645992279
1725630145749534700,2.73953466796875,-1.0318505764007568,0.7135251760482788,1.1699645519256592
1725630145759487700,2.74948779296875,-1.0329093933105469,0.3803301453590393,1.0168414115905762
1725630145769440800,2.759440673828125,-1.0320260524749756,0.04503525048494339,0.7416372895240784
1725630145779393800,2.769393798828125,-0.9064198732376099,0.020296037197113037,0.6990737915039062
1725630145789346800,2.779346923828125,-0.81988126039505,0.01460060104727745,0.8669631481170654
1725630145799299800,2.7892998046875,-0.7257527112960815,-0.11944226920604706,0.7830668687820435
1725630145809252600,2.799252685546875,-0.6314448118209839,-0.25863346457481384,0.6626161336898804
1725630145819205600,2.80920556640625,-0.5205398201942444,-0.1812370866537094,0.7756439447402954
1725630145829159700,2.81915966796875,-0.2805940508842468,-0.20863674581050873,0.7083373069763184
1725630145839112400,2.829112548828125,-0.25634562969207764,-0.4735388159751892,0.5388984680175781
1725630145849065500,2.8390654296875,-0.1487925499677658,-0.34994471073150635,0.5837735533714294
1725630145859018500,2.8490185546875,0.05961408093571663,-0.14084836840629578,0.7307547330856323
1725630145868971500,2.858971435546875,0.12892870604991913,-0.035807687789201736,0.8180595636367798
1725630145878924500,2.868924560546875,0.12494819611310959,0.038158610463142395,0.8168864846229553
1725630145888878800,2.87887890625,0.1182285025715828,0.17544695734977722,0.8789730072021484
1725630145898832000,2.888831787109375,0.22701822221279144,0.38621786236763,0.9459158182144165
1725630145908785000,2.898784912109375,0.2607074975967407,0.28847160935401917,0.7785457372665405
1725630145918738000,2.908738037109375,0.31398865580558777,0.28897732496261597,0.6615521907806396
1725630145928691000,2.91869091796875,0.3288019597530365,0.4123575687408447,0.6742626428604126
1725630145938644000,2.92864404296875,0.232004776597023,0.2101714313030243,0.5866438746452332
1725630145948597000,2.938596923828125,0.32538002729415894,0.25582200288772583,0.7351713180541992
1725630145958550000,2.948550048828125,0.3339327871799469,0.08072811365127563,0.7956480383872986
1725630145968504000,2.958504150390625,0.3276818096637726,-0.46288084983825684,0.46581315994262695
1725630145978457000,2.96845703125,0.34198707342147827,-0.70465487241745,0.3514145314693451
1725630145988409900,2.978409912109375,0.2639511525630951,-0.7051289081573486,0.3483196496963501
1725630145998363000,2.98836279296875,0.19395798444747925,-0.7206931710243225,0.22314105927944183
1725630146008316000,2.99831591796875,0.22121624648571014,-0.7964060306549072,0.06866093724966049
1725630146018269000,3.00826904296875,0.3486737012863159,-0.7475142478942871,-0.07814183831214905
1725630146028222000,3.018221923828125,0.4145589768886566,-0.499949187040329,-0.17536719143390656
1725630146038175000,3.028175048828125,0.5305970311164856,-0.2526059150695801,-0.4061916470527649
1725630146048128000,3.0381279296875,0.6762580871582031,-0.17965662479400635,-0.6311712265014648
1725630146058081000,3.0480810546875,0.7299115061759949,0.040471550077199936,-0.7183741331100464
1725630146068034000,3.058033935546875,0.7157661318778992,0.3633068799972534,-0.8487076759338379
1725630146077987000,3.067987060546875,0.6592305898666382,0.4804612696170807,-0.9883572459220886
1725630146087940900,3.07794091796875,0.6164698004722595,0.4286092519760132,-1.0285345315933228
1725630146097894000,3.087893798828125,0.6298904418945312,0.4784397780895233,-0.9760030508041382
1725630146107847000,3.097846923828125,0.6441910862922668,0.6275019645690918,-0.8657277226448059
1725630146117799700,3.107799560546875,0.6209807991981506,0.7663004994392395,-0.6791552305221558
1725630146127752700,3.117752685546875,0.5819782614707947,0.8466640710830688,-0.4533686935901642
1725630146137705700,3.127705810546875,0.5189067125320435,0.8750506043434143,-0.33090370893478394
1725630146147658800,3.13765869140625,0.4702397882938385,0.8853303790092468,-0.34674525260925293
1725630146157611800,3.14761181640625,0.42103874683380127,0.8538153171539307,-0.4214523732662201
1725630146167564800,3.157564697265625,0.41402849555015564,0.8118649125099182,-0.5023994445800781
1725630146177517800,3.167517822265625,0.458555668592453,0.8145601749420166,-0.5186367630958557
1725630146187470800,3.177470947265625,0.4763101637363434,0.7283230423927307,-0.46638816595077515
1725630146197425000,3.1874248046875,0.533370316028595,0.6361774802207947,-0.34301087260246277
1725630146207378000,3.1973779296875,0.7123203277587891,0.5543236136436462,-0.36136138439178467
1725630146217331000,3.2073310546875,0.8495349884033203,0.25637897849082947,-0.5470234155654907
1725630146227284000,3.217283935546875,0.8975198268890381,0.15630535781383514,-0.68694669008255
1725630146237237000,3.227237060546875,0.8530579209327698,0.2783192992210388,-0.6559121608734131
1725630146247189800,3.237189697265625,0.8264923691749573,0.26063084602355957,-0.6919061541557312
1725630146257142800,3.247142822265625,0.7803893685340881,0.20908686518669128,-0.6823572516441345
1725630146267095800,3.257095703125,0.7945573925971985,0.22881077229976654,-0.651688814163208
1725630146277048800,3.267048828125,0.8607977628707886,0.10927118360996246,-0.7402886748313904
1725630146287001900,3.277001953125,0.8234419226646423,0.021735474467277527,-0.6727882027626038
1725630146296955000,3.286954833984375,0.9829189777374268,0.07204928249120712,-0.7287156581878662
1725630146306908000,3.296907958984375,0.9168587327003479,-0.08178582042455673,-0.6749853491783142
1725630146316862000,3.306862060546875,0.8116419911384583,0.00716982688754797,-0.5885396599769592
1725630146326815000,3.31681494140625,0.7330542206764221,0.1372724324464798,-0.4160959720611572
1725630146336768000,3.32676806640625,0.7040036916732788,0.022437795996665955,-0.37267303466796875
1725630146346721000,3.336720947265625,0.6949340105056763,-0.13872338831424713,-0.4703708291053772
1725630146356674000,3.346674072265625,0.6923049092292786,-0.30703797936439514,-0.615146815776825
1725630146366627000,3.356626953125,0.6780535578727722,-0.3980605900287628,-0.693444013595581
1725630146376579800,3.366579833984375,0.6012201309204102,-0.35733380913734436,-0.6378183364868164
1725630146386532900,3.376532958984375,0.4834149181842804,-0.2100095897912979,-0.46432000398635864
1725630146396486000,3.38648583984375,0.42341217398643494,-0.13142025470733643,-0.2919183373451233
1725630146406439000,3.39643896484375,0.3714483082294464,-0.10414788872003555,-0.25240448117256165
1725630146416392700,3.406392822265625,0.3616326153278351,-0.18707174062728882,-0.276725709438324
1725630146426345700,3.416345703125,0.3049496114253998,-0.12182721495628357,-0.3032907545566559
1725630146436298800,3.426298828125,0.25203466415405273,-0.24556276202201843,-0.3868984282016754
1725630146446251800,3.436251708984375,0.1329873502254486,-0.0375555120408535,-0.3845929205417633
1725630146456204800,3.446204833984375,0.08161726593971252,-0.263923317193985,-0.4024159908294678
1725630146466157800,3.45615771484375,-0.04347780719399452,-0.11761031299829483,-0.3986681401729584
1725630146476110800,3.46611083984375,-0.12682104110717773,0.0011680953903123736,-0.16809991002082825
1725630146486063900,3.47606396484375,-0.2272629588842392,0.022257935255765915,0.12587952613830566
1725630146496017000,3.486016845703125,-0.2304334044456482,-0.19136588275432587,0.22158536314964294
1725630146505969700,3.4959697265625,-0.24517932534217834,-0.2932078242301941,0.14448630809783936
1725630146515922700,3.505922607421875,-0.25577816367149353,-0.4074173867702484,0.07821308821439743
1725630146525876700,3.515876708984375,-0.24301739037036896,-0.5613760948181152,0.05504864454269409
1725630146535829800,3.525829833984375,-0.1997062712907791,-0.5328960418701172,0.14719167351722717
1725630146545782800,3.53578271484375,-0.20029190182685852,-0.3496721386909485,0.30876031517982483
1725630146555735800,3.54573583984375,-0.247239351272583,-0.19722895324230194,0.4828011095523834
1725630146565688800,3.555688720703125,-0.26785725355148315,-0.09584668278694153,0.6753132939338684
1725630146575641900,3.565641845703125,-0.22623547911643982,-0.12818895280361176,0.5596111416816711
1725630146585595000,3.575594970703125,-0.16183865070343018,-0.25334951281547546,0.2753027081489563
1725630146595548000,3.5855478515625,-0.09431832283735275,-0.33492258191108704,0.22531116008758545
1725630146605501000,3.5955009765625,-0.024852167814970016,-0.2852509021759033,0.230630025267601
1725630146615454000,3.605453857421875,0.04031892865896225,-0.194664865732193,0.12909869849681854
1725630146625408000,3.615407958984375,0.08377399295568466,-0.17823636531829834,0.03361239656805992
1725630146635361000,3.625361083984375,0.08713442832231522,-0.10062762349843979,-0.027657954022288322
1725630146645314000,3.63531396484375,0.07355070859193802,0.04762176051735878,0.006833711173385382
1725630146655266800,3.645266845703125,0.019755758345127106,0.16105806827545166,0.11396881192922592
1725630146665219800,3.6552197265625,-0.030536441132426262,0.22737132012844086,0.11793532222509384
1725630146675172900,3.6651728515625,-0.06276583671569824,0.25906136631965637,0.03823188692331314
1725630146685126000,3.6751259765625,-0.09560660272836685,0.2803128659725189,0.005055291578173637
1725630146695079000,3.685078857421875,-0.12980449199676514,0.34214863181114197,-0.016769807785749435
1725630146705032000,3.695031982421875,-0.18759775161743164,0.42496228218078613,-0.050040677189826965
1725630146714985000,3.70498486328125,-0.22370991110801697,0.48293811082839966,-0.05207916721701622
1725630146724938800,3.714938720703125,-0.2782741189002991,0.4916714131832123,-0.05635353922843933
1725630146734891800,3.724891845703125,-0.2952524721622467,0.5285331010818481,0.03667677566409111
1725630146744844800,3.7348447265625,-0.3397746682167053,0.5021483302116394,0.0792016014456749
1725630146754797800,3.7447978515625,-0.3673346936702728,0.5678181648254395,0.1155756488442421
1725630146764750800,3.754750732421875,-0.4082890748977661,0.5514298677444458,0.12436594814062119
1725630146774703900,3.764703857421875,-0.39714372158050537,0.44918686151504517,0.06544587016105652
1725630146784656600,3.77465673828125,-0.34673431515693665,0.3500911593437195,-0.08506720513105392
1725630146794609700,3.784609619140625,-0.3425426185131073,0.31340524554252625,-0.19598783552646637
1725630146804562700,3.794562744140625,-0.34890997409820557,0.36666980385780334,-0.20157009363174438
1725630146814515700,3.804515625,-0.3865886926651001,0.4387459456920624,-0.12818928062915802
1725630146824469800,3.8144697265625,-0.36929863691329956,0.3374022841453552,-0.14242415130138397
1725630146834422800,3.8244228515625,-0.3460690379142761,0.19725190103054047,-0.22296389937400818
1725630146844375800,3.834375732421875,-0.39073529839515686,0.20419475436210632,-0.1866660714149475
1725630146854328800,3.844328857421875,-0.4371921122074127,0.213578999042511,-0.14691288769245148
1725630146864281900,3.85428173828125,-0.38590043783187866,0.01763850823044777,-0.2345932126045227
1725630146874235000,3.86423486328125,-0.36805710196495056,-0.06894867867231369,-0.3396831154823303
1725630146884188000,3.87418798828125,-0.36498355865478516,-0.1789042055606842,-0.37882357835769653
1725630146894139600,3.8841396484375,-0.4032202661037445,-0.15638098120689392,-0.32192176580429077
1725630146904092700,3.8940927734375,-0.4536797106266022,-0.06682499498128891,-0.22495631873607635
1725630146914045700,3.904045654296875,-0.48936185240745544,0.012501804158091545,-0.16377229988574982
1725630146923999700,3.913999755859375,-0.5268628597259521,-0.01472901739180088,-0.1266465038061142
1725630146933952800,3.923952880859375,-0.5542529821395874,-0.0759519711136818,-0.09578849375247955
1725630146943905800,3.93390576171875,-0.5754136443138123,-0.17584794759750366,-0.08047744631767273
1725630146953858800,3.94385888671875,-0.581479549407959,-0.2325759083032608,-0.054975781589746475
1725630146963811600,3.9538115234375,-0.5987014174461365,-0.2275015264749527,-0.02702350914478302
1725630146973764600,3.9637646484375,-0.6299806833267212,-0.14954634010791779,0.04328692704439163
1725630146983717600,3.973717529296875,-0.6477759480476379,-0.06462986022233963,0.12816080451011658
1725630146993670700,3.983670654296875,-0.670742928981781,-0.033647965639829636,0.17577458918094635
1725630147003623700,3.993623779296875,-0.6808900833129883,-0.057954367250204086,0.1811206191778183
1725630147013576700,4.00357666015625,-0.6559427380561829,-0.06611235439777374,0.26705414056777954
1725630147023529700,4.01352978515625,-0.6252956390380859,-0.0544290691614151,0.29942619800567627
1725630147033483800,4.02348388671875,-0.576056182384491,-0.08437898010015488,0.32731106877326965
1725630147043436800,4.033436767578125,-0.5983446836471558,0.0714537650346756,0.39763692021369934
1725630147053389800,4.043389892578125,-0.571579098701477,0.08709439635276794,0.4484482407569885
1725630147063342800,4.0533427734375,-0.6054633259773254,0.24730323255062103,0.49856919050216675
1725630147073296000,4.0632958984375,-0.6355892419815063,0.38506603240966797,0.5762854218482971
1725630147083249000,4.073248779296875,-0.6400729417800903,0.3815178871154785,0.6095949411392212
1725630147093201700,4.08320166015625,-0.6943728923797607,0.5623411536216736,0.673542320728302
1725630147103154700,4.09315478515625,-0.6978310346603394,0.627239465713501,0.7505503296852112
1725630147113107700,4.103107666015625,-0.7232446074485779,0.5552152395248413,0.6918851137161255
1725630147123060700,4.113060791015625,-0.7413988709449768,0.4223620891571045,0.49630817770957947
1725630147133014800,4.123014892578125,-0.7130690217018127,0.0750928595662117,0.194399893283844
1725630147142967800,4.1329677734375,-0.7671764492988586,0.07056335359811783,-0.025773227214813232
1725630147152920800,4.1429208984375,-0.7748980522155762,0.21818704903125763,0.1537826657295227
1725630147162873900,4.152873779296875,-0.6453821659088135,0.37990590929985046,0.40344202518463135
1725630147172827000,4.162826904296875,-0.5123875141143799,0.3609510362148285,0.5320693254470825
1725630147182780000,4.17277978515625,-0.46528100967407227,0.4299663305282593,0.6739441752433777
1725630147192733000,4.18273291015625,-0.45392459630966187,0.45682492852211,0.6723038554191589
1725630147202686000,4.19268603515625,-0.4982374906539917,0.43249082565307617,0.608271598815918
1725630147212639000,4.202638916015625,-0.4904717206954956,0.27728331089019775,0.3744797706604004
1725630147222591700,4.212591796875,-0.419423907995224,0.18355415761470795,0.3466406762599945
1725630147232545800,4.2225458984375,-0.3665691316127777,0.2339484840631485,0.47216400504112244
1725630147242498600,4.23249853515625,-0.2959498167037964,0.16397258639335632,0.4053910970687866
1725630147252451600,4.24245166015625,-0.26289036870002747,0.08495224267244339,0.3808486759662628
1725630147262404600,4.252404541015625,-0.2889712452888489,0.13677257299423218,0.36286672949790955
1725630147272357600,4.262357666015625,-0.33059629797935486,0.11275561898946762,0.23787221312522888
1725630147282310700,4.272310546875,-0.33002930879592896,0.020656587556004524,0.15695632994174957
1725630147292263700,4.282263671875,-0.2961835563182831,0.029830439016222954,0.16450807452201843
1725630147302216700,4.292216796875,-0.2511572241783142,-0.019062800332903862,0.10257094353437424
1725630147312169700,4.302169677734375,-0.19024960696697235,-0.03419678658246994,0.11556576937437057
1725630147322122800,4.312122802734375,-0.13336262106895447,-0.026960445567965508,0.1529427021741867
1725630147332076800,4.322076904296875,-0.0899069756269455,-0.09860420227050781,0.055034443736076355
1725630147342029800,4.33202978515625,-0.04837977513670921,-0.16581067442893982,-0.05817094072699547
1725630147351982800,4.34198291015625,0.008645374327898026,-0.09813439100980759,-0.04144268110394478
1725630147361936000,4.351935791015625,0.03334885463118553,-0.0494704470038414,-0.06587505340576172
1725630147371888600,4.361888671875,0.05647381767630577,-0.0794559195637703,-0.15259908139705658
1725630147381841700,4.371841552734375,0.10966220498085022,-0.05516602098941803,-0.19898495078086853
1725630147391794700,4.381794677734375,0.16931509971618652,-0.05449841544032097,-0.24079161882400513
1725630147401747700,4.391747802734375,0.23799669742584229,-0.08188450336456299,-0.295017272233963
1725630147411700700,4.40170068359375,0.2980278432369232,-0.11461390554904938,-0.30602458119392395
1725630147421653800,4.41165380859375,0.34496259689331055,-0.11397155374288559,-0.2756142020225525
1725630147431606800,4.421606689453125,0.36375191807746887,-0.10958749055862427,-0.25201910734176636
1725630147441560800,4.431560791015625,0.3817490339279175,-0.12765462696552277,-0.26811736822128296
1725630147451513900,4.441513916015625,0.41474854946136475,-0.15966381132602692,-0.2961389720439911
1725630147461467000,4.451466796875,0.4540182054042816,-0.1051105484366417,-0.29274851083755493
1725630147471420000,4.461419921875,0.4434202015399933,-0.13967664539813995,-0.3481941223144531
1725630147481373000,4.471373046875,0.41875454783439636,-0.09547802805900574,-0.3507547676563263
1725630147491326000,4.481325927734375,0.4001360535621643,-0.06169098988175392,-0.3377520740032196
1725630147501278700,4.49127880859375,0.40709781646728516,-0.07487364113330841,-0.35269296169281006
1725630147511231700,4.501231689453125,0.4281421899795532,-0.13280774652957916,-0.38731247186660767
1725630147521184800,4.511184814453125,0.48186373710632324,-0.16232383251190186,-0.3750837743282318
1725630147531137800,4.5211376953125,0.5527780055999756,-0.1545092910528183,-0.3213769197463989
1725630147541091600,4.531091552734375,0.5964040160179138,-0.16938143968582153,-0.3279693126678467
1725630147551044600,4.541044677734375,0.6360916495323181,-0.21680553257465363,-0.40548205375671387
1725630147560997600,4.55099755859375,0.6745684742927551,-0.32403531670570374,-0.48473718762397766
1725630147570950700,4.56095068359375,0.7464649677276611,-0.42800265550613403,-0.5595883727073669
1725630147580903700,4.570903564453125,0.7851431369781494,-0.41074058413505554,-0.4405152201652527
1725630147590856700,4.580856689453125,0.7690271139144897,-0.18335241079330444,-0.21501660346984863
1725630147600809700,4.590809814453125,0.7085065245628357,0.01759667694568634,-0.1842469722032547
1725630147610762800,4.6007626953125,0.6835526823997498,0.09200780093669891,-0.24760091304779053
1725630147620715800,4.6107158203125,0.7052627801895142,0.03227202594280243,-0.3603628873825073
1725630147630668500,4.62066845703125,0.7985733151435852,-0.03249918669462204,-0.4711700975894928
1725630147640622800,4.630622802734375,0.9307507872581482,-0.10586155951023102,-0.5629170536994934
1725630147650575600,4.64057568359375,1.0664316415786743,-0.16915133595466614,-0.6440409421920776
1725630147660528600,4.650528564453125,1.1450177431106567,-0.21198853850364685,-0.6612969040870667
1725630147670481700,4.660481689453125,1.1098793745040894,-0.11202491819858551,-0.6183550953865051
1725630147680434700,4.6704345703125,0.9710551500320435,0.06823087483644485,-0.5428230166435242
1725630147690387700,4.6803876953125,0.785879373550415,0.1483212262392044,-0.5440083742141724
1725630147700340700,4.6903408203125,0.6629287004470825,0.21854852139949799,-0.4891696274280548
1725630147710293800,4.700293701171875,0.48871082067489624,0.24708442389965057,-0.3944500684738159
1725630147720246800,4.710246826171875,0.3772159814834595,0.32704851031303406,-0.257563054561615
1725630147730199800,4.72019970703125,0.322860985994339,0.2750778794288635,-0.21728646755218506
1725630147740153900,4.73015380859375,0.2904511094093323,0.19116565585136414,-0.2785961627960205
1725630147750107000,4.74010693359375,0.27575886249542236,0.09774331003427505,-0.32613855600357056
1725630147760060000,4.750059814453125,0.2472848743200302,0.07627876102924347,-0.26305463910102844
1725630147770013000,4.760012939453125,0.286471426486969,0.011608329601585865,-0.29498738050460815
1725630147779965700,4.769965576171875,0.2030297964811325,0.17334237694740295,-0.24406559765338898
1725630147789918700,4.779918701171875,0.19918328523635864,0.18081694841384888,-0.19236686825752258
1725630147799871700,4.789871826171875,0.22850069403648376,0.13005709648132324,-0.07514384388923645
1725630147809824800,4.79982470703125,0.25990158319473267,-0.04780713841319084,0.04082255810499191
1725630147819777800,4.80977783203125,0.18119798600673676,-0.18981140851974487,0.08518735319375992
1725630147829730800,4.819730712890625,-0.0816209465265274,0.11196792870759964,0.04373836889863014
1725630147839683800,4.829683837890625,-0.25245073437690735,0.08303268253803253,0.021213088184595108
1725630147849637600,4.8396376953125,-0.39262133836746216,0.009472928941249847,0.03203332796692848
1725630147859590700,4.849590576171875,-0.4566189646720886,0.027998143807053566,0.1176864430308342
1725630147869543700,4.859543701171875,-0.44438672065734863,0.010648760013282299,0.2890216112136841
1725630147879496700,4.86949658203125,-0.35811442136764526,0.005652936641126871,0.3624127209186554
1725630147889449700,4.87944970703125,-0.23427027463912964,-0.05006091669201851,0.26596805453300476
1725630147899402800,4.88940283203125,-0.14779610931873322,-0.10043647140264511,0.18712544441223145
1725630147909355800,4.899355712890625,-0.11471745371818542,-0.14823971688747406,0.15858881175518036
1725630147919308800,4.909308837890625,-0.16055205464363098,-0.13135021924972534,0.24251142144203186
1725630147929261800,4.91926171875,-0.24733655154705048,-0.1386895775794983,0.3328496217727661
1725630147939214800,4.92921484375,-0.3067823052406311,-0.18861666321754456,0.33887583017349243
1725630147949169000,4.9391689453125,-0.33949190378189087,-0.32655608654022217,0.28366950154304504
1725630147959122000,4.949121826171875,-0.34595486521720886,-0.4227555990219116,0.1741321086883545
1725630147969075000,4.959074951171875,-0.32412049174308777,-0.43729689717292786,0.11008036136627197
1725630147979028000,4.969028076171875,-0.29744866490364075,-0.38900500535964966,0.11689431965351105
1725630147988981000,4.97898095703125,-0.2641463279724121,-0.3066033720970154,0.1300259530544281
1725630147998933800,4.988933837890625,-0.23187759518623352,-0.2497563511133194,0.15543438494205475
1725630148008886800,4.99888671875,-0.1841372847557068,-0.16196192800998688,0.24957971274852753
1725630148018839800,5.00883984375,-0.1732976883649826,-0.14429157972335815,0.27758631110191345
1725630148028792800,5.018792724609375,-0.1468200832605362,-0.15704762935638428,0.22553139925003052
1725630148038745900,5.028745849609375,-0.1357937902212143,-0.2675453722476959,0.14130333065986633
1725630148048699000,5.038698974609375,-0.17036446928977966,-0.29114851355552673,0.060287389904260635
1725630148058653000,5.04865283203125,-0.2123771607875824,-0.18315383791923523,0.09475534409284592
1725630148068606000,5.05860595703125,-0.2509686052799225,-0.04339827597141266,0.25790029764175415
1725630148078559000,5.06855908203125,-0.2635480463504791,-0.07034680247306824,0.30631816387176514
1725630148088512000,5.078511962890625,-0.21151307225227356,-0.19722016155719757,0.20837900042533875
1725630148098465000,5.088465087890625,-0.16194391250610352,-0.34026360511779785,0.08296967297792435
1725630148108418000,5.09841796875,-0.12357211112976074,-0.5161275267601013,-0.0793597474694252
1725630148118371000,5.10837109375,-0.06710244715213776,-0.6059042811393738,-0.2546657919883728
1725630148128323800,5.11832373046875,-0.037472326308488846,-0.6139107942581177,-0.3753211498260498
1725630148138276900,5.12827685546875,0.003522778395563364,-0.631067156791687,-0.33599451184272766
1725630148148230000,5.13822998046875,-0.06000465527176857,-0.4423908591270447,-0.2313551902770996
1725630148158184000,5.148183837890625,-0.10913784801959991,-0.37141281366348267,-0.1720479279756546
1725630148168137000,5.158136962890625,-0.1358996331691742,-0.360493004322052,-0.09372540563344955
1725630148178090000,5.168090087890625,-0.17668089270591736,-0.32586097717285156,-0.10733043402433395
1725630148188042800,5.178042724609375,-0.1489485502243042,-0.4058779776096344,-0.156441792845726
1725630148197995800,5.187995849609375,-0.16272135078907013,-0.43259134888648987,-0.19992853701114655
1725630148207948800,5.19794873046875,-0.26902487874031067,-0.35160917043685913,-0.1588338315486908
1725630148217901800,5.20790185546875,-0.41614028811454773,-0.131337508559227,-0.02611600235104561
1725630148227854800,5.217854736328125,-0.5359535217285156,0.1326472908258438,0.12427061051130295
1725630148237807900,5.227807861328125,-0.5732950568199158,0.20366047322750092,0.2240973263978958
1725630148247761000,5.237760986328125,-0.5804479122161865,0.20735280215740204,0.23720009624958038
1725630148257714000,5.2477138671875,-0.5333051681518555,-0.0008091917261481285,0.18437816202640533
1725630148267668000,5.25766796875,-0.49930059909820557,-0.1205393448472023,0.1376154124736786
1725630148277620700,5.267620849609375,-0.4994811713695526,-0.16165775060653687,0.06971999257802963
1725630148287573800,5.27757373046875,-0.562196671962738,-0.14562609791755676,0.03167720511555672
1725630148297526800,5.28752685546875,-0.6720864176750183,-0.01809503510594368,0.048334211111068726
1725630148307479800,5.297479736328125,-0.766401469707489,0.16631315648555756,0.22679449617862701
1725630148317432800,5.307432861328125,-0.7836827039718628,0.2690432667732239,0.37974515557289124
1725630148327385900,5.3173857421875,-0.744193434715271,0.2908676564693451,0.4545227885246277
1725630148337339000,5.3273388671875,-0.6824560165405273,0.23754717409610748,0.5787752270698547
1725630148347292000,5.3372919921875,-0.6877007484436035,0.22531653940677643,0.6184042692184448
1725630148357245000,5.347244873046875,-0.6980221271514893,0.14562463760375977,0.5645540952682495
1725630148367199000,5.357198974609375,-0.7258984446525574,0.06945580244064331,0.46304094791412354
1725630148377152000,5.367152099609375,-0.7740803360939026,0.04382021352648735,0.4345262050628662
1725630148387105000,5.37710498046875,-0.819342315196991,0.12132852524518967,0.47463756799697876
1725630148397058000,5.38705810546875,-0.8287578821182251,0.22226445376873016,0.521912693977356
1725630148407010800,5.3970107421875,-0.794879674911499,0.27516892552375793,0.5863495469093323
1725630148416963800,5.4069638671875,-0.7520765662193298,0.2923915982246399,0.621185839176178
1725630148426916900,5.416916748046875,-0.6935949325561523,0.28480416536331177,0.5944985151290894
1725630148436870000,5.426869873046875,-0.625691294670105,0.2291180044412613,0.5229657888412476
1725630148446823000,5.436822998046875,-0.5360795855522156,0.18312108516693115,0.48952916264533997
1725630148456776000,5.44677587890625,-0.437604695558548,0.2872304320335388,0.6098952293395996
1725630148466729000,5.45672900390625,-0.38024255633354187,0.31641891598701477,0.6451151371002197
1725630148476683000,5.46668310546875,-0.3464752733707428,0.19677239656448364,0.6201791167259216
1725630148486636000,5.476635986328125,-0.29880452156066895,0.13918669521808624,0.6701745986938477
1725630148496589000,5.486589111328125,-0.2438904345035553,-0.05819082260131836,0.6061649918556213
1725630148506542000,5.4965419921875,-0.16733576357364655,-0.23532962799072266,0.5301597714424133
1725630148516495000,5.5064951171875,-0.0782969668507576,-0.24549756944179535,0.5025404095649719
1725630148526448000,5.5164482421875,0.012064848095178604,-0.21622267365455627,0.42067500948905945
1725630148536401000,5.52640087890625,0.053422942757606506,-0.16721013188362122,0.43915867805480957
1725630148546354000,5.53635400390625,0.07179371267557144,-0.10017348825931549,0.4574458599090576
1725630148556307000,5.546306884765625,0.10142777115106583,-0.19658949971199036,0.3148103952407837
1725630148566260000,5.556260009765625,0.048180870711803436,-0.3688187301158905,0.1793460100889206
1725630148576213000,5.566212890625,0.0640338659286499,-0.33602750301361084,0.1134285256266594
1725630148586166800,5.576166748046875,0.08111627399921417,-0.3813331127166748,0.02118302509188652
1725630148596119800,5.586119873046875,0.13251368701457977,-0.37396442890167236,-0.009501649998128414
1725630148606072800,5.59607275390625,0.15477320551872253,-0.251895934343338,0.06775616109371185
1725630148616025900,5.60602587890625,0.17049092054367065,-0.13197219371795654,0.1009782999753952
1725630148625979000,5.615978759765625,0.17010897397994995,-0.07668663561344147,0.08460730314254761
1725630148635932000,5.625931884765625,0.17057663202285767,-0.08949590474367142,0.0020234775729477406
1725630148645885000,5.635885009765625,0.22096876800060272,-0.12499748915433884,-0.04344804957509041
1725630148655838000,5.645837890625,0.30062630772590637,-0.1565343737602234,-0.07940232008695602
1725630148665790700,5.655790771484375,0.38560163974761963,-0.19710639119148254,-0.110932856798172
1725630148675743700,5.66574365234375,0.45642921328544617,-0.22285088896751404,-0.13536018133163452
1725630148685696800,5.67569677734375,0.5316168069839478,-0.23337264358997345,-0.12694516777992249
1725630148695650800,5.68565087890625,0.5810948610305786,-0.21592947840690613,-0.10577036440372467
1725630148705603800,5.695603759765625,0.639741063117981,-0.15860086679458618,-0.09734656661748886
1725630148715556900,5.705556884765625,0.6899394989013672,-0.1816292256116867,-0.17615322768688202
1725630148725510000,5.715510009765625,0.7512578368186951,-0.1851796954870224,-0.19694598019123077
1725630148735463000,5.725462890625,0.7855367064476013,-0.17651616036891937,-0.2387932986021042
1725630148745416000,5.735416015625,0.797095537185669,-0.15207067131996155,-0.2957402467727661
1725630148755369000,5.745368896484375,0.7838878035545349,-0.05875590443611145,-0.3095093071460724
1725630148765322000,5.755322021484375,0.7771621346473694,0.026040367782115936,-0.30863410234451294
1725630148775275000,5.76527490234375,0.7722212076187134,0.08336198329925537,-0.3462432622909546
1725630148785228000,5.77522802734375,0.7829225063323975,0.11623059213161469,-0.41266584396362305
1725630148795180800,5.785180908203125,0.8260713219642639,0.1100001260638237,-0.49522221088409424
1725630148805135000,5.795135009765625,0.8983496427536011,0.04467909410595894,-0.6157658100128174
1725630148815087900,5.805087890625,0.9820277690887451,-0.09512194991111755,-0.7681598663330078
1725630148825041000,5.815041015625,1.0351492166519165,-0.15528525412082672,-0.7543954253196716
1725630148834994000,5.824993896484375,1.020989179611206,-0.05835258588194847,-0.6347795128822327
1725630148844947000,5.834947021484375,0.9775145053863525,0.11155914515256882,-0.5288456082344055
1725630148854900000,5.84489990234375,0.9103394746780396,0.19828978180885315,-0.5125308036804199
1725630148864853000,5.85485302734375,0.838114321231842,0.1784353405237198,-0.5409660339355469
1725630148874806000,5.864805908203125,0.7956036329269409,0.13567829132080078,-0.6696276068687439
1725630148884759000,5.874759033203125,0.8453658223152161,0.04093882068991661,-0.8308367729187012
1725630148894711600,5.884711669921875,0.8636382818222046,-0.11514878273010254,-0.9639785885810852
1725630148904665300,5.894665283203125,0.8480674624443054,0.09102300554513931,-0.8551697731018066
1725630148914618400,5.904618408203125,0.7128286957740784,0.35106655955314636,-0.6667433977127075
1725630148924571400,5.9145712890625,0.5335428714752197,0.6486215591430664,-0.43145129084587097
1725630148934524400,5.9245244140625,0.36015456914901733,0.7588460445404053,-0.33083146810531616
1725630148944477400,5.9344775390625,0.24527807533740997,0.7507240772247314,-0.33461642265319824
1725630148954430500,5.944430419921875,0.24305619299411774,0.6864175200462341,-0.33805936574935913
1725630148964383500,5.954383544921875,0.2689776122570038,0.4753556549549103,-0.3766627013683319
1725630148974336500,5.96433642578125,0.3300228714942932,0.3393384516239166,-0.3027418851852417
1725630148984289500,5.97428955078125,0.2901042699813843,0.4358375370502472,-0.08387892693281174
1725630148994242300,5.9842421875,0.22243040800094604,0.6045600175857544,0.12042254209518433
1725630149004195300,5.9941953125,0.15097911655902863,0.7154551148414612,0.19659535586833954
1725630149014148400,6.0041484375,0.05258624255657196,0.6314626932144165,0.07556186616420746
1725630149024102400,6.014102294921875,0.049507949501276016,0.5858514904975891,0.07182929664850235
1725630149034055400,6.024055419921875,-0.06154853105545044,0.6221408247947693,0.18361201882362366
1725630149044008400,6.034008544921875,-0.16694693267345428,0.7531472444534302,0.4461987316608429
1725630149053961500,6.04396142578125,-0.19634290039539337,0.8495438098907471,0.7050316333770752
1725630149063914500,6.05391455078125,-0.2445179969072342,0.6539232730865479,0.7118892073631287
1725630149073867500,6.063867431640625,-0.27115708589553833,0.5107921957969666,0.696323037147522
1725630149083820500,6.073820556640625,-0.15011602640151978,0.13176821172237396,0.6040688753128052
1725630149093773600,6.083773681640625,-0.01416432298719883,-0.1392238736152649,0.5256733894348145
1725630149103726600,6.0937265625,0.03547157347202301,-0.32505929470062256,0.40357720851898193
1725630149113679600,6.1036796875,-0.004193548578768969,-0.2495512068271637,0.3740091919898987
1725630149123633700,6.113633544921875,-0.13740870356559753,-0.047019150108098984,0.47389110922813416
1725630149133586700,6.123586669921875,-0.22078002989292145,0.04628682881593704,0.6378933787345886
1725630149143539500,6.13353955078125,-0.17887163162231445,0.009877368807792664,0.6898428797721863
1725630149153492500,6.143492431640625,-0.052235133945941925,-0.1842031627893448,0.5697636604309082
1725630149163445500,6.153445556640625,0.10296588391065598,-0.5296615362167358,0.27479588985443115
1725630149173398500,6.1633984375,0.22756588459014893,-0.7223074436187744,-0.030567754060029984
1725630149183351600,6.1733515625,0.2898574769496918,-0.7519001960754395,-0.3023662567138672
1725630149193304600,6.1833046875,0.26125380396842957,-0.7642537951469421,-0.4549667239189148
1725630149203257600,6.193257568359375,0.2238158881664276,-0.7755210995674133,-0.38732215762138367
1725630149213210600,6.203210693359375,0.17469067871570587,-0.7974024415016174,-0.3179289698600769
1725630149223163600,6.21316357421875,0.1509406864643097,-0.7802476286888123,-0.26566311717033386
1725630149233116700,6.22311669921875,0.12952646613121033,-0.7883955836296082,-0.20435288548469543
1725630149243070700,6.23307080078125,0.1437855213880539,-0.7861788272857666,-0.20179173350334167
1725630149253023700,6.243023681640625,0.17607128620147705,-0.7699567079544067,-0.29000282287597656
1725630149262976800,6.252976806640625,0.19460941851139069,-0.7393611073493958,-0.40856993198394775
1725630149272929500,6.262929443359375,0.15625910460948944,-0.6064413785934448,-0.3705807328224182
1725630149282882600,6.272882568359375,0.10983145982027054,-0.381745308637619,-0.23962955176830292
1725630149292835600,6.282835693359375,0.073139488697052,-0.2538589835166931,-0.24103091657161713
1725630149302788600,6.29278857421875,0.030848171561956406,-0.2069481611251831,-0.23100502789020538
1725630149312741600,6.30274169921875,-0.015529713593423367,-0.13737627863883972,-0.09781555086374283
1725630149322694700,6.312694580078125,-0.04347866028547287,-0.13177244365215302,-0.08333159238100052
1725630149332647700,6.322647705078125,-0.0792667493224144,-0.20465517044067383,-0.1796056628227234
1725630149342601500,6.3326015625,-0.13632455468177795,-0.24239608645439148,-0.23643463850021362
1725630149352554500,6.342554443359375,-0.20817558467388153,-0.18732671439647675,-0.20767542719841003
1725630149362507500,6.352507568359375,-0.2767060399055481,-0.0202457457780838,-0.09470922499895096
1725630149372460500,6.36246044921875,-0.3441564440727234,0.1913437396287918,0.05812186747789383
1725630149382413600,6.37241357421875,-0.4006420969963074,0.37600287795066833,0.1921026110649109
1725630149392366600,6.38236669921875,-0.36065900325775146,0.38186395168304443,0.1667567789554596
1725630149402319400,6.3923193359375,-0.27690210938453674,0.18669362366199493,-0.0037440978921949863
1725630149412272400,6.4022724609375,-0.26476234197616577,0.014565805904567242,-0.1504019796848297
1725630149422225400,6.412225341796875,-0.310981422662735,0.06634335964918137,-0.1657271385192871
1725630149432178400,6.422178466796875,-0.32338348031044006,0.2354213297367096,-0.0842389240860939
1725630149442131500,6.43213134765625,-0.2906215488910675,0.2672591209411621,0.016867773607373238
1725630149452084500,6.44208447265625,-0.2816821038722992,0.26863279938697815,0.08129417151212692
1725630149462038500,6.45203857421875,-0.29801490902900696,0.17282596230506897,0.07220472395420074
1725630149471991600,6.461991455078125,-0.38030391931533813,0.24179810285568237,0.11189354211091995
1725630149481944600,6.471944580078125,-0.30746179819107056,0.195164293050766,0.06353630870580673
1725630149491897600,6.481897705078125,-0.20287279784679413,-0.14295996725559235,-0.16199961304664612
1725630149501850600,6.4918505859375,-0.1990118771791458,-0.5134936571121216,-0.3845849931240082
1725630149511803600,6.5018037109375,-0.3676048815250397,-0.357758104801178,-0.27903246879577637
1725630149521756700,6.511756591796875,-0.5260434746742249,0.15791574120521545,0.02570533938705921
1725630149531709400,6.52170947265625,-0.5869603157043457,0.4338842034339905,0.15555573999881744
1725630149541662500,6.531662353515625,-0.6646896004676819,0.23131521046161652,0.09474191069602966
1725630149551615500,6.541615478515625,-0.789609968662262,-0.02957097813487053,0.015008200891315937
1725630149561568500,6.551568603515625,-0.8520950078964233,-0.03976747766137123,0.1824193000793457
1725630149571522600,6.5615224609375,-0.8581984043121338,-0.0009258073987439275,0.4206920266151428
1725630149581475600,6.5714755859375,-0.9165183901786804,0.036057423800230026,0.5936620235443115
1725630149591428600,6.5814287109375,-0.9749407172203064,0.10365244746208191,0.6882843971252441
1725630149601381600,6.591381591796875,-0.9847753643989563,0.22842422127723694,0.712142825126648
1725630149611334700,6.601334716796875,-1.0283706188201904,0.2757778763771057,0.6408939361572266
1725630149621287700,6.61128759765625,-1.0412014722824097,0.32034000754356384,0.5748135447502136
1725630149631240700,6.62124072265625,-1.037510633468628,0.28330475091934204,0.4275268614292145
1725630149641193700,6.63119384765625,-0.9964073896408081,0.24387630820274353,0.31177255511283875
1725630149651146800,6.641146728515625,-0.9105071425437927,0.27499639987945557,0.2860301733016968
1725630149661099500,6.651099609375,-0.8253198266029358,0.44297468662261963,0.43776291608810425
1725630149671052500,6.661052490234375,-0.7828271985054016,0.6075289845466614,0.5599508881568909
1725630149681006300,6.67100634765625,-0.780719518661499,0.6219069957733154,0.5346056222915649
1725630149690959400,6.68095947265625,-0.765034019947052,0.6028051972389221,0.506344735622406
1725630149700912400,6.690912353515625,-0.7439380288124084,0.5578755736351013,0.4569912552833557
1725630149710865400,6.700865478515625,-0.709588348865509,0.5163553357124329,0.40854570269584656
1725630149720818400,6.710818359375,-0.6794851422309875,0.43313589692115784,0.37156471610069275
1725630149730771500,6.720771484375,-0.6520944833755493,0.33219730854034424,0.3093327581882477
1725630149740724500,6.730724365234375,-0.596180260181427,0.28439217805862427,0.30494582653045654
1725630149750677500,6.740677490234375,-0.525127112865448,0.22962799668312073,0.3285134732723236
1725630149760630500,6.750630615234375,-0.4731614291667938,0.15144042670726776,0.37137728929519653
1725630149770583600,6.76058349609375,-0.4216865003108978,0.03399183228611946,0.3425898551940918
1725630149780536600,6.77053662109375,-0.3366696238517761,-0.19692394137382507,0.2237342894077301
1725630149790490600,6.78049072265625,-0.18668679893016815,-0.42058420181274414,0.07774192839860916
1725630149800443600,6.790443603515625,0.04087560251355171,-0.515494167804718,0.05684620887041092
1725630149810396400,6.800396484375,0.15573745965957642,-0.4312485158443451,0.21503745019435883
1725630149820349400,6.810349365234375,0.19368711113929749,-0.3200017809867859,0.17299890518188477
1725630149830302500,6.820302490234375,0.1299203783273697,-0.4317842423915863,0.03341250121593475
1725630149840255500,6.83025537109375,0.01931900344789028,-0.28782227635383606,0.0010332886595278978
1725630149850208500,6.84020849609375,0.052609317004680634,-0.2128303200006485,0.09580720216035843
1725630149860161500,6.85016162109375,0.051457785069942474,-0.30299049615859985,0.15884239971637726
1725630149870114600,6.860114501953125,0.11758434027433395,-0.4036848843097687,0.18765246868133545
1725630149880067600,6.870067626953125,0.2342643439769745,-0.35451483726501465,0.27142608165740967
1725630149890020600,6.8800205078125,0.3593207895755768,-0.33928582072257996,0.22834786772727966
1725630149899975000,6.889974853515625,0.49738961458206177,-0.4870429039001465,0.031012557446956635
1725630149909928000,6.899927978515625,0.6176390647888184,-0.6233648061752319,-0.12100706994533539
1725630149919880700,6.909880615234375,0.6998471021652222,-0.5391474962234497,-0.1466219276189804
1725630149929833700,6.919833740234375,0.7300058007240295,-0.4318296015262604,-0.18893928825855255
1725630149939786800,6.929786865234375,0.7462296485900879,-0.36058884859085083,-0.2299959361553192
1725630149949739800,6.93973974609375,0.7599515914916992,-0.3134053349494934,-0.2519930899143219
1725630149959692800,6.94969287109375,0.7417982816696167,-0.30302613973617554,-0.3466530442237854
1725630149969645800,6.959645751953125,0.7487355470657349,-0.33422693610191345,-0.504784107208252
1725630149979598800,6.969598876953125,0.8061428070068359,-0.2717275023460388,-0.5023345947265625
1725630149989551900,6.9795517578125,0.8721023797988892,-0.18835830688476562,-0.46069392561912537
1725630149999505000,6.9895048828125,0.9197003245353699,-0.1794120818376541,-0.5172806978225708
1725630150009458700,6.999458740234375,0.9377789497375488,-0.12631957232952118,-0.49872806668281555
1725630150019411700,7.00941162109375,0.8667613863945007,-0.06178854778409004,-0.48741385340690613
1725630150029364700,7.01936474609375,0.8904787302017212,-0.06455157697200775,-0.6296221613883972
1725630150039317800,7.02931787109375,0.9399743676185608,0.03100094571709633,-0.5086745023727417
1725630150049270500,7.0392705078125,0.9101413488388062,0.10743925720453262,-0.432405561208725
1725630150059223600,7.0492236328125,0.8111913800239563,0.10772991180419922,-0.618353009223938
1725630150069176600,7.059176513671875,0.766838550567627,0.0912550613284111,-0.6846166849136353
1725630150079129600,7.069129638671875,0.7071545124053955,0.014861625619232655,-0.6459541916847229
1725630150089082600,7.07908251953125,0.6485711336135864,-0.0050103492103517056,-0.504130482673645
1725630150099035600,7.08903564453125,0.628969669342041,0.1040826216340065,-0.2400580495595932
1725630150108988700,7.09898876953125,0.6628634333610535,0.18610984086990356,-0.002950417110696435
1725630150118942700,7.108942626953125,0.6052480340003967,0.09628483653068542,-0.03442366048693657
1725630150128895700,7.118895751953125,0.5640254616737366,0.0817335918545723,-0.1552475541830063
1725630150138848800,7.128848876953125,0.5538267493247986,0.11584557592868805,-0.34346622228622437
1725630150148801800,7.1388017578125,0.5735045671463013,0.1289171725511551,-0.5804997682571411
1725630150158754800,7.1487548828125,0.5669112205505371,0.18039435148239136,-0.7177851796150208
1725630150168707800,7.158707763671875,0.5839034914970398,0.31134331226348877,-0.6240573525428772
1725630150178660600,7.16866064453125,0.5511578321456909,0.4028182327747345,-0.46131715178489685
1725630150188613600,7.178613525390625,0.47643810510635376,0.36456698179244995,-0.36311522126197815
1725630150198566700,7.188566650390625,0.38523373007774353,0.3425494134426117,-0.23897461593151093
1725630150208519700,7.198519775390625,0.30743691325187683,0.29956358671188354,-0.12985558807849884
1725630150218473700,7.2084736328125,0.2969266474246979,0.22536656260490417,-0.06853373348712921
1725630150228426800,7.2184267578125,0.2818440794944763,0.19780337810516357,-0.08318831026554108
1725630150238379800,7.2283798828125,0.27398481965065,0.24057918787002563,-0.10847548395395279
1725630150248332800,7.238332763671875,0.26205599308013916,0.298905611038208,-0.10898520797491074
1725630150258285800,7.248285888671875,0.2673727571964264,0.4189758002758026,-0.08388205617666245
1725630150268238800,7.25823876953125,0.2719331681728363,0.4662801921367645,-0.0508950799703598
1725630150278191900,7.26819189453125,0.30709847807884216,0.45455679297447205,0.010731167159974575
1725630150288145000,7.278144775390625,0.31725364923477173,0.3474884033203125,0.06704211235046387
1725630150298098000,7.288097900390625,0.2753680944442749,0.31949475407600403,0.108502596616745
1725630150308050700,7.29805078125,0.2188241332769394,0.31311407685279846,0.1649797260761261
1725630150318003700,7.308003662109375,0.1726786196231842,0.24377556145191193,0.21404699981212616
1725630150327957500,7.31795751953125,0.17772024869918823,0.14546683430671692,0.2388777881860733
1725630150337910500,7.32791064453125,0.08704273402690887,0.19928689301013947,0.19741478562355042
1725630150347863600,7.337863525390625,0.13879087567329407,-0.03183074668049812,0.12939153611660004
1725630150357816600,7.347816650390625,0.14237534999847412,0.005589254200458527,0.13985781371593475
1725630150367769600,7.35776953125,0.10233977437019348,-0.028880838304758072,0.03228021785616875
1725630150377722600,7.36772265625,0.062412235885858536,-0.10968835651874542,-0.01219550147652626
1725630150387675600,7.377675537109375,0.049345169216394424,-0.18853923678398132,0.0876741036772728
1725630150397628700,7.387628662109375,0.035755641758441925,-0.13051742315292358,0.1894012689590454
1725630150407581700,7.397581787109375,0.012327544391155243,-0.06883781403303146,0.33552810549736023
1725630150417535700,7.40753564453125,0.0068582408130168915,-0.06862690299749374,0.4475068151950836
1725630150427488800,7.41748876953125,0.014142785221338272,-0.2181314378976822,0.4288763999938965
1725630150437441800,7.42744189453125,-0.0359567366540432,-0.15175214409828186,0.45306065678596497
1725630150447394800,7.437394775390625,-0.07823042571544647,-0.10955622792243958,0.48364493250846863
1725630150457347600,7.44734765625,-0.062216516584157944,-0.15872779488563538,0.46325695514678955
1725630150467300600,7.457300537109375,0.030264150351285934,-0.28510838747024536,0.38007739186286926
1725630150477253600,7.467253662109375,0.1562245488166809,-0.33986374735832214,0.2753547728061676
1725630150487206700,7.47720654296875,0.22393888235092163,-0.31737789511680603,0.0832739993929863
1725630150497159700,7.48715966796875,0.24948395788669586,-0.33531203866004944,-0.28352686762809753
1725630150507112700,7.49711279296875,0.19437623023986816,-0.2599549889564514,-0.5601802468299866
1725630150517066800,7.507066650390625,0.06898848712444305,-0.07814782112836838,-0.49391838908195496
1725630150527019800,7.517019775390625,-0.09061209112405777,0.026037439703941345,-0.25123172998428345
1725630150536972800,7.526972900390625,-0.23431266844272614,0.05380488559603691,0.00442258408293128
1725630150546925800,7.53692578125,-0.30164507031440735,-0.0013561060186475515,0.17683082818984985
1725630150556878800,7.54687890625,-0.31658998131752014,-0.13402563333511353,0.10086797177791595
1725630150566831900,7.556831787109375,-0.27226030826568604,-0.23440229892730713,-0.10008297860622406
1725630150576785000,7.566784912109375,-0.22049127519130707,-0.28370237350463867,-0.203417107462883
1725630150586737700,7.576737548828125,-0.21115289628505707,-0.27135196328163147,-0.2582707703113556
1725630150596690700,7.586690673828125,-0.3325931429862976,-0.1219923347234726,-0.2721569836139679
1725630150606644700,7.596644775390625,-0.4571446478366852,0.03780905157327652,-0.12687966227531433
1725630150616597800,7.60659765625,-0.5405303835868835,0.12767638266086578,0.034752409905195236
1725630150626550800,7.61655078125,-0.566501259803772,0.16508446633815765,0.11699880659580231
1725630150636503800,7.62650390625,-0.5032170414924622,0.0896371528506279,0.15303108096122742
1725630150646456800,7.636456787109375,-0.49954932928085327,0.08883793652057648,0.12683036923408508
1725630150656409900,7.646409912109375,-0.4711783230304718,0.05678177252411842,0.11468260735273361
1725630150666363000,7.65636279296875,-0.499482661485672,0.1945960968732834,0.09172509610652924
1725630150676316000,7.66631591796875,-0.4643741548061371,0.14900760352611542,0.08106788992881775
1725630150686269000,7.67626904296875,-0.47100701928138733,0.07723195850849152,0.053613368421792984
1725630150696222700,7.68622265625,-0.5003362894058228,0.02747231349349022,0.08085809648036957
1725630150706175700,7.69617578125,-0.49197718501091003,0.07377323508262634,0.09619470685720444
1725630150716128800,7.706128662109375,-0.46036002039909363,0.051991600543260574,0.0643608570098877
1725630150726081800,7.716081787109375,-0.5280386805534363,0.17463628947734833,0.12637655436992645
1725630150736034600,7.72603466796875,-0.4924167990684509,0.19183938205242157,0.2725379765033722
1725630150745987600,7.735987548828125,-0.5120706558227539,0.2346065491437912,0.2480323761701584
1725630150755940600,7.745940673828125,-0.45770832896232605,-0.06431145966053009,0.14458848536014557
1725630150765893600,7.7558935546875,-0.49286580085754395,-0.11433547735214233,0.060233671218156815
1725630150775846700,7.7658466796875,-0.5493392944335938,0.014557256363332272,0.12545724213123322
1725630150785800700,7.77580078125,-0.6204116344451904,0.284819632768631,0.22818975150585175
1725630150795753700,7.785753662109375,-0.6488690972328186,0.29890987277030945,0.23157170414924622
1725630150805706800,7.795706787109375,-0.7147162556648254,0.20758424699306488,0.24286963045597076
1725630150815659800,7.80565966796875,-0.7668401598930359,0.1944098174571991,0.3990898132324219
1725630150825612800,7.81561279296875,-0.8151949048042297,0.2216489017009735,0.5801248550415039
1725630150835565800,7.82556591796875,-0.8439953327178955,0.2051425576210022,0.7279990315437317
1725630150845518800,7.835518798828125,-0.8895255327224731,0.16665828227996826,0.8019776940345764
1725630150855471900,7.845471923828125,-0.8948100805282593,0.1276756227016449,0.7953024506568909
1725630150865424600,7.855424560546875,-0.8950074315071106,0.10015770047903061,0.7343757152557373
1725630150875379000,7.86537890625,-0.8677133917808533,0.20449085533618927,0.7275916337966919
1725630150885331700,7.875331787109375,-0.844719648361206,0.25795382261276245,0.6825096011161804
1725630150895284700,7.88528466796875,-0.840358316898346,0.1947319358587265,0.5736401081085205
1725630150905237800,7.89523779296875,-0.858515202999115,0.17243275046348572,0.4809786081314087
1725630150915190800,7.905190673828125,-0.8157560229301453,0.20915919542312622,0.4252510964870453
1725630150925143800,7.915143798828125,-0.7839565873146057,0.2413938343524933,0.42354509234428406
1725630150935096600,7.9250966796875,-0.6953245997428894,0.29348382353782654,0.4269028306007385
1725630150945049600,7.935049560546875,-0.6095284819602966,0.2324063777923584,0.38306373357772827
1725630150955002600,7.945002685546875,-0.4990513324737549,0.22419008612632751,0.36522823572158813
1725630150964955600,7.95495556640625,-0.38520732522010803,0.21662457287311554,0.34722182154655457
1725630150974909400,7.964909423828125,-0.3389257788658142,0.21295896172523499,0.36648494005203247
1725630150984862500,7.974862548828125,-0.3262515366077423,0.18930663168430328,0.31709155440330505
1725630150994815500,7.9848154296875,-0.26722732186317444,0.13386598229408264,0.2649880051612854
1725630151004768500,7.9947685546875,-0.1984383910894394,0.16400709748268127,0.2873694598674774
1725630151014721500,8.004721435546875,-0.14757028222084045,0.08616893738508224,0.21732409298419952
1725630151024674600,8.014674560546876,-0.1135752946138382,-0.04556619003415108,0.13251280784606934
1725630151034627600,8.024627685546875,-0.06090674176812172,-0.1273089200258255,0.07645470649003983
1725630151044580600,8.03458056640625,-0.05258862301707268,-0.16312071681022644,0.03838535025715828
1725630151054533600,8.04453369140625,-0.03079514019191265,-0.18083643913269043,0.0009680188377387822
1725630151064487700,8.05448779296875,-0.025052832439541817,-0.11382943391799927,-0.012383739463984966
1725630151074440700,8.064440673828125,0.029839226976037025,-0.054889366030693054,-0.0028208536095917225
1725630151084393500,8.0743935546875,0.05597948655486107,-0.031083637848496437,-0.057045210152864456
1725630151094346500,8.084346435546875,0.09590519964694977,-0.13858115673065186,-0.21597518026828766
1725630151104299500,8.094299560546874,0.12180843949317932,-0.2301238626241684,-0.33542701601982117
1725630151114252500,8.10425244140625,0.16468235850334167,-0.25490543246269226,-0.44334471225738525
1725630151124205600,8.11420556640625,0.17802666127681732,-0.1945752501487732,-0.3806096911430359
1725630151134158600,8.12415869140625,0.18658149242401123,-0.12742432951927185,-0.32829996943473816
1725630151144111600,8.134111572265626,0.24699848890304565,-0.05478740856051445,-0.29891809821128845
1725630151154065700,8.144065673828125,0.3248575031757355,-0.00310452445410192,-0.28619930148124695
1725630151164018700,8.154018798828124,0.413805216550827,-0.07853802293539047,-0.40278610587120056
1725630151173971700,8.1639716796875,0.5362423062324524,-0.23478186130523682,-0.554234504699707
1725630151183924700,8.1739248046875,0.6538160443305969,-0.279114693403244,-0.6148853302001953
1725630151193877800,8.183877685546875,0.7013489603996277,-0.22346439957618713,-0.6133555769920349
1725630151203830800,8.193830810546874,0.7217658162117004,-0.12522518634796143,-0.602519154548645
1725630151213783600,8.203783447265625,0.7261965274810791,-0.07386808097362518,-0.6080889701843262
1725630151223736600,8.213736572265624,0.7072396278381348,-0.009787633083760738,-0.5968847870826721
1725630151233689600,8.223689697265625,0.6720578670501709,-0.033515654504299164,-0.6751036643981934
1725630151243643600,8.2336435546875,0.6483280062675476,-0.06756976246833801,-0.7141938209533691
1725630151253596700,8.2435966796875,0.6672680377960205,0.005768726579844952,-0.6281886696815491
1725630151263549400,8.253549560546874,0.6853117346763611,-0.07446938753128052,-0.6663166284561157
1725630151273502500,8.26350244140625,0.7289475202560425,-0.13544787466526031,-0.6833536028862
1725630151283455500,8.27345556640625,0.7399498224258423,-0.08680231124162674,-0.6569134593009949
1725630151293408500,8.283408447265625,0.7333013415336609,0.09049546718597412,-0.5631368160247803
1725630151303361500,8.293361572265624,0.6873825788497925,0.24390660226345062,-0.48940104246139526
1725630151313314600,8.303314453125,0.654176652431488,0.33099499344825745,-0.47212764620780945
1725630151323267600,8.313267578125,0.6100326180458069,0.3703993856906891,-0.4582400619983673
1725630151333221600,8.3232216796875,0.5660566687583923,0.37998631596565247,-0.5102763175964355
1725630151343174700,8.333174560546874,0.5835802555084229,0.2662893235683441,-0.6589605808258057
1725630151353127700,8.343127685546875,0.6585461497306824,0.0814056396484375,-0.7561351656913757
1725630151363080400,8.35308056640625,0.7143638730049133,0.010272074490785599,-0.6947823762893677
1725630151373033500,8.363033447265625,0.7202351689338684,0.13492481410503387,-0.5254453420639038
1725630151382986500,8.372986572265624,0.6623915433883667,0.3363785743713379,-0.34747377038002014
1725630151392939500,8.382939453125,0.5814412832260132,0.3814230263233185,-0.3209701180458069
1725630151402892500,8.392892578125,0.5452558398246765,0.32088619470596313,-0.2947012186050415
1725630151412845600,8.402845458984375,0.5199843645095825,0.22873041033744812,-0.20912882685661316
1725630151422798600,8.412798583984374,0.4550713896751404,0.18037299811840057,-0.15292228758335114
1725630151432752600,8.422752685546875,0.36200591921806335,0.26747745275497437,-0.12490628659725189
1725630151442705700,8.43270556640625,0.28545069694519043,0.35793358087539673,-0.1515597403049469
1725630151452658700,8.44265869140625,0.247075155377388,0.451707661151886,-0.058009881526231766
1725630151462611700,8.45261181640625,0.2495122104883194,0.48119285702705383,0.04400197044014931
1725630151472564700,8.462564697265625,0.36109253764152527,0.31828129291534424,0.007916479371488094
1725630151482517800,8.472517822265624,0.3995046317577362,0.3886667788028717,0.05116648226976395
1725630151492470500,8.482470458984375,0.4250772297382355,0.3315087854862213,-0.020615849643945694
1725630151502423600,8.492423583984374,0.30517157912254333,0.4763573110103607,-0.045949436724185944
1725630151512376600,8.50237646484375,0.23637308180332184,0.4000937044620514,-0.031226681545376778
1725630151522330600,8.51233056640625,0.1662432700395584,0.3399507403373718,-0.03348211571574211
1725630151532283600,8.52228369140625,0.12299653142690659,0.2824714779853821,0.03908420354127884
1725630151542236700,8.532236572265624,0.15234509110450745,0.20718525350093842,0.135858952999115
1725630151552189700,8.542189697265625,0.13216499984264374,0.2446117252111435,0.22446417808532715
1725630151562142700,8.552142822265624,0.11424911767244339,0.10926614701747894,0.19162820279598236
1725630151572095700,8.562095703125,0.164207324385643,0.07964915782213211,0.25240182876586914
1725630151582048800,8.572048828125,0.07202733308076859,0.10112062096595764,0.24337905645370483
1725630151592001800,8.582001708984375,0.04137757420539856,-0.02108493261039257,0.14236344397068024
1725630151601954800,8.591954833984374,-0.09722131490707397,0.012527620419859886,0.14780162274837494
1725630151611908600,8.60190869140625,-0.11381372064352036,-0.02630181610584259,0.2241196185350418
1725630151621861600,8.611861572265624,-0.07859714329242706,-0.024385672062635422,0.3775049149990082
1725630151631814700,8.621814697265625,-0.0730859711766243,-0.015543997287750244,0.39241325855255127
1725630151641767400,8.631767333984374,-0.05270479619503021,-0.17142094671726227,0.2986673414707184
1725630151651720400,8.641720458984375,-0.08293601125478745,-0.29990148544311523,0.28748688101768494
1725630151661673500,8.651673583984374,-0.1295975148677826,-0.322040319442749,0.2596190273761749
1725630151671626500,8.66162646484375,-0.12725268304347992,-0.3376414179801941,0.24861247837543488
1725630151681579500,8.67157958984375,-0.07697833329439163,-0.408180296421051,0.18828602135181427
1725630151691532500,8.681532470703125,-0.024961378425359726,-0.5514938235282898,0.041598740965127945
1725630151701486600,8.691486572265624,0.013791875913739204,-0.6587662100791931,-0.11286992579698563
1725630151711439600,8.701439697265625,0.047500867396593094,-0.6518979668617249,-0.1996874064207077
1725630151721392600,8.711392578125,0.051779765635728836,-0.6332409381866455,-0.20709019899368286
1725630151731345700,8.721345703125,0.009032214060425758,-0.5605405569076538,-0.2161318063735962
1725630151741298700,8.731298583984374,-0.04451516270637512,-0.43352267146110535,-0.10517439246177673
1725630151751251700,8.741251708984375,-0.0899399071931839,-0.43424227833747864,-0.04761495441198349
1725630151761204700,8.751204833984374,-0.11330275237560272,-0.480692595243454,-0.04643118008971214
1725630151771157500,8.761157470703125,-0.16359063982963562,-0.4327218234539032,-0.010500524193048477
1725630151781110500,8.771110595703124,-0.1955520361661911,-0.4074915647506714,0.0148711446672678
1725630151791063600,8.7810634765625,-0.17512738704681396,-0.5284559726715088,-0.08529082685709
1725630151801017600,8.791017578125,-0.09549248218536377,-0.6589929461479187,-0.24175047874450684
1725630151810970600,8.800970703125,-0.053246017545461655,-0.6389057040214539,-0.28848785161972046
1725630151820923600,8.810923583984374,-0.09893760085105896,-0.36603665351867676,-0.24009498953819275
1725630151830876700,8.820876708984375,-0.10125791281461716,-0.27427366375923157,-0.10740118473768234
1725630151840829700,8.83082958984375,-0.1434229463338852,-0.0861586332321167,-0.04732080176472664
1725630151850782700,8.84078271484375,-0.10860611498355865,-0.1058930903673172,-0.04246978461742401
1725630151860735700,8.85073583984375,-0.07342416048049927,-0.19359205663204193,-0.07613106817007065
1725630151870688800,8.860688720703125,-0.047231219708919525,-0.2827659249305725,-0.1436973512172699
1725630151880641800,8.870641845703124,-0.11349385976791382,-0.08671785145998001,-0.10306096076965332
1725630151890595600,8.880595703125,-0.17347483336925507,0.004121008329093456,-0.053458552807569504
1725630151900549400,8.89054931640625,-0.24542012810707092,0.17132118344306946,0.030643010511994362
1725630151910502400,8.90050244140625,-0.2907825708389282,0.2350330650806427,0.13942119479179382
1725630151920455400,8.910455322265625,-0.37884053587913513,0.29834094643592834,0.16809597611427307
1725630151930408400,8.920408447265626,-0.4130402207374573,0.24367859959602356,0.17305906116962433
1725630151940361200,8.930361328125,-0.40028342604637146,0.1572640836238861,0.16572178900241852
1725630151950314200,8.940314208984375,-0.4230080842971802,0.15613389015197754,0.12594078481197357
1725630151960267300,8.950267333984375,-0.483733206987381,0.14763040840625763,0.06463002413511276
1725630151970220300,8.96022021484375,-0.5566127896308899,0.20656158030033112,0.10568903386592865
1725630151980173300,8.97017333984375,-0.5893438458442688,0.27249982953071594,0.2687669098377228
1725630151990127400,8.98012744140625,-0.6684282422065735,0.3005048334598541,0.2503463625907898
1725630152000080400,8.990080322265625,-0.6805387139320374,0.1954074651002884,0.2457454651594162
1725630152010033400,9.000033447265626,-0.7220429182052612,0.19058607518672943,0.26288992166519165
1725630152019986400,9.009986328125,-0.7199315428733826,0.04972882568836212,0.2477911412715912
1725630152029939500,9.019939453125,-0.8055112957954407,0.19862696528434753,0.3033376634120941
1725630152039892500,9.029892578125,-0.864299476146698,0.18875809013843536,0.33058738708496094
1725630152049845500,9.039845458984376,-0.9184523224830627,0.1920875906944275,0.3715142011642456
1725630152059798500,9.049798583984375,-0.9374257326126099,0.2921689450740814,0.49696001410484314
1725630152069751300,9.059751220703125,-0.9089064598083496,0.30805352330207825,0.5465207695960999
1725630152079704300,9.069704345703125,-0.8863292336463928,0.26836681365966797,0.5484493970870972
1725630152089658400,9.079658447265626,-0.8772855401039124,0.2846202552318573,0.5234428644180298
1725630152099611400,9.089611328125,-0.8678348064422607,0.30851975083351135,0.5239232778549194
1725630152109564400,9.099564453125,-0.8815906643867493,0.2529495060443878,0.4734521210193634
1725630152119517400,9.109517333984375,-0.853596031665802,0.22343318164348602,0.4694842994213104
1725630152129470500,9.119470458984376,-0.7967023849487305,0.3190096616744995,0.550108790397644
1725630152139423500,9.129423583984375,-0.7198659181594849,0.34449291229248047,0.5674890875816345
1725630152149376500,9.13937646484375,-0.6616610288619995,0.3388262987136841,0.556747555732727
1725630152159329500,9.14932958984375,-0.5754185914993286,0.29301807284355164,0.5047229528427124
1725630152169282600,9.159282470703126,-0.49597346782684326,0.21681007742881775,0.42839938402175903
1725630152179236400,9.169236328125,-0.46929845213890076,0.17921103537082672,0.3615354001522064
1725630152189189400,9.179189453125,-0.3688705861568451,0.201324000954628,0.3411458730697632
1725630152199142400,9.189142333984375,-0.3448755145072937,0.2719307839870453,0.40672674775123596
1725630152209095400,9.199095458984376,-0.3484196960926056,0.2967926859855652,0.3983164131641388
1725630152219048200,9.209048095703125,-0.321302592754364,0.2176579236984253,0.32076913118362427
1725630152229001200,9.219001220703126,-0.2905289828777313,0.15555071830749512,0.2617079019546509
1725630152238954200,9.228954345703125,-0.22408205270767212,0.06621631979942322,0.1537467986345291
1725630152248907300,9.2389072265625,-0.16554436087608337,0.019703712314367294,0.15642671287059784
1725630152258860300,9.2488603515625,-0.1329062581062317,-0.030423903837800026,0.09911920875310898
1725630152268813300,9.258813232421875,-0.11897861212491989,-0.015359006822109222,0.1378948837518692
1725630152278767400,9.268767333984375,-0.09121941775083542,0.041725851595401764,0.16570360958576202
1725630152288720400,9.278720458984376,-0.089602030813694,0.013220230117440224,0.15871655941009521
1725630152298673400,9.28867333984375,-0.05086928606033325,-0.06693878769874573,0.13005588948726654
1725630152308626400,9.29862646484375,0.0023902845568954945,-0.12628355622291565,0.016561519354581833
1725630152318579500,9.308579345703125,0.03833097219467163,-0.23481535911560059,-0.06826654821634293
1725630152328532500,9.318532470703126,0.07685305178165436,-0.2554486393928528,-0.08189015090465546
1725630152338485500,9.328485595703125,0.12166260927915573,-0.21697822213172913,-0.0517069436609745
1725630152348438300,9.338438232421876,0.1383897364139557,-0.20230239629745483,-0.05416940152645111
1725630152358391300,9.348391357421875,0.1598162055015564,-0.226236492395401,-0.09249761700630188
1725630152368345300,9.358345458984376,0.1899855136871338,-0.2723327577114105,-0.14434154331684113
1725630152378298400,9.36829833984375,0.236704021692276,-0.31982889771461487,-0.16868841648101807
1725630152388251400,9.37825146484375,0.2937045991420746,-0.45314666628837585,-0.2321486622095108
1725630152398204400,9.388204345703125,0.3263155519962311,-0.4585379660129547,-0.2635880708694458
1725630152408157400,9.398157470703126,0.3766994774341583,-0.4105078876018524,-0.2491629719734192
1725630152418110500,9.4081103515625,0.4269740879535675,-0.39633825421333313,-0.2864309847354889
1725630152428063500,9.4180634765625,0.49018141627311707,-0.34599336981773376,-0.2948794364929199
1725630152438016500,9.4280166015625,0.5203052163124084,-0.3414154052734375,-0.3489799499511719
1725630152447969500,9.437969482421876,0.5817179083824158,-0.36953455209732056,-0.45759955048561096
1725630152457922600,9.447922607421875,0.6577213406562805,-0.33856359124183655,-0.45947760343551636
1725630152467876400,9.45787646484375,0.7219052314758301,-0.30669671297073364,-0.4562986493110657
1725630152477829400,9.467829345703125,0.7448102831840515,-0.28453201055526733,-0.49213147163391113
1725630152487782400,9.477782470703126,0.753822386264801,-0.2707752585411072,-0.571925699710846
1725630152497735200,9.487735107421875,0.7569566965103149,-0.19289858639240265,-0.5556430816650391
1725630152507688200,9.497688232421876,0.764076828956604,-0.09940624237060547,-0.5256516337394714
1725630152517641200,9.50764111328125,0.7754586935043335,-0.05688567832112312,-0.5279526114463806
1725630152527594200,9.51759423828125,0.7761117815971375,-0.04191124066710472,-0.5303514003753662
1725630152537547300,9.52754736328125,0.7569271922111511,-0.055710677057504654,-0.5616733431816101
1725630152547500300,9.537500244140626,0.7358251214027405,-0.07279547303915024,-0.5644892454147339
1725630152557453300,9.547453369140625,0.7145246267318726,-0.05646097660064697,-0.5163952708244324
1725630152567407400,9.557407470703126,0.7099268436431885,0.004867758601903915,-0.45862388610839844
1725630152577360400,9.5673603515625,0.7085816860198975,0.08297906816005707,-0.37911227345466614
1725630152587313400,9.5773134765625,0.6897382736206055,0.08730633556842804,-0.42533642053604126
1725630152597266400,9.587266357421875,0.6928791999816895,0.14895957708358765,-0.39022210240364075
1725630152607219500,9.597219482421876,0.6867098808288574,0.1512673795223236,-0.3513835072517395
1725630152617172500,9.60717236328125,0.6990315318107605,0.10199225693941116,-0.378654807806015
1725630152627125200,9.617125244140626,0.715966522693634,0.04813317209482193,-0.34597107768058777
1725630152637078300,9.627078369140625,0.6811028122901917,0.030774153769016266,-0.3039376139640808
1725630152647031300,9.63703125,0.6593478322029114,0.12651923298835754,-0.19530127942562103
1725630152656984300,9.646984375,0.6368106007575989,0.19850793480873108,-0.11162875592708588
1725630152666938400,9.6569384765625,0.6079509854316711,0.20645903050899506,-0.12503618001937866
1725630152676891400,9.666891357421875,0.6006373763084412,0.16085931658744812,-0.19381791353225708
1725630152686844400,9.676844482421876,0.5967381000518799,0.06297565251588821,-0.3142869472503662
1725630152696797400,9.68679736328125,0.5563744306564331,0.044570811092853546,-0.30936914682388306
1725630152706750500,9.69675048828125,0.44768401980400085,0.12778091430664062,-0.2799214720726013
1725630152716703500,9.706703369140625,0.338510125875473,0.31614017486572266,-0.14711949229240417
1725630152726656500,9.716656494140626,0.24328306317329407,0.36155056953430176,0.007552310824394226
1725630152736609500,9.726609619140625,0.15179549157619476,0.4715428352355957,0.0856577679514885
1725630152746562600,9.7365625,0.15597352385520935,0.3646901845932007,0.0682651624083519
1725630152756515300,9.746515380859375,0.183436319231987,0.2305116057395935,0.006102725863456726
1725630152766469400,9.756469482421876,0.14929968118667603,0.3255086839199066,-0.04242276772856712
1725630152776422100,9.766422119140625,0.19003619253635406,0.16687962412834167,-0.05902118235826492
1725630152786375200,9.776375244140626,0.03702127933502197,0.37717404961586,0.03908707574009895
1725630152796328200,9.786328125,0.08455764502286911,0.27870339155197144,0.13009794056415558
1725630152806281200,9.79628125,-0.03133736550807953,0.3139776587486267,0.10094643384218216
1725630152816234200,9.806234130859375,0.03368504345417023,0.05849847570061684,0.07262531667947769
1725630152826187300,9.816187255859376,0.04285608232021332,0.09031452238559723,0.06405003368854523
1725630152836140300,9.826140380859375,0.021766776219010353,0.12670210003852844,-0.05111090838909149
1725630152846093300,9.83609326171875,0.03231322765350342,0.0773751437664032,0.007522703614085913
1725630152856047400,9.84604736328125,-0.061626847833395004,0.26869794726371765,0.014069287106394768
1725630152866000400,9.85600048828125,-0.10727828741073608,0.24728602170944214,0.13112768530845642
1725630152875953400,9.865953369140625,-0.15697580575942993,0.22174684703350067,0.24307739734649658
1725630152885906400,9.875906494140626,-0.17321227490901947,0.22600360214710236,0.3146841824054718
1725630152895859500,9.885859375,-0.16699272394180298,0.20257870852947235,0.3343356251716614
1725630152905812200,9.895812255859376,-0.15347197651863098,0.07983806729316711,0.23029065132141113
1725630152915765200,9.90576513671875,-0.15388530492782593,-0.050785455852746964,0.1435224711894989
1725630152925718300,9.91571826171875,-0.16903339326381683,-0.0942685529589653,0.11669253557920456
1725630152935671300,9.92567138671875,-0.18919645249843597,-0.09854745864868164,0.12414805591106415
1725630152945624300,9.935624267578126,-0.18413697183132172,-0.09557332843542099,0.15761823952198029
1725630152955578400,9.945578369140625,-0.1818930059671402,-0.10157689452171326,0.1551889032125473
1725630152965531400,9.955531494140626,-0.18168862164020538,-0.1438485085964203,0.08557099848985672
1725630152975484400,9.965484375,-0.179885134100914,-0.2465037852525711,-0.035219866782426834
1725630152985437400,9.9754375,-0.1623193621635437,-0.3392326533794403,-0.143207386136055
1725630152995390500,9.985390380859375,-0.16383469104766846,-0.39058345556259155,-0.16235817968845367
1725630153005343500,9.995343505859376,-0.1987888664007187,-0.3276563882827759,-0.08075281977653503
1725630153015296500,10.005296630859375,-0.23963749408721924,-0.2395544946193695,0.04215659201145172
1725630153025249500,10.01524951171875,-0.2524646818637848,-0.229115292429924,0.11732791364192963
1725630153035202300,10.025202392578125,-0.24179287254810333,-0.2477201372385025,0.15725402534008026
1725630153045155300,10.0351552734375,-0.21466891467571259,-0.22136171162128448,0.2263059765100479
1725630153055109400,10.045109375,-0.2169555127620697,-0.2565343379974365,0.24019302427768707
1725630153065062400,10.0550625,-0.2013048529624939,-0.3479546010494232,0.17094172537326813
1725630153075015400,10.065015380859375,-0.21982766687870026,-0.38160815834999084,0.11596262454986572
1725630153084968400,10.074968505859376,-0.21696443855762482,-0.39597460627555847,0.13985423743724823
1725630153094921500,10.08492138671875,-0.2726311683654785,-0.3446464240550995,0.14165480434894562
1725630153104874500,10.09487451171875,-0.20334261655807495,-0.49766823649406433,0.15415829420089722
1725630153114827500,10.10482763671875,-0.23208238184452057,-0.4929238259792328,0.04770722612738609
1725630153124780500,10.114780517578126,-0.17948871850967407,-0.6348761916160583,-0.003659297479316592
1725630153134733300,10.1247333984375,-0.1932269036769867,-0.6270701885223389,-0.0395299457013607
1725630153144686300,10.134686279296876,-0.28299111127853394,-0.46341508626937866,0.07798326015472412
1725630153154640400,10.144640380859375,-0.3773767352104187,-0.32494693994522095,0.2090294361114502
1725630153164593400,10.154593505859374,-0.441751629114151,-0.210471048951149,0.29383543133735657
1725630153174546400,10.16454638671875,-0.4556543827056885,-0.13858088850975037,0.3603326976299286
1725630153184499200,10.174499267578126,-0.46512430906295776,-0.14867238700389862,0.34998467564582825
1725630153194452200,10.1844521484375,-0.38966283202171326,-0.1328982263803482,0.37111926078796387
1725630153204405200,10.1944052734375,-0.3161334991455078,-0.2136986255645752,0.2886362671852112
1725630153214358300,10.204358154296875,-0.3016355335712433,-0.30199307203292847,0.1729874312877655
1725630153224311300,10.214311279296876,-0.44674351811408997,-0.14732152223587036,0.14224320650100708
1725630153234264300,10.224264404296875,-0.5427579283714294,-0.05258142203092575,0.1482696682214737
1725630153244217300,10.23421728515625,-0.5490472316741943,-0.004354240372776985,0.26175975799560547
1725630153254171400,10.24417138671875,-0.52963787317276,-0.005614447873085737,0.4052703380584717
1725630153264124400,10.25412451171875,-0.5153051018714905,-0.046941664069890976,0.505882203578949
1725630153274077400,10.264077392578125,-0.4861040711402893,-0.054223280400037766,0.5579624176025391
1725630153284030500,10.274030517578124,-0.4456554353237152,-0.14039616286754608,0.49919265508651733
1725630153293983500,10.2839833984375,-0.41209879517555237,-0.27466851472854614,0.46615082025527954
1725630153303936500,10.2939365234375,-0.4272443950176239,-0.29574283957481384,0.42981648445129395
1725630153313889300,10.30388916015625,-0.4166642129421234,-0.2738055884838104,0.538006067276001
1725630153323842300,10.31384228515625,-0.4621945023536682,-0.052597153931856155,0.6272386908531189
1725630153333795300,10.32379541015625,-0.4599968492984772,-0.02066851407289505,0.6834079623222351
1725630153343748400,10.333748291015626,-0.44102516770362854,-0.007255221717059612,0.7426515221595764
1725630153353702400,10.343702392578125,-0.4298391044139862,-0.04982931166887283,0.6899028420448303
1725630153363655400,10.353655517578124,-0.42995408177375793,-0.05084437131881714,0.6429228782653809
1725630153373608400,10.3636083984375,-0.448664128780365,-0.02648470737040043,0.5983726978302002
1725630153383561500,10.3735615234375,-0.47012028098106384,0.11661466211080551,0.6490746140480042
1725630153393514500,10.383514404296875,-0.4409054219722748,0.19772203266620636,0.6666730642318726
1725630153403467500,10.393467529296874,-0.46937909722328186,0.14937427639961243,0.6236864924430847
1725630153413420500,10.403420654296875,-0.4458002746105194,0.14893750846385956,0.6217035055160522
1725630153423373600,10.41337353515625,-0.41819924116134644,0.088008813560009,0.5839943289756775
1725630153433326600,10.42332666015625,-0.398316353559494,-0.04949472099542618,0.4207569360733032
1725630153443279400,10.433279296875,-0.3588048815727234,-0.12508738040924072,0.2818761169910431
1725630153453233400,10.4432333984375,-0.3464986979961395,-0.0006951256073080003,0.28151389956474304
1725630153463186200,10.453186279296874,-0.24185624718666077,0.12547768652439117,0.2970436215400696
1725630153473139200,10.46313916015625,-0.19178377091884613,0.01864444650709629,0.2389315813779831
1725630153483092200,10.47309228515625,-0.11383752524852753,0.003195064142346382,0.22455918788909912
1725630153493045200,10.483045166015625,-0.0461072102189064,0.028306275606155396,0.17346565425395966
1725630153502998300,10.492998291015626,-0.004088310990482569,-0.021188270300626755,0.01869974285364151
1725630153512951300,10.502951416015625,0.049248676747083664,-0.012023533694446087,-0.049867067486047745
1725630153522904300,10.512904296875,0.15994156897068024,0.055508602410554886,-0.06758318096399307
1725630153532857300,10.522857421875,0.1598411649465561,0.11019235104322433,-0.07519369572401047
1725630153542810400,10.532810302734376,0.1795530915260315,0.22294500470161438,-0.07702169567346573
1725630153552764400,10.542764404296875,0.18399789929389954,0.18024733662605286,-0.16980302333831787
1725630153562717400,10.552717529296874,0.23281796276569366,0.16639770567417145,-0.22257697582244873
1725630153572670500,10.56267041015625,0.2648821473121643,0.21776369214057922,-0.2550784945487976
1725630153582623500,10.57262353515625,0.24186143279075623,0.22160056233406067,-0.2698415219783783
1725630153592576300,10.582576171875,0.21754038333892822,0.21937762200832367,-0.2705560326576233
1725630153602529300,10.592529296875,0.18212531507015228,0.15113817155361176,-0.3093997538089752
1725630153612482300,10.602482421875,0.20386949181556702,0.1289236694574356,-0.33196285367012024
1725630153622435300,10.612435302734376,0.23318924009799957,0.10011062771081924,-0.3642048239707947
1725630153632388400,10.622388427734375,0.2748008668422699,0.11698149144649506,-0.3591592013835907
1725630153642341400,10.63234130859375,0.39771485328674316,0.0012772276531904936,-0.37865394353866577
1725630153652295400,10.64229541015625,0.4026941657066345,0.05525071546435356,-0.5116069316864014
1725630153662248400,10.65224853515625,0.4594523310661316,0.08485223352909088,-0.5663401484489441
1725630153672201500,10.662201416015625,0.5187543034553528,0.1548057496547699,-0.6049925088882446
1725630153682154500,10.672154541015624,0.5416771173477173,0.270835816860199,-0.570877194404602
1725630153692107500,10.682107421875,0.5410706996917725,0.3347412943840027,-0.6118219494819641
1725630153702060500,10.692060546875,0.5476456880569458,0.3816992938518524,-0.6457343697547913
1725630153712013600,10.702013671875,0.5285984873771667,0.5157065987586975,-0.5732932090759277
1725630153721966300,10.71196630859375,0.5430838465690613,0.3951227068901062,-0.7142834663391113
1725630153731919400,10.72191943359375,0.5723437666893005,-0.01170310378074646,-1.0218921899795532
1725630153741872400,10.731872314453126,0.6243647933006287,-0.02471647784113884,-0.9981861710548401
1725630153751826200,10.741826171875,0.672616183757782,0.18522264063358307,-0.8404841423034668
1725630153761779200,10.751779296875,0.6685071587562561,0.27063706517219543,-0.7857258319854736
1725630153771732200,10.761732177734375,0.6682555079460144,0.2921338379383087,-0.7798069715499878
1725630153781685200,10.771685302734374,0.6470324397087097,0.403735876083374,-0.6521640419960022
1725630153791638300,10.78163818359375,0.5558910369873047,0.43219736218452454,-0.637677013874054
1725630153801591300,10.79159130859375,0.49306780099868774,0.341309130191803,-0.7536137700080872
1725630153811544300,10.80154443359375,0.4901100993156433,0.36344319581985474,-0.7262487411499023
1725630153821497300,10.811497314453124,0.5004236102104187,0.4406219720840454,-0.614119291305542
1725630153831450400,10.821450439453125,0.4973473846912384,0.47229039669036865,-0.5700165629386902
1725630153841403400,10.8314033203125,0.5031095743179321,0.5012344717979431,-0.5322797298431396
1725630153851357400,10.841357421875,0.47849687933921814,0.5131502151489258,-0.46350759267807007
1725630153861310500,10.851310546875,0.4536767601966858,0.4895811378955841,-0.39610356092453003
1725630153871263200,10.86126318359375,0.4052756726741791,0.39476966857910156,-0.39459437131881714
1725630153881216300,10.87121630859375,0.37288376688957214,0.3271775245666504,-0.3607969582080841
1725630153891169300,10.881169189453125,0.3337041139602661,0.32295507192611694,-0.30631905794143677
1725630153901121800,10.891121826171876,0.3131812512874603,0.3420260548591614,-0.24982374906539917
1725630153911074800,10.90107470703125,0.32428476214408875,0.3177177906036377,-0.2067585587501526
1725630153921027800,10.91102783203125,0.3197980225086212,0.28065556287765503,-0.22429721057415009
1725630153930980900,10.92098095703125,0.30254632234573364,0.28163960576057434,-0.20848442614078522
1725630153940935000,10.930934814453124,0.29483696818351746,0.19602014124393463,-0.1971834897994995
1725630153950888000,10.940887939453125,0.23046225309371948,0.17169669270515442,-0.14257563650608063
1725630153960841000,10.950841064453124,0.10414896160364151,0.22417186200618744,-0.041673921048641205
1725630153970794000,10.9607939453125,0.02506585791707039,0.30575433373451233,0.05955096706748009
1725630153980747000,10.9707470703125,-0.016460882499814034,0.3504870533943176,0.19059619307518005
1725630153990700000,10.980699951171875,-0.01987212710082531,0.31390905380249023,0.2903667390346527
1725630154000653000,10.990653076171874,-0.09679289907217026,0.43776923418045044,0.3790254294872284
1725630154010605800,11.000605712890625,-0.12330280244350433,0.40452075004577637,0.47513893246650696
1725630154020558800,11.010558837890626,-0.044634949415922165,0.253343790769577,0.431973397731781
1725630154030511900,11.020511962890625,0.042133767157793045,0.05802302807569504,0.2790994346141815
1725630154040466000,11.0304658203125,0.053432364016771317,0.05645255744457245,0.18710072338581085
1725630154050419000,11.0404189453125,0.0702504962682724,0.05634842813014984,0.2445395141839981
1725630154060372000,11.0503720703125,0.009915538132190704,0.19257842004299164,0.1922927051782608
1725630154070325000,11.060324951171875,0.06747151166200638,0.11281569302082062,0.07954032719135284
1725630154080278000,11.070278076171874,0.0801144391298294,-0.1462470144033432,0.028979085385799408
1725630154090231000,11.08023095703125,0.08945361524820328,-0.15275657176971436,0.0065480791963636875
1725630154100184000,11.09018408203125,0.02776847593486309,-0.030885403975844383,0.10673011839389801
1725630154110137000,11.10013720703125,-0.13346008956432343,0.17395855486392975,0.1553405374288559
1725630154120090000,11.110090087890624,-0.1322704404592514,-0.060489390045404434,0.25604474544525146
1725630154130043000,11.12004296875,-0.1505620926618576,-0.08551883697509766,0.3060000538825989
1725630154139997000,11.129996826171874,-0.15900635719299316,-0.09555599093437195,0.3221893906593323
1725630154149950000,11.139949951171875,-0.15527287125587463,-0.15850086510181427,0.31124910712242126
1725630154159902700,11.14990283203125,-0.12166407704353333,-0.34845879673957825,0.14902082085609436
1725630154169855700,11.159855712890625,-0.06791429221630096,-0.48684704303741455,0.02764912322163582
1725630154179808800,11.169808837890624,-0.0695222020149231,-0.3850333094596863,0.0630272924900055
1725630154189761800,11.17976171875,-0.13392223417758942,-0.22177647054195404,0.19445376098155975
1725630154199714800,11.18971484375,-0.1794569492340088,-0.19353888928890228,0.3042979836463928
1725630154209667800,11.199667724609375,-0.20205359160900116,-0.23644934594631195,0.37448906898498535
1725630154219620900,11.209620849609376,-0.2020367830991745,-0.36322829127311707,0.2895675599575043
1725630154229574000,11.219573974609375,-0.15046200156211853,-0.4858790934085846,0.15383127331733704
1725630154239527000,11.22952685546875,-0.08137533068656921,-0.5610842108726501,-0.004421813413500786
1725630154249481000,11.23948095703125,-0.07614541053771973,-0.5417142510414124,-0.05305219814181328
1725630154259434000,11.24943408203125,-0.10555166006088257,-0.49840864539146423,-0.017893360927700996
1725630154269387000,11.259386962890625,-0.12624496221542358,-0.5000776052474976,-0.003931739367544651
1725630154279340000,11.269340087890624,-0.12291309982538223,-0.42807266116142273,0.04468030482530594
1725630154289292800,11.279292724609375,-0.1581707000732422,-0.17312480509281158,0.2396220862865448
1725630154299245800,11.289245849609374,-0.24125972390174866,0.12864623963832855,0.4931880533695221
1725630154309198800,11.29919873046875,-0.3326506018638611,0.38600319623947144,0.7844441533088684
1725630154319151900,11.30915185546875,-0.40605419874191284,0.36997899413108826,0.8534128069877625
1725630154329105000,11.31910498046875,-0.43409568071365356,0.04307970777153969,0.7079898118972778
1725630154339059000,11.329058837890624,-0.3801842927932739,-0.22254793345928192,0.5512518882751465
1725630154349012000,11.339011962890625,-0.3222759962081909,-0.40479734539985657,0.327158659696579
1725630154358965000,11.348965087890624,-0.27584612369537354,-0.5004339814186096,0.10181398689746857
1725630154368918000,11.35891796875,-0.18168525397777557,-0.6397998929023743,-0.1147039383649826
1725630154378871000,11.36887109375,-0.09199123084545135,-0.781700074672699,-0.2656767666339874
1725630154388824000,11.378823974609375,-0.012433556839823723,-0.7672470808029175,-0.30273759365081787
1725630154398777000,11.388777099609374,0.015459492802619934,-0.6919620037078857,-0.36505624651908875
1725630154408729900,11.398729736328125,-0.03768602013587952,-0.47264906764030457,-0.2913300693035126
1725630154418683000,11.408682861328124,-0.052401162683963776,-0.3286939561367035,-0.13771827518939972
1725630154428636000,11.418635986328125,-0.07328727841377258,-0.3179912269115448,-0.00504624517634511
1725630154438589700,11.428589599609374,-0.06936410814523697,-0.3354315161705017,-0.039291102439165115
1725630154448542700,11.438542724609375,-0.04216497763991356,-0.4314696192741394,-0.03950974717736244
1725630154458495700,11.448495849609374,-0.03640271723270416,-0.3666260242462158,-0.011169490404427052
1725630154468448800,11.45844873046875,-0.0579836443066597,-0.3308733403682709,0.02534564398229122
1725630154478401800,11.46840185546875,-0.0869828537106514,-0.19688522815704346,0.07490386813879013
1725630154488354800,11.478354736328125,-0.11804436892271042,-0.10628394782543182,0.17078033089637756
1725630154498307800,11.488307861328124,-0.1284089833498001,-0.057612646371126175,0.1704554557800293
1725630154508260900,11.4982607421875,-0.10687119513750076,-0.04224221035838127,0.12422829121351242
1725630154518214000,11.5082138671875,-0.02796928398311138,-0.14146851003170013,0.16798987984657288
1725630154528167000,11.5181669921875,-0.035643450915813446,-0.05822848528623581,0.09210176765918732
1725630154538121000,11.528120849609374,0.005930643063038588,-0.13511839509010315,-0.005744060035794973
1725630154548074000,11.538073974609375,-0.017061224207282066,0.014029811136424541,0.037728846073150635
1725630154558027000,11.548027099609374,-0.030545750632882118,-0.034781310707330704,0.06301288306713104
1725630154567979800,11.557979736328125,-0.07990957051515579,-0.08564608544111252,0.017843004316091537
1725630154577932800,11.567932861328124,-0.09179285168647766,-0.10131274908781052,0.046633221209049225
1725630154587885800,11.5778857421875,-0.08622685074806213,-0.07135804742574692,0.1839069277048111
1725630154597838800,11.5878388671875,-0.10012835264205933,-0.08733368664979935,0.1897149533033371
1725630154607791900,11.5977919921875,-0.12434820085763931,-0.09260621666908264,0.14699065685272217
1725630154617745000,11.607744873046874,-0.163024440407753,0.010963729582726955,0.19823136925697327
1725630154627698000,11.617697998046875,-0.188519686460495,0.1369275152683258,0.23846374452114105
1725630154637652000,11.62765185546875,-0.21429136395454407,0.2127673327922821,0.17737442255020142
1725630154647605000,11.63760498046875,-0.2193252593278885,0.2664385437965393,0.16074857115745544
1725630154657558000,11.64755810546875,-0.1762518435716629,0.317922979593277,0.14398792386054993
1725630154667511000,11.657510986328125,-0.0946722999215126,0.25522685050964355,0.011940141208469868
1725630154677464000,11.667464111328124,-0.015887949615716934,0.046271178871393204,-0.08526929467916489
1725630154687416800,11.677416748046875,-0.08290693163871765,0.07544317841529846,-0.12833420932292938
1725630154697369900,11.687369873046874,-0.128403440117836,0.1028476431965828,-0.10707197338342667
1725630154707323000,11.697322998046875,-0.18060913681983948,0.1677137315273285,-0.03273382782936096
1725630154717276000,11.70727587890625,-0.20356392860412598,0.1699780970811844,0.008330334909260273
1725630154727229000,11.71722900390625,-0.23047997057437897,0.03930823877453804,-0.06839373707771301
1725630154737183000,11.727182861328124,-0.2014765590429306,-0.025265773758292198,-0.051541294902563095
1725630154747136000,11.737135986328125,-0.17055512964725494,-0.007470797281712294,-0.0393352285027504
1725630154757089000,11.747089111328124,-0.13252680003643036,-0.012544287368655205,-0.03711647540330887
1725630154767042000,11.7570419921875,-0.10740521550178528,-0.03731940686702728,-0.07595361769199371
1725630154776994800,11.766994873046874,-0.10723693668842316,-0.1117972657084465,-0.10192830860614777
1725630154786947800,11.77694775390625,-0.12153491377830505,-0.09678688645362854,-0.0713496282696724
1725630154796900900,11.78690087890625,-0.12613928318023682,-0.07912051677703857,-0.06052437797188759
1725630154806854000,11.79685400390625,-0.13357776403427124,-0.029726337641477585,-0.035462699830532074
1725630154816807000,11.806806884765624,-0.10818755626678467,0.03169715031981468,0.047687795013189316
1725630154826761000,11.816760986328125,-0.07369402796030045,-0.01622883230447769,0.06798241287469864
1725630154836713700,11.826713623046874,-0.07187144458293915,-0.1510431468486786,-0.020372457802295685
1725630154846666800,11.836666748046875,-0.05748318135738373,-0.14017851650714874,-0.05903782695531845
1725630154856619800,11.846619873046874,-0.010685734450817108,-0.06818188726902008,-0.029582412913441658
1725630154866572800,11.85657275390625,0.01403186097741127,-0.04135826602578163,-0.024944251403212547
1725630154876525800,11.86652587890625,0.03908054903149605,-0.07229065150022507,-0.09940390288829803
1725630154886478800,11.876478759765625,0.07663537561893463,-0.16523870825767517,-0.1556064486503601
1725630154896431900,11.886431884765624,0.10835371911525726,-0.23608693480491638,-0.20545043051242828
1725630154906385000,11.896385009765625,0.11893819272518158,-0.2555389106273651,-0.26338404417037964
1725630154916338000,11.906337890625,0.11985448747873306,-0.16361550986766815,-0.2033369541168213
1725630154926291000,11.916291015625,0.11165621131658554,-0.005672213155776262,-0.023728054016828537
1725630154936245000,11.926244873046874,0.10677303373813629,-0.018705368041992188,-0.054272495210170746
1725630154946198000,11.936197998046875,0.11951759457588196,-0.002919746795669198,-0.06592541933059692
1725630154956151000,11.946151123046874,0.13452796638011932,0.18755513429641724,0.12094797939062119
1725630154966103800,11.956103759765625,0.16784437000751495,0.1850440502166748,0.07434213161468506
1725630154976056800,11.966056884765624,0.16995736956596375,-0.02103530988097191,-0.019362173974514008
1725630154986009900,11.976009765625,0.13918881118297577,-0.26521843671798706,-0.07557059079408646
1725630154995963000,11.985962890625,0.11288345605134964,-0.26699066162109375,-0.023876192048192024
1725630155005916000,11.995916015625,0.05682098865509033,-0.06729353964328766,0.1509195864200592
1725630155015869000,12.005868896484374,0.006869637873023748,-0.10238377749919891,0.1469268947839737
1725630155025823000,12.015822998046875,-0.009908543899655342,-0.247444286942482,0.06083302199840546
1725630155035776000,12.02577587890625,-0.01911460980772972,-0.25973883271217346,0.061572227627038956
1725630155045729000,12.03572900390625,-0.01567966490983963,-0.2523016631603241,0.07799860835075378
1725630155055682000,12.04568212890625,0.007165018934756517,-0.26467186212539673,0.02748207002878189
1725630155065635000,12.055635009765625,0.015487929806113243,-0.3026956617832184,-0.022196803241968155
1725630155075588000,12.065588134765624,0.013950474560260773,-0.24697905778884888,0.0941634401679039
1725630155085541000,12.075541015625,0.018777986988425255,-0.23321637511253357,0.06618000566959381
1725630155095494000,12.085493896484374,0.00018099136650562286,-0.07932258397340775,0.19875986874103546
1725630155105447000,12.095447021484375,-0.02462129294872284,0.14351263642311096,0.4081157445907593
1725630155115400000,12.10539990234375,-0.03520148992538452,0.22757068276405334,0.4461757242679596
1725630155125353700,12.115353759765625,-0.027692971751093864,0.12568692862987518,0.376585990190506
1725630155135306800,12.125306640625,0.021992262452840805,-0.03339378163218498,0.31360864639282227
1725630155145259800,12.135259765625,0.07489809393882751,-0.12001549452543259,0.268686443567276
1725630155155212800,12.145212890625,0.09808611869812012,-0.15158985555171967,0.15837614238262177
1725630155165165800,12.155165771484375,0.09843020141124725,0.04129757359623909,0.24403910338878632
1725630155175118800,12.165118896484374,0.0652015283703804,0.10008695721626282,0.17669539153575897
1725630155185071900,12.17507177734375,0.030452599748969078,0.09577396512031555,0.10991741716861725
1725630155195025000,12.18502490234375,-0.00011640693992376328,0.05041734129190445,0.12176678329706192
1725630155204978000,12.19497802734375,-0.023861683905124664,-0.11583635210990906,0.03477756306529045
1725630155214931000,12.204930908203124,-0.028994353488087654,-0.24625012278556824,-0.05202189087867737
1725630155224885000,12.214885009765625,-0.03556596860289574,-0.16897903382778168,0.02643696777522564
1725630155234838000,12.224838134765625,-0.050759971141815186,-0.0840686783194542,-0.021157357841730118
1725630155244790800,12.234790771484375,-0.06299932301044464,0.08921469002962112,-0.0203352402895689
1725630155254743800,12.244743896484374,-0.051189322024583817,0.24092933535575867,0.03898853063583374
1725630155264696800,12.25469677734375,-0.07584619522094727,0.18117305636405945,-0.07599370926618576
1725630155274649900,12.26464990234375,-0.08107903599739075,0.1278226375579834,-0.16459715366363525
1725630155284603000,12.274602783203125,-0.08016583323478699,0.1539120376110077,-0.12395944446325302
1725630155294556000,12.284555908203124,-0.12282448261976242,0.18287870287895203,-0.012227766215801239
