time,seconds_elapsed,z,y,x
1725629101829793500,0.02479345703125,-0.7427156567573547,-0.23621177673339844,-0.8241755962371826
1725629101839746600,0.03474658203125,-0.7647202610969543,-0.6659594178199768,-0.917689859867096
1725629101849699600,0.044699462890625,-0.8459470868110657,-0.8310455679893494,-0.8858277797698975
1725629101859653400,0.0546533203125,-0.8547828793525696,-0.9284416437149048,-0.639668881893158
1725629101869606400,0.0646064453125,-0.8575149774551392,-1.1724060773849487,-0.4181126356124878
1725629101879559200,0.07455908203125,-0.943611204624176,-1.2858260869979858,-0.20353031158447266
1725629101889512200,0.08451220703125,-1.4066383838653564,0.06421943008899689,0.387596994638443
1725629101899465200,0.09446533203125,-1.6973472833633423,0.8447780609130859,0.833759605884552
1725629101909418200,0.104418212890625,-1.5938754081726074,-0.36396074295043945,0.8902923464775085
1725629101919371300,0.114371337890625,-1.467334270477295,-1.2432427406311035,0.6951438784599304
1725629101929324300,0.12432421875,-1.338196039199829,-0.7407025098800659,0.9016605019569397
1725629101939277300,0.13427734375,-1.0336185693740845,0.22270824015140533,1.0765877962112427
1725629101949230300,0.144230224609375,-0.43388062715530396,0.3816826343536377,0.9528658986091614
1725629101959183400,0.154183349609375,0.5653398036956787,0.5597932934761047,0.5706809759140015
1725629101969136400,0.164136474609375,1.4808886051177979,0.6859089732170105,0.2441393882036209
1725629101979089400,0.17408935546875,1.9659082889556885,0.03851795196533203,0.15700341761112213
1725629101989042200,0.184042236328125,1.9178581237792969,-0.5798246264457703,0.2394234538078308
1725629101998995200,0.1939951171875,0.4171890318393707,-1.2279973030090332,0.5311464071273804
1725629102008948200,0.2039482421875,-1.1067264080047607,-2.6655049324035645,0.6599714756011963
1725629102018901200,0.2139013671875,-0.8491001129150391,-4.051540851593018,0.4423917531967163
1725629102028854300,0.223854248046875,0.27953264117240906,-4.365265369415283,-0.03713433817028999
1725629102038807300,0.233807373046875,1.0699647665023804,-3.5361618995666504,-0.7653589844703674
1725629102048760300,0.24376025390625,1.4319370985031128,-2.6972782611846924,-1.0554200410842896
1725629102058713300,0.25371337890625,1.5434612035751343,-2.515958070755005,-0.9027287364006042
1725629102068666400,0.263666259765625,1.61797034740448,-2.790849208831787,-0.787310779094696
1725629102078620400,0.273620361328125,1.7233601808547974,-3.2456369400024414,-0.6790942549705505
1725629102088573400,0.283573486328125,1.8359798192977905,-3.6571803092956543,-0.5008396506309509
1725629102098526700,0.293526611328125,2.1706981658935547,-3.214087724685669,-0.968574583530426
1725629102108479700,0.303479736328125,2.6377475261688232,-3.3035523891448975,-0.9219585061073303
1725629102118432800,0.313432861328125,3.149526596069336,-3.2059309482574463,-1.2360259294509888
1725629102128385800,0.3233857421875,3.5295093059539795,-3.09175705909729,-1.6516615152359009
1725629102138338800,0.3333388671875,3.7913172245025635,-2.7978692054748535,-2.07728910446167
1725629102148291600,0.34329150390625,4.273031711578369,-2.275383710861206,-2.4754817485809326
1725629102158244600,0.35324462890625,4.826159477233887,-1.858190655708313,-2.6790664196014404
1725629102168197600,0.36319775390625,5.123173236846924,-2.124051094055176,-2.6708526611328125
1725629102178150700,0.373150634765625,5.257565021514893,-3.095123291015625,-2.370678424835205
1725629102188103700,0.383103759765625,5.445743083953857,-4.3342437744140625,-1.877659797668457
1725629102198056700,0.393056640625,5.7231316566467285,-5.525336265563965,-1.4063208103179932
1725629102208009700,0.403009765625,6.085310935974121,-6.621704578399658,-1.059188961982727
1725629102217962800,0.412962646484375,6.469221591949463,-7.441357135772705,-0.8642593622207642
1725629102227915800,0.422915771484375,6.58125114440918,-7.101189613342285,-0.6368634700775146
1725629102237868800,0.432868896484375,6.014805793762207,-5.329326152801514,-0.4072462320327759
1725629102247821800,0.44282177734375,5.4765305519104,-4.682048320770264,-0.4269736707210541
1725629102257774600,0.452774658203125,5.171726226806641,-4.640610694885254,-0.5770412087440491
1725629102267727600,0.4627275390625,4.856408596038818,-4.6790056228637695,-0.4034776985645294
1725629102277681700,0.472681640625,4.217588901519775,-3.9032609462738037,-0.7691164016723633
1725629102287634700,0.482634765625,3.792083740234375,-2.8221545219421387,-1.5363914966583252
1725629102297587700,0.492587646484375,3.4896633625030518,-2.2100183963775635,-2.345712423324585
1725629102307540700,0.502540771484375,3.569363832473755,-1.0121992826461792,-3.0307838916778564
1725629102317493800,0.51249365234375,3.348022222518921,1.2764246463775635,-3.698489189147949
1725629102327446800,0.52244677734375,2.2431602478027344,2.7455930709838867,-4.333484649658203
1725629102337399800,0.53239990234375,2.561927318572998,2.685331106185913,-4.499410152435303
1725629102347352800,0.542352783203125,4.195429801940918,3.0754685401916504,-4.9681806564331055
1725629102357305900,0.552305908203125,4.649415493011475,3.12320613861084,-4.591183662414551
1725629102367259000,0.5622587890625,4.014871120452881,3.943438768386841,-4.271598815917969
1725629102377211600,0.572211669921875,2.4121687412261963,3.959496021270752,-4.106102466583252
1725629102387164700,0.58216455078125,2.706439733505249,1.3291964530944824,-3.3182973861694336
1725629102397117700,0.59211767578125,3.2792246341705322,-1.1288403272628784,-2.2229628562927246
1725629102407070700,0.60207080078125,4.283108711242676,-1.4059253931045532,-0.9349743723869324
1725629102417023700,0.612023681640625,4.733667850494385,-0.8453992605209351,0.6927723288536072
1725629102426976800,0.621976806640625,4.956943988800049,0.4206324517726898,1.5670926570892334
1725629102436929800,0.6319296875,4.925457954406738,1.2667150497436523,1.7363613843917847
1725629102446882800,0.6418828125,5.011078357696533,2.2896735668182373,1.5116437673568726
1725629102456835800,0.6518359375,4.699745178222656,2.914882183074951,1.0372320413589478
1725629102466788900,0.661788818359375,3.441663980484009,2.5413856506347656,-0.5769677758216858
1725629102476742000,0.671741943359375,2.8530077934265137,2.666400194168091,-1.9782971143722534
1725629102486695700,0.68169580078125,1.9786428213119507,2.59311580657959,-2.5943453311920166
1725629102496648700,0.691648681640625,2.861887216567993,4.6476731300354,-1.528394103050232
1725629102506601500,0.7016015625,3.195986270904541,5.403253555297852,-1.1920218467712402
1725629102516554500,0.711554443359375,2.993515729904175,5.264100551605225,-0.6606053709983826
1725629102526507500,0.721507568359375,2.5969648361206055,5.006417274475098,-0.13250748813152313
1725629102536460500,0.73146044921875,2.44441556930542,4.628178596496582,0.17283084988594055
1725629102546413600,0.74141357421875,2.7695441246032715,4.07887601852417,0.38824012875556946
1725629102556366600,0.75136669921875,3.213613986968994,3.5245683193206787,0.6855769753456116
1725629102566319600,0.761319580078125,3.531219959259033,2.868771553039551,1.0719316005706787
1725629102576272600,0.771272705078125,3.4755501747131348,2.2473325729370117,1.327290654182434
1725629102586225700,0.7812255859375,3.155658721923828,1.5918686389923096,1.1027995347976685
1725629102596178700,0.7911787109375,3.3895933628082275,2.1376473903656006,1.785196304321289
1725629102606131700,0.801131591796875,3.317164182662964,2.0052125453948975,3.1799960136413574
1725629102616084500,0.81108447265625,2.686948299407959,1.4464552402496338,2.912891149520874
1725629102626037500,0.82103759765625,2.42592191696167,2.0506772994995117,1.9981396198272705
1725629102635990500,0.830990478515625,1.3774943351745605,1.711790680885315,-0.06879139691591263
1725629102645943600,0.840943603515625,0.6467254757881165,1.732375144958496,-0.04628390818834305
1725629102655896600,0.850896484375,-0.3071543872356415,0.41886845231056213,0.12346358597278595
1725629102665849600,0.860849609375,-0.8735435009002686,-0.3035992681980133,0.1568353921175003
1725629102675802600,0.870802734375,-1.0607390403747559,-0.840065598487854,0.3709133267402649
1725629102685756700,0.880756591796875,-0.9554582834243774,-1.128894567489624,0.29076364636421204
1725629102695709700,0.890709716796875,-0.9174286127090454,-0.964294970035553,-0.12517789006233215
1725629102705662700,0.900662841796875,-1.0109118223190308,-0.7008391618728638,-0.5670943260192871
1725629102715615700,0.91061572265625,-1.3281750679016113,-0.8039146661758423,-0.823444128036499
1725629102725568800,0.92056884765625,-1.3110716342926025,-1.0293805599212646,-0.9072170257568359
1725629102735521800,0.930521728515625,-1.3285598754882812,-1.7057936191558838,-0.8070619106292725
1725629102745474600,0.940474609375,-1.353323221206665,-3.043130874633789,0.0490947961807251
1725629102755427600,0.950427490234375,-1.1087688207626343,-2.9932808876037598,0.25060978531837463
1725629102765380600,0.960380615234375,-0.7516807913780212,-2.1392922401428223,0.13130317628383636
1725629102775333600,0.970333740234375,-0.3619210720062256,-0.7069637179374695,0.05484728515148163
1725629102785286700,0.98028662109375,-0.12382923811674118,0.44496509432792664,-0.03972293809056282
1725629102795239700,0.99023974609375,0.08503715693950653,1.3091918230056763,-0.442284494638443
1725629102805192700,1.000192626953125,-0.2484152615070343,0.9479557275772095,-0.4770999550819397
1725629102815145700,1.010145751953125,-0.6549531817436218,-0.14452089369297028,0.14292120933532715
1725629102825098800,1.0200986328125,-0.7056218385696411,-0.7378994822502136,0.49120989441871643
1725629102835051800,1.0300517578125,-0.6220995187759399,-0.8219888210296631,0.5078794360160828
1725629102845004800,1.0400048828125,-0.48332732915878296,-0.685976505279541,0.3718318045139313
1725629102854957600,1.04995751953125,-0.3731960356235504,-0.5811848640441895,0.10355375707149506
1725629102864910600,1.05991064453125,-0.3058347702026367,-0.42001646757125854,-0.11766304820775986
1725629102874863600,1.069863525390625,-0.30292820930480957,-0.3868827521800995,-0.20597825944423676
1725629102884816600,1.079816650390625,-0.3415198028087616,-0.32368165254592896,-0.20237195491790771
1725629102894769700,1.089769775390625,-0.41150686144828796,-0.30065011978149414,-0.2340792864561081
1725629102904723700,1.0997236328125,-0.5228822231292725,-0.4266919791698456,-0.2245474010705948
1725629102914676700,1.1096767578125,-0.5411967635154724,-0.4907822608947754,-0.2313171625137329
1725629102924629800,1.119629638671875,-0.5195165276527405,-0.3798448145389557,-0.3496653139591217
1725629102934582800,1.129582763671875,-0.5096670985221863,-0.17783817648887634,-0.5657305717468262
1725629102944535800,1.139535888671875,-0.5531856417655945,0.02835676819086075,-0.929863691329956
1725629102954488800,1.14948876953125,-0.6948908567428589,0.08062716573476791,-1.4116404056549072
1725629102964441900,1.15944189453125,-0.8773196339607239,0.36715593934059143,-2.623474359512329
1725629102974395000,1.169394775390625,-1.207485556602478,0.6420360207557678,-2.779564142227173
1725629102984347600,1.17934765625,-1.3843610286712646,1.0685211420059204,-3.5214850902557373
1725629102994300700,1.18930078125,-1.8214107751846313,1.4500153064727783,-3.7691869735717773
1725629103004253700,1.199253662109375,-2.3926918506622314,1.661644458770752,-3.9907612800598145
1725629103014206700,1.209206787109375,-3.3297202587127686,1.1501339673995972,-3.9588043689727783
1725629103024159700,1.21915966796875,-3.8508687019348145,0.6757555603981018,-3.822059154510498
1725629103034112800,1.22911279296875,-3.4779467582702637,0.7173810005187988,-3.3669419288635254
1725629103044065800,1.239065673828125,-3.104506254196167,0.07974313199520111,-2.5974457263946533
1725629103054018800,1.249018798828125,-2.845757484436035,-0.3408474922180176,-1.9223639965057373
1725629103063971800,1.258971923828125,-2.3341243267059326,-0.6148203611373901,-1.3891570568084717
1725629103073924900,1.2689248046875,-2.088684320449829,-0.8286511898040771,-0.9903713464736938
1725629103083878000,1.2788779296875,-1.8359657526016235,-0.9904755353927612,-0.6154186725616455
1725629103093830700,1.28883056640625,-1.3058725595474243,-1.0063765048980713,-0.04987486079335213
1725629103103784000,1.298783935546875,-0.9031890630722046,-0.8473719954490662,0.27141663432121277
1725629103113737700,1.30873779296875,-0.44430994987487793,-0.7126783728599548,0.4300118684768677
1725629103123690800,1.318690673828125,-0.15064148604869843,-0.3792462646961212,0.4571491777896881
1725629103133643800,1.328643798828125,0.03195894882082939,-0.15519718825817108,0.4180920422077179
1725629103143596800,1.3385966796875,0.18565213680267334,0.004437978379428387,0.41285279393196106
1725629103153549600,1.348549560546875,0.05151137709617615,0.737805187702179,0.1017492339015007
1725629103163502600,1.358502685546875,0.19020384550094604,0.3847139775753021,0.5131158828735352
1725629103173455600,1.36845556640625,0.308675616979599,0.47914329171180725,0.6787996292114258
1725629103183408600,1.37840869140625,0.43933039903640747,0.564141571521759,0.5565263628959656
1725629103193361700,1.388361572265625,0.3583974540233612,-0.30024755001068115,0.8333137631416321
1725629103203314700,1.398314697265625,0.13831713795661926,-0.7973954677581787,0.06086912378668785
1725629103213267700,1.408267822265625,0.06425328552722931,-0.4237222373485565,0.06442657113075256
1725629103223220700,1.418220703125,0.14568476378917694,-0.1493147611618042,0.008669653907418251
1725629103233173800,1.428173828125,0.1312917023897171,-0.15422323346138,-0.0978650450706482
1725629103243126800,1.438126708984375,0.12987640500068665,-0.147725909948349,-0.18035748600959778
1725629103253079800,1.448079833984375,0.13491190969944,-0.18783657252788544,-0.27285969257354736
1725629103263032600,1.458032470703125,0.1192527487874031,-0.6945638656616211,-0.7930273413658142
1725629103272985600,1.467985595703125,-0.6944854259490967,-1.6030402183532715,-1.416422724723816
1725629103282938600,1.477938720703125,-0.6733238101005554,-0.5845407843589783,-1.0881965160369873
1725629103292891600,1.4878916015625,-0.9007715582847595,-0.20457673072814941,-0.8269147276878357
1725629103302844700,1.4978447265625,-0.9881332516670227,-0.021264223381876945,-0.51583331823349
1725629103312797700,1.507797607421875,-0.8426284790039062,0.16983623802661896,-0.2907423675060272
1725629103322751700,1.517751708984375,-0.5784229040145874,0.3356737792491913,-0.17690683901309967
1725629103332704800,1.527704833984375,-0.24228990077972412,0.40245893597602844,-0.01791772060096264
1725629103342657800,1.53765771484375,0.0730200856924057,0.2270164042711258,0.057648077607154846
1725629103352610800,1.54761083984375,0.3521585166454315,0.04627485200762749,0.11225779354572296
1725629103362563800,1.557563720703125,0.6318139433860779,0.14226378500461578,0.12081078439950943
1725629103372516900,1.567516845703125,0.8991002440452576,0.32220345735549927,0.15254421532154083
1725629103382469600,1.5774697265625,1.149583101272583,0.44118136167526245,0.1458437591791153
1725629103392422700,1.587422607421875,1.3384805917739868,0.483843594789505,0.16590002179145813
1725629103402375700,1.597375732421875,1.4289370775222778,0.3134324848651886,0.15808118879795074
1725629103412328700,1.60732861328125,1.4490841627120972,0.27273350954055786,0.12331414967775345
1725629103422281700,1.61728173828125,1.3551005125045776,0.022523248568177223,0.01846228539943695
1725629103432234800,1.62723486328125,0.9982877969741821,-0.20256765186786652,-0.24849963188171387
1725629103442187800,1.637187744140625,0.4467325210571289,-0.32557353377342224,-0.5561264157295227
1725629103452140800,1.647140869140625,0.40700480341911316,-0.05085595324635506,-0.3013751208782196
1725629103462093800,1.65709375,0.4027206599712372,0.47685500979423523,-0.07042568176984787
1725629103472046800,1.667046875,0.3190116286277771,-0.2451982945203781,-0.5686514377593994
1725629103482000000,1.676999755859375,0.3751618564128876,0.020892344415187836,-0.46776294708251953
1725629103491952600,1.68695263671875,0.3679952919483185,0.5677372813224792,0.013051614165306091
1725629103501905700,1.69690576171875,0.3776618540287018,0.5272242426872253,0.009059514850378036
1725629103511858700,1.706858642578125,0.3169335126876831,-0.07891251146793365,-0.38471734523773193
1725629103521811700,1.716811767578125,0.47334474325180054,-0.11728835850954056,-0.46470382809638977
1725629103531764700,1.7267646484375,0.5508584380149841,0.03529078885912895,-0.3828941881656647
1725629103541718800,1.73671875,0.5559135675430298,-0.012037585489451885,-0.3661620020866394
1725629103551671800,1.746671875,0.6146429181098938,-0.025647401809692383,-0.31145215034484863
1725629103561624800,1.756624755859375,0.644411027431488,0.03306305408477783,-0.19443610310554504
1725629103571577900,1.766577880859375,0.6652460098266602,-0.0228984784334898,-0.1305447369813919
1725629103581531000,1.77653076171875,0.6655383706092834,-0.03964183107018471,-0.10769695788621902
1725629103591484000,1.78648388671875,0.6330837607383728,-0.031035827472805977,-0.08427738398313522
1725629103601437000,1.79643701171875,0.5898782014846802,0.012792614288628101,-0.062323346734046936
1725629103611390000,1.806389892578125,0.5717862844467163,0.06272795051336288,-0.037230245769023895
1725629103621342700,1.8163427734375,0.5478580594062805,0.09630253165960312,-0.038047775626182556
1725629103631295700,1.826295654296875,0.5263389348983765,0.12491074204444885,-0.07668225467205048
1725629103641248800,1.836248779296875,0.49963369965553284,0.11714938282966614,-0.12125834822654724
1725629103651201800,1.846201904296875,0.4783875346183777,0.08931056410074234,-0.16811640560626984
1725629103661154800,1.85615478515625,0.4711684584617615,0.054766759276390076,-0.20650410652160645
1725629103671107800,1.86610791015625,0.4495326578617096,0.03661971166729927,-0.23170027136802673
1725629103681060900,1.876060791015625,0.3988168239593506,0.11252683401107788,-0.22492715716362
1725629103691014000,1.886013916015625,0.3348008394241333,0.13757680356502533,-0.20647011697292328
1725629103700967000,1.895966796875,0.2552456259727478,0.18633754551410675,-0.18287794291973114
1725629103710920000,1.905919921875,0.18564336001873016,0.20233489573001862,-0.17391560971736908
1725629103720873000,1.915873046875,0.06841479241847992,0.2752542197704315,-0.1841326355934143
1725629103730825700,1.92582568359375,-0.016183186322450638,0.23260238766670227,-0.20699533820152283
1725629103740778800,1.93577880859375,-0.11018560826778412,0.23644182085990906,-0.2022145837545395
1725629103750731800,1.945731689453125,-0.14238296449184418,0.2850666046142578,-0.1685570329427719
1725629103760685600,1.955685546875,-0.1462327092885971,0.17280042171478271,-0.12848348915576935
1725629103770638600,1.965638671875,-0.13636143505573273,0.23531121015548706,-0.03532211109995842
1725629103780591600,1.975591552734375,-0.11664431542158127,0.16742126643657684,0.014222022145986557
1725629103790544600,1.985544677734375,-0.13938742876052856,0.159263476729393,0.07723027467727661
1725629103800497700,1.99549755859375,-0.12763941287994385,0.16412453353405,0.18859779834747314
1725629103810450700,2.00545068359375,-0.12931719422340393,0.18374909460544586,0.2252625972032547
1725629103820403700,2.01540380859375,-0.10018401592969894,0.1865713894367218,0.2704545855522156
1725629103830356700,2.025356689453125,-0.1132391020655632,0.11566819250583649,0.2668108642101288
1725629103840309800,2.035309814453125,-0.11116575449705124,0.08358652144670486,0.3004893660545349
1725629103850262800,2.0452626953125,-0.12520140409469604,0.0878627598285675,0.33019134402275085
1725629103860215600,2.055215576171875,-0.14709095656871796,0.13315433263778687,0.3817276060581207
1725629103870168600,2.06516845703125,-0.1392790973186493,0.19709070026874542,0.3810950815677643
1725629103880121600,2.07512158203125,-0.13861946761608124,0.25565311312675476,0.3490823209285736
1725629103890074600,2.08507470703125,-0.11934696137905121,0.2660095989704132,0.2817235291004181
1725629103900027600,2.095027587890625,-0.08128705620765686,0.23830944299697876,0.24795812368392944
1725629103909980700,2.104980712890625,-0.013208935968577862,0.20667481422424316,0.18671926856040955
1725629103919933700,2.11493359375,0.04172211140394211,0.17952662706375122,0.1371695101261139
1725629103929886700,2.12488671875,0.06450945138931274,0.12989169359207153,0.048373863101005554
1725629103939839700,2.13483984375,0.06544996798038483,0.05303304269909859,-0.05183888599276543
1725629103949792800,2.144792724609375,0.054383475333452225,0.009046676568686962,-0.13847550749778748
1725629103959745800,2.154745849609375,0.02845708094537258,0.02282344363629818,-0.15779928863048553
1725629103969698600,2.164698486328125,-0.014353767968714237,0.055416274815797806,-0.12304025143384933
1725629103979652900,2.17465283203125,-0.06517967581748962,0.06297443807125092,-0.085845947265625
1725629103989605600,2.184605712890625,-0.10983236879110336,0.005709013435989618,-0.10226646810770035
1725629103999558700,2.19455859375,-0.1319705694913864,-0.05521896108984947,-0.12102179229259491
1725629104009511700,2.20451171875,-0.1278969943523407,-0.08668314665555954,-0.10523989796638489
1725629104019464700,2.214464599609375,-0.12555766105651855,-0.08119135349988937,-0.08487813919782639
1725629104029417700,2.224417724609375,-0.11103463917970657,-0.050455279648303986,-0.039031025022268295
1725629104039370800,2.234370849609375,-0.09449218213558197,-0.039256855845451355,-0.025388244539499283
1725629104049323800,2.24432373046875,-0.06918816268444061,-0.042139194905757904,-0.023346664384007454
1725629104059276800,2.25427685546875,-0.059438399970531464,-0.0014201037120074034,-0.022974509745836258
1725629104069229800,2.264229736328125,-0.05215678736567497,0.03247847408056259,-0.04933927208185196
1725629104079182800,2.274182861328125,-0.035882480442523956,0.059482473880052567,-0.09417127817869186
1725629104089135900,2.284135986328125,-0.028602728620171547,0.07006374001502991,-0.14215771853923798
1725629104099088100,2.294088134765625,-0.03712735325098038,0.03173879161477089,-0.18733268976211548
1725629104109041200,2.304041259765625,-0.08064526319503784,0.030009599402546883,-0.22042246162891388
1725629104118994200,2.313994140625,-0.11901118606328964,0.029102463275194168,-0.21494191884994507
1725629104128947200,2.323947265625,-0.17931288480758667,0.06425485014915466,-0.19058410823345184
1725629104138900000,2.33389990234375,-0.2423730194568634,0.10150348395109177,-0.14367064833641052
1725629104148853000,2.34385302734375,-0.29395097494125366,0.09137015044689178,-0.1213160827755928
1725629104158806000,2.353805908203125,-0.3264741003513336,0.07876162230968475,-0.10940802097320557
1725629104168759000,2.363759033203125,-0.3421263098716736,0.045568253844976425,-0.1051858440041542
1725629104178712000,2.373712158203125,-0.34543511271476746,-0.007270284928381443,-0.10784339904785156
1725629104188665000,2.3836650390625,-0.3581258952617645,-0.027705252170562744,-0.096173956990242
1725629104198618000,2.3936181640625,-0.3819412291049957,0.007584402337670326,-0.08207220584154129
1725629104208572200,2.403572265625,-0.4206225872039795,0.02921433001756668,-0.050914548337459564
1725629104218525200,2.413525146484375,-0.4711075723171234,0.09844538569450378,-0.021594857797026634
1725629104228478200,2.423478271484375,-0.5119678974151611,0.14088046550750732,0.0018787768203765154
1725629104238431200,2.43343115234375,-0.5421554446220398,0.12246080487966537,0.014322500675916672
1725629104248384300,2.44338427734375,-0.5414060354232788,0.16596060991287231,0.029497459530830383
1725629104258337300,2.453337158203125,-0.5094543099403381,0.16689381003379822,0.06035701185464859
1725629104268290000,2.4632900390625,-0.5005055665969849,0.2037695348262787,0.08396832644939423
1725629104278243000,2.4732431640625,-0.4727138578891754,0.22777368128299713,0.12576861679553986
1725629104288196000,2.483196044921875,-0.4698472321033478,0.21101707220077515,0.15290197730064392
1725629104298149000,2.493149169921875,-0.4834537208080292,0.19654877483844757,0.17208540439605713
1725629104308102100,2.50310205078125,-0.48895901441574097,0.16975843906402588,0.20661994814872742
1725629104318055200,2.51305517578125,-0.5269541144371033,0.30023136734962463,0.21804870665073395
1725629104328008200,2.52300830078125,-0.5345792770385742,0.3094903826713562,0.1993519812822342
1725629104337961200,2.532961181640625,-0.5244486927986145,0.2808525562286377,0.18039575219154358
1725629104347914200,2.542914306640625,-0.5105576515197754,0.28923776745796204,0.2192470133304596
1725629104357867300,2.5528671875,-0.504744291305542,0.32419341802597046,0.27133530378341675
1725629104367820300,2.5628203125,-0.5193179249763489,0.373012900352478,0.30473214387893677
1725629104377773000,2.57277294921875,-0.541597306728363,0.384203165769577,0.3119776248931885
1725629104387726000,2.58272607421875,-0.5595549941062927,0.3320336937904358,0.2964966595172882
1725629104397679000,2.59267919921875,-0.5705858469009399,0.34557005763053894,0.3221563994884491
1725629104407632100,2.602632080078125,-0.5997307300567627,0.3572482764720917,0.3416944146156311
1725629104417585200,2.612585205078125,-0.6157557964324951,0.3761841952800751,0.36928531527519226
1725629104427538200,2.6225380859375,-0.6317051649093628,0.3674655258655548,0.40380945801734924
1725629104437492200,2.6324921875,-0.6398180723190308,0.35452932119369507,0.419405996799469
1725629104447445200,2.6424453125,-0.6484014391899109,0.361929714679718,0.4359072148799896
1725629104457398300,2.652398193359375,-0.6425172090530396,0.3783479630947113,0.44530582427978516
1725629104467351300,2.662351318359375,-0.6215200424194336,0.38554513454437256,0.4613780081272125
1725629104477304300,2.67230419921875,-0.5929782390594482,0.41883984208106995,0.47617077827453613
1725629104487257300,2.68225732421875,-0.5673700571060181,0.38649946451187134,0.44825151562690735
1725629104497210400,2.69221044921875,-0.5192244648933411,0.4263830780982971,0.45181530714035034
1725629104507163100,2.7021630859375,-0.4785054922103882,0.4020255506038666,0.432826429605484
1725629104517116200,2.7121162109375,-0.4122495651245117,0.3673204481601715,0.38724759221076965
1725629104527069200,2.722069091796875,-0.36499762535095215,0.3563232123851776,0.34150034189224243
1725629104537022200,2.732022216796875,-0.3006872832775116,0.38181740045547485,0.31755346059799194
1725629104546975200,2.741975341796875,-0.2736990749835968,0.3661084771156311,0.3044067621231079
1725629104556928300,2.75192822265625,-0.2320602983236313,0.3392654061317444,0.2747752368450165
1725629104566881300,2.76188134765625,-0.1942194402217865,0.29465240240097046,0.22542287409305573
1725629104576834300,2.771834228515625,-0.14017973840236664,0.27656564116477966,0.2041313797235489
1725629104586787300,2.781787353515625,-0.10922688245773315,0.2120865136384964,0.18478459119796753
1725629104596740400,2.791740234375,-0.07282708585262299,0.1952507197856903,0.19043631851673126
1725629104606693000,2.801693115234375,-0.04293922707438469,0.18814833462238312,0.20566080510616302
1725629104616646100,2.811646240234375,-0.017920304089784622,0.1751602739095688,0.2115476280450821
1725629104626599200,2.82159912109375,-0.009031470865011215,0.14963147044181824,0.19092410802841187
1725629104636552200,2.83155224609375,-0.012502385303378105,0.10418542474508286,0.16398051381111145
1725629104646505200,2.841505126953125,0.012988059781491756,0.06615415215492249,0.1545095145702362
1725629104656458200,2.851458251953125,0.012379027903079987,0.0756649300456047,0.12550412118434906
1725629104666412000,2.861412109375,0.02226308360695839,0.016864994540810585,0.06799767911434174
1725629104676365000,2.871364990234375,0.055628906935453415,-0.009458846412599087,0.02714080736041069
1725629104686318000,2.881318115234375,0.08576603978872299,-0.021740278229117393,-0.004781972151249647
1725629104696271000,2.89127099609375,0.09452579915523529,-0.02895946055650711,-0.038586799055337906
1725629104706224000,2.90122412109375,0.1135018914937973,-0.09457948058843613,-0.12072160840034485
1725629104716177200,2.91117724609375,0.15217718482017517,-0.13831281661987305,-0.17006522417068481
1725629104726130200,2.921130126953125,0.19214537739753723,-0.1285555213689804,-0.18557414412498474
1725629104736083000,2.9310830078125,0.22740145027637482,-0.15795005857944489,-0.235622376203537
1725629104746036000,2.941035888671875,0.2767013907432556,-0.183030903339386,-0.2927357256412506
1725629104755989000,2.950989013671875,0.3298708200454712,-0.20273658633232117,-0.34076616168022156
1725629104765942000,2.96094189453125,0.3635326325893402,-0.14373451471328735,-0.34737640619277954
1725629104775895000,2.97089501953125,0.3766007721424103,-0.1195082888007164,-0.3757430613040924
1725629104785848000,2.98084814453125,0.3931901454925537,-0.12004837393760681,-0.4112919867038727
1725629104795801000,2.990801025390625,0.40456369519233704,-0.1417868733406067,-0.4618358314037323
1725629104805754000,3.000754150390625,0.4157170355319977,-0.14293603599071503,-0.4881848990917206
1725629104815707100,3.01070703125,0.402444988489151,-0.1878257840871811,-0.514216423034668
1725629104825660200,3.02066015625,0.40980783104896545,-0.19663284718990326,-0.5042634010314941
1725629104835613200,3.03061328125,0.41234609484672546,-0.1780851036310196,-0.4649072587490082
1725629104845566000,3.04056591796875,0.4084906280040741,-0.17979246377944946,-0.44819512963294983
1725629104855519000,3.05051904296875,0.4265610873699188,-0.19752013683319092,-0.44688984751701355
1725629104865472000,3.060471923828125,0.45758184790611267,-0.19357626140117645,-0.44956260919570923
1725629104875425000,3.070425048828125,0.4978843033313751,-0.19241219758987427,-0.4534902572631836
1725629104885378000,3.0803779296875,0.5305594801902771,-0.21244530379772186,-0.459062397480011
1725629104895332000,3.09033203125,0.5806316137313843,-0.23288549482822418,-0.45050597190856934
1725629104905285000,3.10028515625,0.6184711456298828,-0.22674503922462463,-0.4211358428001404
1725629104915238100,3.110238037109375,0.6537817120552063,-0.24019862711429596,-0.40329429507255554
1725629104925191200,3.120191162109375,0.7022275328636169,-0.24911169707775116,-0.3956749737262726
1725629104935144200,3.130144287109375,0.7295573353767395,-0.23963502049446106,-0.38344916701316833
1725629104945097200,3.14009716796875,0.7458782196044922,-0.26215577125549316,-0.40151578187942505
1725629104955050200,3.15005029296875,0.7245585918426514,-0.2840808629989624,-0.3884427547454834
1725629104965003300,3.160003173828125,0.7094025611877441,-0.29638734459877014,-0.3471083641052246
1725629104974956000,3.1699560546875,0.7199147343635559,-0.2981160283088684,-0.27159079909324646
1725629104984909000,3.179908935546875,0.6986387968063354,-0.2846050262451172,-0.24247871339321136
1725629104994862000,3.189862060546875,0.6593470573425293,-0.22908064723014832,-0.31306713819503784
1725629105004815000,3.199815185546875,0.5796892642974854,-0.14135505259037018,-0.3820302188396454
1725629105014768000,3.20976806640625,0.48116740584373474,-0.05624667555093765,-0.4694828391075134
1725629105024721200,3.21972119140625,0.4460240602493286,-0.12439882755279541,-0.5391295552253723
1725629105034674200,3.229674072265625,0.4783777892589569,-0.18737773597240448,-0.46838560700416565
1725629105044627200,3.239627197265625,0.4901476502418518,-0.2714204490184784,-0.4507003724575043
1725629105054580200,3.249580322265625,0.530228316783905,-0.24612757563591003,-0.4046430289745331
1725629105064533200,3.259533203125,0.5446376204490662,-0.2621254622936249,-0.36885175108909607
1725629105074486300,3.269486328125,0.5433206558227539,-0.26923051476478577,-0.39801254868507385
1725629105084439000,3.27943896484375,0.4955049753189087,-0.24242925643920898,-0.464158296585083
1725629105094392000,3.28939208984375,0.41257545351982117,-0.18486955761909485,-0.5165787935256958
1725629105104345900,3.299345947265625,0.30908262729644775,-0.07128041237592697,-0.4656282067298889
1725629105114299000,3.309298828125,0.20392270386219025,-0.04410279542207718,-0.41740623116493225
1725629105124252700,3.319252685546875,0.1492362916469574,-0.0026560185942798853,-0.3608316481113434
1725629105134205700,3.329205810546875,0.1070636436343193,0.021658118814229965,-0.31070807576179504
1725629105144158700,3.33915869140625,0.08799222111701965,0.06801629811525345,-0.269353985786438
1725629105154111700,3.34911181640625,0.08439330011606216,0.0377737395465374,-0.2602955102920532
1725629105164064800,3.359064697265625,0.09824946522712708,0.04991748556494713,-0.23727647960186005
1725629105174017800,3.369017822265625,0.12055601924657822,0.043812766671180725,-0.2213660180568695
1725629105183970800,3.378970703125,0.12613613903522491,0.05737677961587906,-0.1937815248966217
1725629105193923600,3.388923583984375,0.13495969772338867,0.08869291096925735,-0.12857694923877716
1725629105203876600,3.398876708984375,0.12638379633426666,0.11869049072265625,-0.08787798136472702
1725629105213829600,3.40882958984375,0.09467335045337677,0.15311887860298157,-0.05834750831127167
1725629105223782700,3.41878271484375,0.07966750860214233,0.23302783071994781,-0.013857273384928703
1725629105233735700,3.428735595703125,0.05375319719314575,0.26432090997695923,-0.007204030640423298
1725629105243688700,3.438688720703125,0.03532598540186882,0.20572976768016815,-0.01802179031074047
1725629105253641700,3.448641845703125,0.012798164039850235,0.21850351989269257,0.012629753910005093
1725629105263594800,3.4585947265625,0.020060870796442032,0.15223900973796844,0.025408398360013962
1725629105273547800,3.4685478515625,0.027810558676719666,0.11844116449356079,0.09024381637573242
1725629105283500500,3.47850048828125,-0.0013153690379112959,0.08937329053878784,0.09275437891483307
1725629105293453600,3.48845361328125,-0.03683058172464371,0.06485851854085922,0.11452464014291763
1725629105303406600,3.498406494140625,-0.05477016419172287,0.08287586271762848,0.13958685100078583
1725629105313359600,3.508359619140625,-0.08101888746023178,0.05274128541350365,0.14639240503311157
1725629105323312600,3.518312744140625,-0.09896060824394226,-0.019067656248807907,0.10922825336456299
1725629105333265700,3.528265625,-0.10493681579828262,-0.06911347061395645,0.0997670441865921
1725629105343218700,3.53821875,-0.1281888782978058,-0.11741974949836731,0.08503949642181396
1725629105353172700,3.5481728515625,-0.14467255771160126,-0.15589165687561035,0.061590712517499924
1725629105363125800,3.558125732421875,-0.1537158489227295,-0.16221505403518677,0.05833446606993675
1725629105373078800,3.568078857421875,-0.16334466636180878,-0.16650938987731934,0.04164199158549309
1725629105383031800,3.57803173828125,-0.17902375757694244,-0.1929338127374649,0.024938911199569702
1725629105392984800,3.58798486328125,-0.18448854982852936,-0.2314174622297287,0.02018679864704609
1725629105402937900,3.597937744140625,-0.18320517241954803,-0.2553851306438446,0.041268911212682724
1725629105412890600,3.607890625,-0.1979331076145172,-0.2520350515842438,0.06531748175621033
1725629105422843600,3.61784375,-0.19968360662460327,-0.24318057298660278,0.08794396370649338
1725629105432796700,3.627796630859375,-0.20527006685733795,-0.24008426070213318,0.09181424975395203
1725629105442749700,3.637749755859375,-0.20954389870166779,-0.24356740713119507,0.09635893255472183
1725629105452702700,3.64770263671875,-0.21084332466125488,-0.26992279291152954,0.09466148912906647
1725629105462655700,3.65765576171875,-0.22549258172512054,-0.243716761469841,0.0953427255153656
1725629105472608800,3.66760888671875,-0.23439067602157593,-0.22570407390594482,0.1058177724480629
1725629105482561800,3.677561767578125,-0.2454846054315567,-0.18200159072875977,0.1272524893283844
1725629105492514800,3.687514892578125,-0.25312474370002747,-0.17308004200458527,0.1406649947166443
1725629105502467800,3.6974677734375,-0.25067010521888733,-0.1785605549812317,0.1332358419895172
1725629105512420600,3.707420654296875,-0.25558459758758545,-0.14455288648605347,0.16332653164863586
1725629105522373600,3.71737353515625,-0.26117217540740967,-0.12112771719694138,0.19079411029815674
1725629105532326700,3.72732666015625,-0.27160531282424927,-0.09283148497343063,0.20837606489658356
1725629105542279700,3.73727978515625,-0.27686959505081177,-0.069174624979496,0.22247058153152466
1725629105552232700,3.747232666015625,-0.2788771986961365,-0.028571637347340584,0.24698951840400696
1725629105562185700,3.757185791015625,-0.28455132246017456,-0.005247139371931553,0.2667565643787384
1725629105572138800,3.767138671875,-0.2924332320690155,-0.02050420455634594,0.2487807273864746
1725629105582092800,3.7770927734375,-0.3150210976600647,0.03309537097811699,0.23681700229644775
1725629105592045800,3.7870458984375,-0.3363073766231537,0.046554919332265854,0.2440488636493683
1725629105601998800,3.796998779296875,-0.3631773293018341,0.06650519371032715,0.23241564631462097
1725629105611951900,3.806951904296875,-0.37941622734069824,0.012168635614216328,0.2112986147403717
1725629105621905000,3.81690478515625,-0.404011070728302,0.04072624444961548,0.2118948996067047
1725629105631858000,3.82685791015625,-0.426717072725296,0.06904987245798111,0.2542772591114044
1725629105641810700,3.836810791015625,-0.443337082862854,0.09069578349590302,0.2960295081138611
1725629105651763700,3.846763671875,-0.45812714099884033,0.05791667476296425,0.31106945872306824
1725629105661716700,3.856716796875,-0.4644124507904053,0.025214122608304024,0.3214150369167328
1725629105671669800,3.866669677734375,-0.4912165403366089,0.04289397969841957,0.3410492241382599
1725629105681622800,3.876622802734375,-0.5228660702705383,0.07142496109008789,0.3375016450881958
1725629105691575800,3.886575927734375,-0.5298796892166138,0.06207958608865738,0.33571165800094604
1725629105701528800,3.89652880859375,-0.5316150188446045,0.08803048729896545,0.3678815960884094
1725629105711481900,3.90648193359375,-0.5312415361404419,0.13735562562942505,0.4220263361930847
1725629105721435000,3.916434814453125,-0.5313403606414795,0.1576065719127655,0.44734129309654236
1725629105731388000,3.926387939453125,-0.5381825566291809,0.16825202107429504,0.4576980471611023
1725629105741341000,3.9363408203125,-0.5465629696846008,0.21817217767238617,0.4892357289791107
1725629105751293700,3.946293701171875,-0.5719099044799805,0.24350786209106445,0.48949649930000305
1725629105761246700,3.956246826171875,-0.5889647603034973,0.2111339420080185,0.46310269832611084
1725629105771199700,3.96619970703125,-0.5993925333023071,0.22122938930988312,0.4659864008426666
1725629105781152800,3.97615283203125,-0.6054142117500305,0.25651758909225464,0.4741519093513489
1725629105791105800,3.986105712890625,-0.6309325098991394,0.29093578457832336,0.48311516642570496
1725629105801059800,3.996059814453125,-0.637678861618042,0.2795661985874176,0.4864899218082428
1725629105811012900,4.006012939453125,-0.6428411602973938,0.28705641627311707,0.4914538264274597
1725629105820966000,4.0159658203125,-0.6486462950706482,0.2748221158981323,0.46035316586494446
1725629105830919000,4.0259189453125,-0.6633512377738953,0.2876501679420471,0.4589638411998749
1725629105840872000,4.035871826171875,-0.6713710427284241,0.27858394384384155,0.4465963840484619
1725629105850825000,4.045824951171875,-0.6573221683502197,0.32271772623062134,0.47662800550460815
1725629105860777700,4.05577783203125,-0.643255889415741,0.25135403871536255,0.4497729539871216
1725629105870730800,4.065730712890625,-0.6590843796730042,0.24847590923309326,0.4209975004196167
1725629105880683800,4.075683837890625,-0.5836641788482666,0.28671011328697205,0.41634923219680786
1725629105890636800,4.08563671875,-0.5359333753585815,0.2756093442440033,0.3773372173309326
1725629105900589800,4.09558984375,-0.5127865076065063,0.33108457922935486,0.37159463763237
1725629105910542800,4.10554296875,-0.461754709482193,0.32068800926208496,0.33103811740875244
1725629105920495900,4.115495849609375,-0.4176176190376282,0.31726691126823425,0.28342026472091675
1725629105930449000,4.125448974609375,-0.3826574981212616,0.35217252373695374,0.2618287205696106
1725629105940402000,4.13540185546875,-0.3129444718360901,0.3589228391647339,0.22841693460941315
1725629105950354700,4.145354736328125,-0.27350184321403503,0.3415338099002838,0.20150434970855713
1725629105960307700,4.1553076171875,-0.23674491047859192,0.31334424018859863,0.1707315295934677
1725629105970260700,4.1652607421875,-0.19431374967098236,0.27973100543022156,0.13452722132205963
1725629105980213800,4.1752138671875,-0.1524592489004135,0.26337042450904846,0.11777034401893616
1725629105990166800,4.185166748046875,-0.12764441967010498,0.2346426099538803,0.09920728951692581
1725629106000119800,4.195119873046875,-0.10316170752048492,0.19954641163349152,0.0709247887134552
1725629106010072800,4.20507275390625,-0.060350630432367325,0.14827392995357513,0.03836526721715927
1725629106020025900,4.21502587890625,-0.02566268853843212,0.13047043979167938,0.014284967444837093
1725629106029979600,4.224979736328125,0.002445845864713192,0.09564760327339172,-0.024022778496146202
1725629106039932700,4.2349326171875,0.023733025416731834,0.05895190313458443,-0.06263275444507599
1725629106049885700,4.2448857421875,0.036068834364414215,0.007385972421616316,-0.11410579085350037
1725629106059838700,4.254838623046875,0.04037223383784294,-0.03910429775714874,-0.16504354774951935
1725629106069791700,4.264791748046875,0.07003656029701233,-0.08765304088592529,-0.2097471058368683
1725629106079744800,4.274744873046875,0.10428188741207123,-0.13345859944820404,-0.24493278563022614
1725629106089697800,4.28469775390625,0.1343073546886444,-0.17883741855621338,-0.2550829350948334
1725629106099650800,4.29465087890625,0.17060092091560364,-0.24633976817131042,-0.28069746494293213
1725629106109603300,4.304603271484375,0.21222975850105286,-0.2993433177471161,-0.3161467909812927
1725629106119556400,4.314556396484375,0.25109750032424927,-0.3213026821613312,-0.3377671241760254
1725629106129509400,4.32450927734375,0.2871406376361847,-0.3200802505016327,-0.3569243252277374
1725629106139462400,4.33446240234375,0.3221779763698578,-0.3533540368080139,-0.3924493193626404
1725629106149415400,4.34441552734375,0.3455958366394043,-0.34827232360839844,-0.3862268626689911
1725629106159368400,4.354368408203125,0.36604732275009155,-0.35171952843666077,-0.3841930031776428
1725629106169321500,4.364321533203125,0.403819739818573,-0.39098262786865234,-0.4006563425064087
1725629106179274500,4.3742744140625,0.45465922355651855,-0.4064801037311554,-0.40604472160339355
1725629106189227500,4.3842275390625,0.501151442527771,-0.41785115003585815,-0.41746485233306885
1725629106199180500,4.3941806640625,0.5396695733070374,-0.38840004801750183,-0.40214449167251587
1725629106209133600,4.404133544921875,0.57546466588974,-0.3748577833175659,-0.40930014848709106
1725629106219086300,4.41408642578125,0.6062052845954895,-0.38332822918891907,-0.4219512343406677
1725629106229039400,4.424039306640625,0.6082587838172913,-0.39338448643684387,-0.4503312408924103
1725629106238992400,4.433992431640625,0.6093499064445496,-0.4102257788181305,-0.4725225567817688
1725629106248945400,4.4439453125,0.6196434497833252,-0.4278058707714081,-0.4847738742828369
1725629106258899500,4.4538994140625,0.6413087844848633,-0.5170415043830872,-0.5052198171615601
1725629106268852500,4.4638525390625,0.6494729518890381,-0.48004916310310364,-0.4638177454471588
1725629106278805500,4.473805419921875,0.6533635258674622,-0.4631916284561157,-0.4212753176689148
1725629106288758500,4.483758544921875,0.6726750135421753,-0.4903421103954315,-0.401054322719574
1725629106298711600,4.493711669921875,0.6997101306915283,-0.49739494919776917,-0.3654625117778778
1725629106308664600,4.50366455078125,0.6980322003364563,-0.44024530053138733,-0.32513120770454407
1725629106318617600,4.51361767578125,0.6894067525863647,-0.41888487339019775,-0.312650591135025
1725629106328570600,4.523570556640625,0.6791408658027649,-0.4362395405769348,-0.3331548869609833
1725629106338523600,4.533523681640625,0.6476188898086548,-0.42836353182792664,-0.34193184971809387
1725629106348476400,4.543476318359375,0.6210814714431763,-0.38187381625175476,-0.32850515842437744
1725629106358429400,4.553429443359375,0.5754641890525818,-0.3212520182132721,-0.3094395697116852
1725629106368382500,4.563382568359375,0.5464600920677185,-0.2661004662513733,-0.2908232808113098
1725629106378335500,4.57333544921875,0.5224509239196777,-0.22456207871437073,-0.2851813733577728
1725629106388288500,4.58328857421875,0.5186678171157837,-0.2313738316297531,-0.2931059002876282
1725629106398241500,4.593241455078125,0.519035279750824,-0.22916847467422485,-0.30218595266342163
1725629106408194600,4.603194580078125,0.5108118057250977,-0.2432348132133484,-0.3132173717021942
1725629106418147600,4.613147705078125,0.5059866905212402,-0.24263718724250793,-0.2935912013053894
1725629106428100600,4.6231005859375,0.4736603796482086,-0.2453719824552536,-0.26877981424331665
1725629106438053600,4.6330537109375,0.4375021159648895,-0.2551007568836212,-0.2847753167152405
1725629106448006700,4.643006591796875,0.41320839524269104,-0.24506865441799164,-0.28210705518722534
1725629106457959400,4.65295947265625,0.382508784532547,-0.22467230260372162,-0.25680461525917053
1725629106467912400,4.662912353515625,0.3518911600112915,-0.1826997697353363,-0.19781672954559326
1725629106477866500,4.672866455078125,0.3155430257320404,-0.1540185809135437,-0.15425807237625122
1725629106487819500,4.682819580078125,0.2894807755947113,-0.15042676031589508,-0.15679045021533966
1725629106497772500,4.6927724609375,0.2533121109008789,-0.09844665229320526,-0.1069328784942627
1725629106507725600,4.7027255859375,0.2083858996629715,-0.08068709820508957,-0.05865482985973358
1725629106517678600,4.7126787109375,0.18057024478912354,-0.08793248981237411,-0.04400371387600899
1725629106527631600,4.722631591796875,0.1673373430967331,-0.07419408112764359,-0.004247443750500679
1725629106537584600,4.732584716796875,0.15704607963562012,-0.0779946818947792,0.04737873375415802
1725629106547537700,4.74253759765625,0.14222277700901031,-0.10009730607271194,0.056734103709459305
1725629106557490700,4.75249072265625,0.15951761603355408,-0.07824233919382095,0.13742361962795258
1725629106567443700,4.762443603515625,0.1695343405008316,-0.06397813558578491,0.17675398290157318
1725629106577396700,4.772396728515625,0.1690903902053833,-0.034558989107608795,0.21584546566009521
1725629106587349500,4.782349609375,0.16722552478313446,-0.003947034012526274,0.23165258765220642
1725629106597302500,4.792302490234375,0.15403223037719727,0.001546268118545413,0.2324584722518921
1725629106607255600,4.802255615234375,0.13942313194274902,0.010298613458871841,0.2420877367258072
1725629106617208600,4.81220849609375,0.14026255905628204,0.004605840425938368,0.23799630999565125
1725629106627161600,4.82216162109375,0.13596203923225403,0.005374903324991465,0.2066517174243927
1725629106637114600,4.832114501953125,0.11802326142787933,0.04827922582626343,0.2181728184223175
1725629106647067600,4.842067626953125,0.13287314772605896,-0.005841074511408806,0.21337132155895233
1725629106657020700,4.852020751953125,0.11444246768951416,-0.03618220239877701,0.1632349193096161
1725629106666973700,4.8619736328125,0.11030839383602142,-0.046654876321554184,0.1302628368139267
1725629106676926700,4.8719267578125,0.08033610880374908,-0.12795425951480865,0.09837973862886429
1725629106686879700,4.881879638671875,0.047828320413827896,-0.13364388048648834,0.07962716370820999
1725629106696833500,4.89183349609375,0.011087881401181221,-0.13671556115150452,0.081943579018116
1725629106706786600,4.90178662109375,-0.02000316232442856,-0.11968014389276505,0.09101668000221252
1725629106716739300,4.9117392578125,-0.03696749731898308,-0.13061535358428955,0.08361522108316422
1725629106726692400,4.9216923828125,-0.06456834077835083,-0.1876688003540039,0.04512113705277443
1725629106736645400,4.931645263671875,-0.0721261277794838,-0.23447678983211517,0.014168815687298775
1725629106746598400,4.941598388671875,-0.08253258466720581,-0.23994457721710205,0.03458544984459877
1725629106756551400,4.951551513671875,-0.10184688866138458,-0.23454049229621887,0.05402040109038353
1725629106766504400,4.96150439453125,-0.0717025101184845,-0.23298172652721405,0.08300849795341492
1725629106776457500,4.97145751953125,-0.08792595565319061,-0.30369049310684204,0.07805103063583374
1725629106786410500,4.981410400390625,-0.10536596179008484,-0.29160380363464355,0.10008373856544495
1725629106796363500,4.991363525390625,-0.10615212470293045,-0.29958900809288025,0.1013527363538742
1725629106806316500,5.001316650390625,-0.11147014796733856,-0.29289719462394714,0.09538637101650238
1725629106816269600,5.01126953125,-0.12677374482154846,-0.2654586434364319,0.09274344891309738
1725629106826222300,5.021222412109375,-0.13885138928890228,-0.24001745879650116,0.10927325487136841
1725629106836175400,5.03117529296875,-0.15572571754455566,-0.21288810670375824,0.10084648430347443
1725629106846128400,5.04112841796875,-0.1632988452911377,-0.13181523978710175,0.12376139312982559
1725629106856081400,5.051081298828125,-0.18692320585250854,-0.04844897985458374,0.16927482187747955
1725629106866034400,5.061034423828125,-0.2086997926235199,-0.006674787029623985,0.16533014178276062
1725629106875987500,5.070987548828125,-0.222890704870224,0.024681804701685905,0.1609809398651123
1725629106885940500,5.0809404296875,-0.24530096352100372,0.08100464940071106,0.15583541989326477
1725629106895893500,5.0908935546875,-0.28091275691986084,0.13859550654888153,0.15117621421813965
1725629106905846500,5.100846435546875,-0.32546329498291016,0.17846187949180603,0.13557729125022888
1725629106915800600,5.110800537109375,-0.37423190474510193,0.18152371048927307,0.1031104326248169
1725629106925753600,5.120753662109375,-0.4153628349304199,0.19627512991428375,0.08873679488897324
1725629106935706600,5.13070654296875,-0.44141894578933716,0.21921028196811676,0.11245410889387131
1725629106945659600,5.14065966796875,-0.4844202399253845,0.21256081759929657,0.09399543702602386
1725629106955612400,5.1506123046875,-0.5021603107452393,0.2577778398990631,0.11809571832418442
1725629106965565400,5.1605654296875,-0.5207558274269104,0.32785212993621826,0.16495352983474731
1725629106975518500,5.1705185546875,-0.5314925909042358,0.3631241023540497,0.1806344836950302
1725629106985471500,5.180471435546875,-0.5409814715385437,0.33734285831451416,0.19040802121162415
1725629106995424500,5.190424560546875,-0.5479118227958679,0.38197290897369385,0.21934805810451508
1725629107005377500,5.20037744140625,-0.5804009437561035,0.35918915271759033,0.19287842512130737
1725629107015330600,5.21033056640625,-0.5965815186500549,0.3644704520702362,0.18374857306480408
1725629107025283600,5.22028369140625,-0.6067621111869812,0.4014953076839447,0.22555986046791077
1725629107035236600,5.230236572265625,-0.6044363379478455,0.4582499563694,0.28014346957206726
1725629107045189600,5.240189697265625,-0.5980276465415955,0.4591110646724701,0.297267347574234
1725629107055142700,5.250142578125,-0.5934499502182007,0.44322264194488525,0.30713409185409546
1725629107065095400,5.260095458984375,-0.5991690158843994,0.4372798502445221,0.311642587184906
1725629107075048400,5.27004833984375,-0.6303317546844482,0.4002113342285156,0.29050347208976746
1725629107085001500,5.28000146484375,-0.6602093577384949,0.4125503599643707,0.3117695748806
1725629107094954500,5.28995458984375,-0.6746820211410522,0.4514453113079071,0.3628056049346924
1725629107104907500,5.299907470703125,-0.6768137812614441,0.480772465467453,0.4048161804676056
1725629107114860500,5.309860595703125,-0.6688695549964905,0.45839446783065796,0.4335775375366211
1725629107124814600,5.319814697265625,-0.6488701105117798,0.46285560727119446,0.48282602429389954
1725629107134767600,5.329767578125,-0.622016966342926,0.4715801179409027,0.5120677947998047
1725629107144720600,5.339720703125,-0.6030169129371643,0.48194265365600586,0.5269417762756348
1725629107154673400,5.34967333984375,-0.5740464925765991,0.4922448396682739,0.5325011014938354
1725629107164626400,5.35962646484375,-0.5630466938018799,0.47093138098716736,0.49334263801574707
1725629107174579500,5.369579345703125,-0.5396170020103455,0.45075953006744385,0.43717336654663086
1725629107184532500,5.379532470703125,-0.48063474893569946,0.4767725467681885,0.4314531087875366
1725629107194485500,5.389485595703125,-0.4781319200992584,0.4964783489704132,0.4230167269706726
1725629107204438500,5.3994384765625,-0.4526790976524353,0.4499387741088867,0.3807382881641388
1725629107214391600,5.4093916015625,-0.41123926639556885,0.37801000475883484,0.35436978936195374
1725629107224344600,5.419344482421875,-0.3445277810096741,0.37792515754699707,0.3540101647377014
1725629107234297600,5.429297607421875,-0.31265294551849365,0.3434273600578308,0.31335514783859253
1725629107244250600,5.439250732421875,-0.28265249729156494,0.34213417768478394,0.32711121439933777
1725629107254203400,5.449203369140625,-0.24772009253501892,0.2575279474258423,0.2651123106479645
1725629107264156400,5.459156494140625,-0.24426093697547913,0.2732226848602295,0.26331478357315063
1725629107274109400,5.469109375,-0.20846246182918549,0.2338601052761078,0.2300465703010559
1725629107284062500,5.4790625,-0.18941766023635864,0.22496657073497772,0.20162975788116455
1725629107294015500,5.489015380859375,-0.1819528192281723,0.2207675576210022,0.19504988193511963
1725629107303968500,5.498968505859375,-0.15694719552993774,0.1816253960132599,0.15812170505523682
1725629107313921500,5.508921630859375,-0.12284435331821442,0.126643106341362,0.11648344248533249
1725629107323874600,5.51887451171875,-0.07362887263298035,0.09877978265285492,0.09096450358629227
1725629107333827600,5.52882763671875,-0.017062529921531677,0.06634806841611862,0.057194292545318604
1725629107343781400,5.538781494140625,0.041167519986629486,0.011604104191064835,0.012830263935029507
1725629107353734400,5.548734375,0.10269293189048767,-0.02724502421915531,-0.021193483844399452
1725629107363687400,5.5586875,0.1351795643568039,-0.0575077123939991,-0.06894285976886749
1725629107373640400,5.568640380859375,0.1647646129131317,-0.12381483614444733,-0.14157845079898834
1725629107383593200,5.57859326171875,0.21430520713329315,-0.1677762269973755,-0.17848199605941772
1725629107393546200,5.588546142578125,0.2609321177005768,-0.19706541299819946,-0.20413756370544434
1725629107403499300,5.598499267578125,0.3144228160381317,-0.25996991991996765,-0.24247011542320251
1725629107413452300,5.608452392578125,0.37454846501350403,-0.2894926369190216,-0.2564261257648468
1725629107423405300,5.6184052734375,0.41033583879470825,-0.30796024203300476,-0.2881524860858917
1725629107433358300,5.6283583984375,0.444421648979187,-0.34648337960243225,-0.3514483869075775
1725629107443311400,5.638311279296875,0.4733659625053406,-0.35433048009872437,-0.3972240686416626
1725629107453264400,5.648264404296875,0.4753910303115845,-0.3395240902900696,-0.43219083547592163
1725629107463217400,5.658217529296875,0.4863393306732178,-0.3431192934513092,-0.4703350067138672
1725629107473170400,5.66817041015625,0.5270774364471436,-0.3646427094936371,-0.5120965242385864
1725629107483123500,5.67812353515625,0.5595260262489319,-0.3647451102733612,-0.5166590809822083
1725629107493076200,5.688076171875,0.5667400360107422,-0.34009090065956116,-0.5112384557723999
1725629107503029200,5.698029296875,0.5914535522460938,-0.337246298789978,-0.5127961039543152
1725629107512982300,5.707982177734375,0.5989602208137512,-0.33336418867111206,-0.5130429863929749
1725629107522935300,5.717935302734375,0.5898969769477844,-0.33645498752593994,-0.5219272971153259
1725629107532888300,5.727888427734375,0.5930075645446777,-0.36645761132240295,-0.5356638431549072
1725629107542841300,5.73784130859375,0.6191218495368958,-0.38348180055618286,-0.5208240747451782
1725629107552795400,5.74779541015625,0.6243243217468262,-0.39635124802589417,-0.5027427673339844
1725629107562748400,5.75774853515625,0.6369303464889526,-0.4625700116157532,-0.5352557301521301
1725629107572701400,5.767701416015625,0.6834179162979126,-0.5041056871414185,-0.536992609500885
1725629107582654500,5.777654541015625,0.7034791111946106,-0.4770785868167877,-0.496062308549881
1725629107592607500,5.787607421875,0.7088406085968018,-0.4217916429042816,-0.4485437870025635
1725629107602560500,5.797560546875,0.6965025067329407,-0.4222418963909149,-0.4333191514015198
1725629107612513500,5.807513427734375,0.7107376456260681,-0.4612787961959839,-0.450115442276001
1725629107622466300,5.81746630859375,0.7094358801841736,-0.4365461766719818,-0.4126432240009308
1725629107632419300,5.82741943359375,0.700588047504425,-0.4409851133823395,-0.40963679552078247
1725629107642372400,5.837372314453125,0.7002651691436768,-0.48133522272109985,-0.42345789074897766
1725629107652325400,5.847325439453125,0.6913065314292908,-0.4409227967262268,-0.41255488991737366
1725629107662278400,5.8572783203125,0.656593918800354,-0.3313466012477875,-0.3547893166542053
1725629107672231400,5.8672314453125,0.6113572120666504,-0.26232412457466125,-0.2957392930984497
1725629107682184400,5.877184326171875,0.5703218579292297,-0.24877524375915527,-0.3052177131175995
1725629107692137500,5.887137451171875,0.5433543920516968,-0.2685156464576721,-0.3341161906719208
1725629107702090500,5.897090576171875,0.5159610509872437,-0.2342458963394165,-0.30519986152648926
1725629107712043500,5.90704345703125,0.47507572174072266,-0.1817358136177063,-0.2874389588832855
1725629107721996500,5.91699658203125,0.42994552850723267,-0.13613921403884888,-0.28789833188056946
1725629107731949300,5.92694921875,0.4116743803024292,-0.110391765832901,-0.307801216840744
1725629107741902300,5.93690234375,0.3940407633781433,-0.12165843695402145,-0.341377854347229
1725629107751855400,5.94685546875,0.3520597517490387,-0.10499956458806992,-0.3530281186103821
1725629107761808400,5.956808349609375,0.3182866871356964,-0.07856286317110062,-0.3277909755706787
1725629107771761400,5.966761474609375,0.2769067585468292,-0.07084661722183228,-0.30311012268066406
1725629107781714400,5.97671435546875,0.1991530954837799,-0.032798200845718384,-0.3062132000923157
1725629107791668500,5.98666845703125,0.12113792449235916,-0.053264860063791275,-0.30303657054901123
1725629107801621500,5.99662158203125,0.10124434530735016,-0.045446328818798065,-0.24333299696445465
1725629107811574500,6.006574462890625,0.024749569594860077,-0.01429346576333046,-0.20684769749641418
1725629107821527600,6.016527587890625,-0.01460590586066246,-0.022449087351560593,-0.12426366657018661
1725629107831480600,6.02648046875,-0.028359267860651016,-0.00478806858882308,0.01013462245464325
1725629107841433600,6.03643359375,-0.07022382318973541,0.028169678524136543,0.07928825914859772
1725629107851386600,6.04638671875,-0.06668688356876373,0.07117439806461334,0.16466759145259857
1725629107861339400,6.05633935546875,-0.05472993850708008,0.10034921020269394,0.24777540564537048
1725629107871292400,6.06629248046875,-0.04210202768445015,0.10034068673849106,0.27414470911026
1725629107881245400,6.076245361328125,-0.029665641486644745,0.11524421721696854,0.28187689185142517
1725629107891198500,6.086198486328125,-0.029677361249923706,0.13276860117912292,0.27643445134162903
1725629107901151500,6.0961513671875,-0.008307479321956635,0.07511287182569504,0.26151636242866516
1725629107911104500,6.1061044921875,-0.020659752190113068,0.047347549349069595,0.24045686423778534
1725629107921057500,6.1160576171875,-0.02324065752327442,-0.009450838901102543,0.2189016342163086
1725629107931010600,6.126010498046875,-0.03845582902431488,-0.017151901498436928,0.2174065262079239
1725629107940963600,6.135963623046875,-0.07379211485385895,-0.029175791889429092,0.2100573480129242
1725629107950917400,6.14591748046875,-0.10419715940952301,-0.056209806352853775,0.1954573690891266
1725629107960870400,6.155870361328125,-0.11173179000616074,-0.08724359422922134,0.19064092636108398
1725629107970823400,6.165823486328125,-0.11472012102603912,-0.15326069295406342,0.1689196527004242
1725629107980776400,6.1757763671875,-0.10271210223436356,-0.23044556379318237,0.1412343978881836
1725629107990729200,6.185729248046875,-0.10521547496318817,-0.2827465832233429,0.14116542041301727
1725629108000682200,6.19568212890625,-0.11235374957323074,-0.2950292229652405,0.17602437734603882
1725629108010635300,6.20563525390625,-0.12972208857536316,-0.3313866853713989,0.18175549805164337
1725629108020588300,6.21558837890625,-0.13929490745067596,-0.34925565123558044,0.1871696412563324
1725629108030541300,6.225541259765625,-0.16139940917491913,-0.32867366075515747,0.20000287890434265
1725629108040494300,6.235494384765625,-0.17506161332130432,-0.3212863802909851,0.1979541778564453
1725629108050447400,6.245447265625,-0.1791841834783554,-0.32805028557777405,0.17338146269321442
1725629108060400400,6.255400390625,-0.1945166140794754,-0.31595298647880554,0.15624479949474335
1725629108070353400,6.265353515625,-0.2128673940896988,-0.31591328978538513,0.15206630527973175
1725629108080306400,6.275306396484375,-0.2405218631029129,-0.2981525659561157,0.14973832666873932
1725629108090259500,6.285259521484375,-0.2598923444747925,-0.26531633734703064,0.18082115054130554
1725629108100212200,6.295212158203125,-0.2824651896953583,-0.23734025657176971,0.20274733006954193
1725629108110165000,6.3051650390625,-0.3035616874694824,-0.19652065634727478,0.22305312752723694
1725629108120118800,6.315118896484375,-0.32385683059692383,-0.14394666254520416,0.2610849142074585
1725629108130071800,6.32507177734375,-0.3329611122608185,-0.06975258886814117,0.2946644425392151
1725629108140024800,6.33502490234375,-0.34398677945137024,-0.026739919558167458,0.3049880266189575
1725629108149977900,6.344977783203125,-0.3486081659793854,-0.007329737767577171,0.31110289692878723
1725629108159930600,6.3549306640625,-0.3510032296180725,-0.007432306185364723,0.30569976568222046
1725629108169883600,6.364883544921875,-0.3726334273815155,0.012904923409223557,0.2733231782913208
1725629108179836700,6.374836669921875,-0.3889184594154358,0.08970928192138672,0.293000727891922
1725629108189789700,6.384789794921875,-0.423126220703125,0.16630737483501434,0.33824461698532104
1725629108199742700,6.39474267578125,-0.4640238881111145,0.26768404245376587,0.3609391748905182
1725629108209695700,6.40469580078125,-0.5003174543380737,0.29952719807624817,0.37400490045547485
1725629108219648800,6.414648681640625,-0.527137041091919,0.3072313070297241,0.40134668350219727
1725629108229601800,6.424601806640625,-0.5499464869499207,0.23427002131938934,0.3943527042865753
1725629108239554800,6.434554931640625,-0.5875228643417358,0.2760276794433594,0.3627641797065735
1725629108249507800,6.4445078125,-0.5912297368049622,0.3046755790710449,0.38464444875717163
1725629108259460900,6.4544609375,-0.6052559018135071,0.3886736035346985,0.4250667691230774
1725629108269413600,6.46441357421875,-0.6193403005599976,0.4537588655948639,0.44732174277305603
1725629108279366700,6.47436669921875,-0.6307926774024963,0.4702407717704773,0.4481064975261688
1725629108289319700,6.484319580078125,-0.6340997815132141,0.4489797055721283,0.4275636672973633
1725629108299273700,6.494273681640625,-0.6241951584815979,0.39807412028312683,0.391586035490036
1725629108309226800,6.504226806640625,-0.6091424226760864,0.3998216986656189,0.37524911761283875
1725629108319179800,6.5141796875,-0.6001651287078857,0.4693692922592163,0.39319705963134766
1725629108329132800,6.5241328125,-0.6092520952224731,0.5152286291122437,0.407255083322525
1725629108339085800,6.5340859375,-0.5993720889091492,0.5218308568000793,0.4126083254814148
1725629108349038800,6.544038818359375,-0.5929256677627563,0.5689738392829895,0.44532179832458496
1725629108358992000,6.553991943359375,-0.5961828231811523,0.5925102233886719,0.4388301968574524
1725629108368945000,6.56394482421875,-0.5837778449058533,0.5465951561927795,0.40567198395729065
1725629108378898000,6.57389794921875,-0.5495331883430481,0.5204289555549622,0.410271555185318
1725629108388851000,6.583850830078125,-0.5449251532554626,0.5087214708328247,0.38538458943367004
1725629108398803700,6.5938037109375,-0.5208104252815247,0.47484344244003296,0.32931238412857056
1725629108408756700,6.6037568359375,-0.47939586639404297,0.4328560531139374,0.29507559537887573
1725629108418709800,6.613709716796875,-0.47565141320228577,0.4268956184387207,0.2577586770057678
1725629108428662800,6.623662841796875,-0.4443105459213257,0.42920830845832825,0.2376326620578766
1725629108438615800,6.63361572265625,-0.41114503145217896,0.40347784757614136,0.23732125759124756
1725629108448568800,6.64356884765625,-0.39249491691589355,0.33395496010780334,0.20664562284946442
1725629108458521900,6.65352197265625,-0.37012046575546265,0.2878212630748749,0.188118577003479
1725629108468475000,6.663474853515625,-0.3106171786785126,0.307650625705719,0.1842263638973236
1725629108478429000,6.673428955078125,-0.31261152029037476,0.25979310274124146,0.17230001091957092
1725629108488382000,6.6833818359375,-0.2980959415435791,0.19380183517932892,0.14454588294029236
1725629108498335000,6.6933349609375,-0.2664344012737274,0.16800333559513092,0.1285964995622635
1725629108508288000,6.7032880859375,-0.2318021059036255,0.15053486824035645,0.11573850363492966
1725629108518241000,6.713240966796875,-0.19751471281051636,0.12774379551410675,0.089067742228508
1725629108528193800,6.72319384765625,-0.1473623365163803,0.08992638438940048,0.05057600513100624
1725629108538146800,6.733146728515625,-0.0790371373295784,0.05672016367316246,0.013554206117987633
1725629108548099800,6.743099853515625,0.0027943458408117294,0.0006465092883445323,-0.05673646926879883
1725629108558052900,6.753052978515625,0.1056961864233017,-0.0274959709495306,-0.11903925985097885
1725629108568006000,6.763005859375,0.17324219644069672,-0.04131884127855301,-0.18175484240055084
1725629108577959000,6.772958984375,0.21148836612701416,-0.09213371574878693,-0.2561125159263611
1725629108587912000,6.782911865234375,0.25877222418785095,-0.1442112922668457,-0.32057592272758484
1725629108597865000,6.792864990234375,0.2924845516681671,-0.15538102388381958,-0.35467198491096497
1725629108607818000,6.80281787109375,0.3138098120689392,-0.15341880917549133,-0.37529870867729187
1725629108617771000,6.81277099609375,0.34236326813697815,-0.18793310225009918,-0.4035221338272095
1725629108627724000,6.82272412109375,0.36597806215286255,-0.18564331531524658,-0.4038712680339813
1725629108637676800,6.8326767578125,0.37422043085098267,-0.20634087920188904,-0.42468008399009705
1725629108647629800,6.8426298828125,0.3829585313796997,-0.2122429758310318,-0.44985681772232056
1725629108657583600,6.85258349609375,0.39452090859413147,-0.1945439726114273,-0.4439060091972351
1725629108667536600,6.86253662109375,0.4048507809638977,-0.21354162693023682,-0.47116586565971375
1725629108677489700,6.87248974609375,0.4291963577270508,-0.2365504801273346,-0.47968825697898865
1725629108687442700,6.882442626953125,0.4580034911632538,-0.23195333778858185,-0.4856041967868805
1725629108697395700,6.892395751953125,0.49658632278442383,-0.23473261296749115,-0.5016561150550842
1725629108707348700,6.9023486328125,0.5421016216278076,-0.26976436376571655,-0.5323383808135986
1725629108717301800,6.9123017578125,0.5767334699630737,-0.26113128662109375,-0.5469982624053955
1725629108727254800,6.9222548828125,0.5964277982711792,-0.2492985874414444,-0.5667397379875183
1725629108737207800,6.932207763671875,0.6246210932731628,-0.28421345353126526,-0.6031299829483032
1725629108747160800,6.942160888671875,0.6643796563148499,-0.2866326868534088,-0.6113274693489075
1725629108757113600,6.952113525390625,0.684617817401886,-0.2820897102355957,-0.6268967986106873
1725629108767066600,6.962066650390625,0.7022942900657654,-0.2928621768951416,-0.6463373303413391
1725629108777019600,6.97201953125,0.7391717433929443,-0.32933932542800903,-0.6652312278747559
1725629108786972700,6.98197265625,0.7619161605834961,-0.28501155972480774,-0.6330498456954956
1725629108796925700,6.99192578125,0.7313609719276428,-0.2486228346824646,-0.6062264442443848
1725629108806878700,7.001878662109375,0.7229035496711731,-0.2717190980911255,-0.5701603293418884
1725629108816831700,7.011831787109375,0.69873046875,-0.27463018894195557,-0.5127322673797607
1725629108826784800,7.02178466796875,0.6784132122993469,-0.17142949998378754,-0.44177576899528503
1725629108836738800,7.03173876953125,0.5836983919143677,-0.20716246962547302,-0.5331817269325256
1725629108846691800,7.04169189453125,0.5589600205421448,-0.1832965463399887,-0.5734426379203796
1725629108856644900,7.051644775390625,0.512689471244812,-0.09814213216304779,-0.501522421836853
1725629108866598000,7.061597900390625,0.4749425947666168,-0.050035055726766586,-0.4695061445236206
1725629108876551000,7.071551025390625,0.45974263548851013,0.0041879466734826565,-0.4078177809715271
1725629108886503700,7.081503662109375,0.43070217967033386,0.04623766243457794,-0.3521108627319336
1725629108896456700,7.091456787109375,0.4162798523902893,0.022892391309142113,-0.334116667509079
1725629108906409700,7.10140966796875,0.4045235812664032,-0.03506012260913849,-0.36338719725608826
1725629108916362800,7.11136279296875,0.4045443534851074,-0.10471890866756439,-0.4070199429988861
1725629108926315800,7.121315673828125,0.4152846038341522,-0.09113172441720963,-0.3715439736843109
1725629108936268800,7.131268798828125,0.38747695088386536,-0.09244716912508011,-0.3330155313014984
1725629108946221800,7.141221923828125,0.3568769693374634,-0.060420531779527664,-0.28161999583244324
1725629108956174800,7.1511748046875,0.29666996002197266,-0.08235681056976318,-0.2476164549589157
1725629108966127900,7.1611279296875,0.26864686608314514,-0.053548067808151245,-0.19204001128673553
1725629108976081000,7.171080810546875,0.2392766922712326,-0.062103528529405594,-0.18222641944885254
1725629108986034000,7.181033935546875,0.20557253062725067,-0.10216891765594482,-0.20053404569625854
1725629108995986700,7.190986572265625,0.18779467046260834,-0.10414309054613113,-0.14962056279182434
1725629109005939700,7.200939697265625,0.14823207259178162,-0.09708571434020996,-0.13886459171772003
1725629109015893800,7.210893798828125,0.1240316852927208,-0.0924898162484169,-0.07319658994674683
1725629109025846800,7.2208466796875,0.10466092079877853,-0.12807710468769073,-0.034080613404512405
1725629109035799800,7.2307998046875,0.09042979031801224,-0.07607142627239227,0.006776805035769939
1725629109045752800,7.2407529296875,0.061824504286050797,-0.07229453325271606,0.04015553370118141
1725629109055705900,7.250705810546875,0.06406467407941818,-0.11290396004915237,0.09003619849681854
1725629109065659000,7.260658935546875,0.04303928464651108,-0.10250058770179749,0.10273042321205139
1725629109075612000,7.27061181640625,0.00978797860443592,-0.05740013346076012,0.15569163858890533
1725629109085565000,7.28056494140625,-0.009221664629876614,-0.019069787114858627,0.18499013781547546
1725629109095518000,7.29051806640625,-0.023342853412032127,0.008430941961705685,0.19624102115631104
1725629109105471200,7.30047119140625,-0.030989589169621468,-0.029689280316233635,0.1978152096271515
1725629109115424300,7.31042431640625,-0.04914652183651924,-0.08307543396949768,0.14818260073661804
1725629109125377300,7.320377197265625,-0.04686552286148071,-0.06918279081583023,0.15619312226772308
1725629109135330300,7.330330322265625,-0.05458427220582962,-0.09303966164588928,0.150398388504982
1725629109145283300,7.340283447265625,-0.07639795541763306,-0.14851251244544983,0.12021919339895248
1725629109155236400,7.350236328125,-0.08801582455635071,-0.19274799525737762,0.0995519831776619
1725629109165189400,7.360189453125,-0.10670509189367294,-0.23684701323509216,0.07743816077709198
1725629109175142100,7.37014208984375,-0.1154736652970314,-0.2861090302467346,0.06284799426794052
1725629109185095200,7.38009521484375,-0.11331730335950851,-0.3194595277309418,0.07597178220748901
1725629109195049000,7.390049072265625,-0.11699734628200531,-0.3480977714061737,0.08644608408212662
1725629109205002000,7.400001953125,-0.11947008967399597,-0.3648812770843506,0.10231159627437592
1725629109214955000,7.409955078125,-0.11753519624471664,-0.35138967633247375,0.14647580683231354
1725629109224908000,7.419907958984375,-0.11577644944190979,-0.3491017520427704,0.17089885473251343
1725629109234861000,7.429861083984375,-0.11502356827259064,-0.3631073236465454,0.16033756732940674
1725629109244814000,7.43981396484375,-0.11791496723890305,-0.36261969804763794,0.1905878782272339
1725629109254767000,7.44976708984375,-0.13208241760730743,-0.3696652054786682,0.21065379679203033
1725629109264720100,7.45972021484375,-0.15420636534690857,-0.3540806472301483,0.21920093894004822
1725629109274673200,7.469673095703125,-0.17935492098331451,-0.31854888796806335,0.24194404482841492
1725629109284626200,7.479626220703125,-0.20185144245624542,-0.26213327050209045,0.2879405617713928
1725629109294579000,7.489578857421875,-0.22445029020309448,-0.21880795061588287,0.3142491579055786
1725629109304532000,7.499531982421875,-0.23829101026058197,-0.1967998594045639,0.31168267130851746
1725629109314485000,7.509485107421875,-0.2596854865550995,-0.17257073521614075,0.30094367265701294
1725629109324438000,7.51943798828125,-0.2817004919052124,-0.14817696809768677,0.2804328203201294
1725629109334391000,7.52939111328125,-0.30937641859054565,-0.0670752078294754,0.296479731798172
1725629109344344000,7.539343994140625,-0.3368764817714691,0.015757089480757713,0.3546665906906128
1725629109354297000,7.549297119140625,-0.3646430969238281,0.02134491130709648,0.34873947501182556
1725629109364250000,7.55925,-0.3757319748401642,0.028814811259508133,0.3302249014377594
1725629109374203100,7.569203125,-0.39612144231796265,0.10776147246360779,0.37669700384140015
1725629109384157200,7.5791572265625,-0.41266632080078125,0.18529994785785675,0.4024673402309418
1725629109394110200,7.589110107421875,-0.41713273525238037,0.15592388808727264,0.3822808563709259
1725629109404063200,7.599063232421875,-0.44712314009666443,0.24395067989826202,0.3774983584880829
1725629109414016300,7.609016357421875,-0.48317524790763855,0.3010541796684265,0.36818161606788635
1725629109423969000,7.618968994140625,-0.5130977630615234,0.3157559037208557,0.34185677766799927
1725629109433922000,7.628922119140625,-0.5303035974502563,0.34159424901008606,0.33413535356521606
1725629109443875000,7.638875,-0.5496522188186646,0.38984835147857666,0.3476370573043823
1725629109453828000,7.648828125,-0.5745869278907776,0.45126113295555115,0.38661035895347595
1725629109463781000,7.658781005859375,-0.6109031438827515,0.5118499398231506,0.4191153049468994
1725629109473734100,7.668734130859375,-0.645801305770874,0.5590972304344177,0.46108511090278625
1725629109483687200,7.678687255859375,-0.6782857179641724,0.5928991436958313,0.48334380984306335
1725629109493640200,7.68864013671875,-0.6865323185920715,0.5934780836105347,0.49569207429885864
1725629109503593200,7.69859326171875,-0.6758517622947693,0.5976827144622803,0.5201367139816284
1725629109513546200,7.708546142578125,-0.6667406558990479,0.5944344997406006,0.5216687321662903
1725629109523499300,7.718499267578125,-0.6356634497642517,0.621673047542572,0.5508511066436768
1725629109533452000,7.7284521484375,-0.6216201186180115,0.6586818695068359,0.5678491592407227
1725629109543405000,7.738405029296875,-0.611565351486206,0.6779293417930603,0.5524193048477173
1725629109553358000,7.748358154296875,-0.5864067077636719,0.663666307926178,0.5395174026489258
1725629109563311000,7.75831103515625,-0.5544610619544983,0.6401636600494385,0.5242636203765869
1725629109573265200,7.76826513671875,-0.5179294347763062,0.5818713307380676,0.4808293581008911
1725629109583218200,7.77821826171875,-0.4683736264705658,0.5318217873573303,0.45917758345603943
1725629109593171200,7.788171142578125,-0.4313964247703552,0.5052503347396851,0.44455844163894653
1725629109603124200,7.798124267578125,-0.4032454788684845,0.4538592994213104,0.39528223872184753
1725629109613077200,7.8080771484375,-0.38043591380119324,0.3755132555961609,0.3497910499572754
1725629109623030300,7.8180302734375,-0.3600696623325348,0.31528186798095703,0.32714033126831055
1725629109632983300,7.8279833984375,-0.28283968567848206,0.2732401490211487,0.3588581085205078
1725629109642936300,7.837936279296875,-0.26751530170440674,0.16833211481571198,0.3057309687137604
1725629109652889300,7.847889404296875,-0.2404390275478363,0.1902049481868744,0.3245660960674286
1725629109662842000,7.857842041015625,-0.1942603439092636,0.13444393873214722,0.26608866453170776
1725629109672795100,7.867795166015625,-0.15934039652347565,0.07580723613500595,0.2035079449415207
1725629109682748200,7.877748046875,-0.12304335832595825,0.06497402489185333,0.17008046805858612
1725629109692701200,7.887701171875,-0.07769125699996948,0.024831971153616905,0.13501913845539093
1725629109702654200,7.897654296875,-0.04788994789123535,-0.021177863702178,0.12312733381986618
1725629109712607200,7.907607177734375,0.00940747745335102,-0.043802689760923386,0.09958551824092865
1725629109722560300,7.917560302734375,0.07074114680290222,-0.05441911518573761,0.0513029471039772
1725629109732513300,7.92751318359375,0.13164472579956055,-0.06933166831731796,-0.012446973472833633
1725629109742466300,7.93746630859375,0.20524410903453827,-0.07443055510520935,-0.050553612411022186
1725629109752419300,7.94741943359375,0.2461986392736435,-0.12361039221286774,-0.10870318114757538
1725629109762373000,7.957373046875,0.2933430075645447,-0.14051347970962524,-0.15525496006011963
1725629109772326100,7.967326171875,0.33290281891822815,-0.1290692687034607,-0.19003216922283173
1725629109782279200,7.977279052734375,0.3584638237953186,-0.08193264901638031,-0.22044093906879425
1725629109792232000,7.98723193359375,0.38989919424057007,-0.14416135847568512,-0.25510191917419434
1725629109802185000,7.99718505859375,0.42189866304397583,-0.18318171799182892,-0.28529125452041626
1725629109812138000,8.007137939453125,0.44604289531707764,-0.2035054713487625,-0.3446957767009735
1725629109822091000,8.017091064453124,0.48146212100982666,-0.2136201560497284,-0.3860030174255371
1725629109832044000,8.0270439453125,0.5160788893699646,-0.18490108847618103,-0.41669467091560364
1725629109841997000,8.0369970703125,0.5326820611953735,-0.2047797292470932,-0.4819357097148895
1725629109851950000,8.0469501953125,0.5804281234741211,-0.2702297866344452,-0.5503102540969849
1725629109861903000,8.056903076171874,0.6168622970581055,-0.2404860258102417,-0.5553044676780701
1725629109871856000,8.066856201171875,0.6244459748268127,-0.21749091148376465,-0.5919612646102905
1725629109881809200,8.07680908203125,0.6441839933395386,-0.20710325241088867,-0.6339859962463379
1725629109891762200,8.08676220703125,0.6815494298934937,-0.20426759123802185,-0.6446012854576111
1725629109901715000,8.09671484375,0.6709375381469727,-0.21359984576702118,-0.6798498034477234
1725629109911668000,8.10666796875,0.6750823855400085,-0.2026609182357788,-0.6956390738487244
1725629109921621000,8.11662109375,0.6791751384735107,-0.1953825056552887,-0.6815381646156311
1725629109931574000,8.126573974609375,0.6707991361618042,-0.21488811075687408,-0.7024045586585999
1725629109941527000,8.136527099609374,0.6803725957870483,-0.2665049731731415,-0.734667956829071
1725629109951480000,8.14647998046875,0.680316686630249,-0.27742624282836914,-0.7211563587188721
1725629109961434000,8.15643408203125,0.6598274111747742,-0.24111245572566986,-0.6393917202949524
1725629109971387100,8.16638720703125,0.6880030632019043,-0.2439931333065033,-0.5652262568473816
1725629109981340200,8.176340087890624,0.6768295168876648,-0.18050365149974823,-0.5939550995826721
1725629109991293200,8.186293212890625,0.5954058766365051,-0.14149565994739532,-0.7089134454727173
1725629110001246200,8.19624609375,0.5294548273086548,-0.17176754772663116,-0.8079031705856323
1725629110011199200,8.20619921875,0.5147790312767029,-0.1543581485748291,-0.7522428035736084
1725629110021152300,8.21615234375,0.4743781089782715,-0.11169883608818054,-0.70916348695755
1725629110031105000,8.22610498046875,0.4685153663158417,-0.11025144159793854,-0.6622893810272217
1725629110041058000,8.23605810546875,0.48687678575515747,-0.1064833328127861,-0.5848129987716675
1725629110051011000,8.246010986328125,0.4799429774284363,-0.05894175171852112,-0.5009655356407166
1725629110060964000,8.255964111328124,0.44861966371536255,-0.010354245081543922,-0.45323774218559265
1725629110070917000,8.265917236328125,0.414880633354187,-0.006666246335953474,-0.45532843470573425
1725629110080870100,8.2758701171875,0.36655038595199585,-0.005112558137625456,-0.4509435296058655
1725629110090823200,8.2858232421875,0.3132614195346832,0.036345891654491425,-0.41100987792015076
1725629110100776200,8.295776123046876,0.2938608229160309,0.11477811634540558,-0.24904175102710724
1725629110110729000,8.30572900390625,0.2315463274717331,0.10156377404928207,-0.2203051745891571
1725629110120682000,8.315681884765626,0.2235989272594452,0.1441141664981842,-0.14365912973880768
1725629110130634800,8.325634765625,0.21286341547966003,0.07766877114772797,-0.09975533932447433
1725629110140589000,8.335589111328124,0.22050721943378448,0.05634484440088272,-0.05543234944343567
1725629110150541800,8.345541748046875,0.22758178412914276,0.013091634958982468,-0.014995928853750229
1725629110160494800,8.355494873046876,0.2375262975692749,0.012083894573152065,0.053860899060964584
1725629110170448000,8.36544775390625,0.2608112394809723,0.04589654505252838,0.08304326981306076
1725629110180401000,8.37540087890625,0.2707933187484741,0.027454156428575516,0.07070378214120865
1725629110190354000,8.38535400390625,0.230989009141922,0.003695572027936578,0.04186595603823662
1725629110200307000,8.395306884765626,0.20835693180561066,0.04423128068447113,0.09664584696292877
1725629110210260000,8.405260009765625,0.1739901751279831,0.01910177432000637,0.09536729007959366
1725629110220213000,8.415212890625,0.12742507457733154,0.055471234023571014,0.12952420115470886
1725629110230166000,8.425166015625,0.1020551547408104,0.019374124705791473,0.16259081661701202
1725629110240119000,8.435119140625,0.06908069550991058,0.0018760906532406807,0.16233249008655548
1725629110250072000,8.445072021484375,0.042017292231321335,-0.005686683114618063,0.18918895721435547
1725629110260024800,8.45502490234375,0.010822620242834091,-0.03344054892659187,0.19804957509040833
1725629110269977900,8.464977783203125,-0.02416624128818512,-0.07921986281871796,0.16340124607086182
1725629110279931000,8.474930908203126,-0.06271044164896011,-0.08803332597017288,0.15018583834171295
1725629110289884000,8.4848837890625,-0.09904853254556656,-0.09097447246313095,0.13258400559425354
1725629110299837000,8.4948369140625,-0.126145139336586,-0.1074884682893753,0.1031334325671196
1725629110309790000,8.5047900390625,-0.15508253872394562,-0.11799917370080948,0.07733127474784851
1725629110319743700,8.51474365234375,-0.18432244658470154,-0.1129535436630249,0.07682526856660843
1725629110329696800,8.52469677734375,-0.2086784541606903,-0.12247943878173828,0.03774473816156387
1725629110339649800,8.53464990234375,-0.2145930677652359,-0.11951267719268799,0.014847143553197384
1725629110349602800,8.544602783203125,-0.2184135764837265,-0.11509339511394501,0.018617093563079834
1725629110359555800,8.554555908203126,-0.2092142105102539,-0.13735289871692657,-0.002437058836221695
1725629110369508900,8.5645087890625,-0.20070621371269226,-0.16101935505867004,-0.007090133614838123
1725629110379462000,8.5744619140625,-0.19927076995372772,-0.14666171371936798,0.025720544159412384
1725629110389415000,8.584414794921875,-0.21009761095046997,-0.15750421583652496,0.02877654694020748
1725629110399368000,8.594367919921876,-0.2132103145122528,-0.134730726480484,0.05651310458779335
1725629110409320700,8.60432080078125,-0.22518163919448853,-0.10468173027038574,0.10700525343418121
1725629110419273700,8.614273681640626,-0.23638716340065002,-0.13665324449539185,0.12551556527614594
1725629110429226800,8.624226806640625,-0.2400987595319748,-0.16809481382369995,0.1338537484407425
1725629110439179800,8.6341796875,-0.24811166524887085,-0.15150411427021027,0.18101859092712402
1725629110449132800,8.6441328125,-0.27040624618530273,-0.12159290164709091,0.22389115393161774
1725629110459085800,8.6540859375,-0.2910366952419281,-0.11316053569316864,0.21969960629940033
1725629110469038800,8.664038818359375,-0.3077627420425415,-0.11887906491756439,0.17954853177070618
1725629110478992000,8.673991943359376,-0.30956146121025085,-0.10695289820432663,0.19114074110984802
1725629110488945000,8.68394482421875,-0.35872673988342285,-0.022517548874020576,0.18506604433059692
1725629110498897700,8.693897705078125,-0.3562052547931671,-0.0313323475420475,0.2353542596101761
1725629110508850700,8.7038505859375,-0.40304312109947205,0.0881890207529068,0.2555042803287506
1725629110518804700,8.7138046875,-0.39938074350357056,0.017367040738463402,0.2226552665233612
1725629110528757800,8.7237578125,-0.4512132406234741,0.17003421485424042,0.22785326838493347
1725629110538710800,8.733710693359376,-0.46379613876342773,0.23174099624156952,0.277768611907959
1725629110548663800,8.743663818359375,-0.5234281420707703,0.29805585741996765,0.2624226212501526
1725629110558616800,8.753616943359376,-0.5419227480888367,0.2677200734615326,0.28267037868499756
1725629110568569900,8.76356982421875,-0.595324695110321,0.33526551723480225,0.299385130405426
1725629110578523000,8.77352294921875,-0.6262053847312927,0.3458121716976166,0.3118774890899658
1725629110588476000,8.783475830078125,-0.6272419095039368,0.40491586923599243,0.3732167184352875
1725629110598429000,8.793428955078125,-0.6310334205627441,0.44274231791496277,0.40732434391975403
1725629110608382000,8.8033818359375,-0.639768660068512,0.4238848090171814,0.39799588918685913
1725629110618335000,8.8133349609375,-0.6607732772827148,0.5200420022010803,0.4672660529613495
1725629110628287700,8.823287841796875,-0.7033951878547668,0.5956647992134094,0.5129681825637817
1725629110638240800,8.83324072265625,-0.7362998723983765,0.5962008833885193,0.5071574449539185
1725629110648193800,8.84319384765625,-0.755341112613678,0.6437520384788513,0.5387599468231201
1725629110658146800,8.853146728515625,-0.7626983523368835,0.6557967066764832,0.545563817024231
1725629110668099800,8.863099853515624,-0.7644165754318237,0.63545823097229,0.5422561168670654
1725629110678052900,8.873052978515625,-0.7682216763496399,0.6602264642715454,0.57068932056427
1725629110688006000,8.883005859375,-0.772102952003479,0.7080328464508057,0.6138898134231567
1725629110697960000,8.8929599609375,-0.8165321946144104,0.6933740377426147,0.5975430607795715
1725629110707913000,8.902912841796875,-0.7565866112709045,0.7109718918800354,0.6503250598907471
1725629110717866000,8.912865966796875,-0.7055774927139282,0.657804548740387,0.6267063021659851
1725629110727819000,8.922819091796875,-0.6848424077033997,0.5875129699707031,0.5658320784568787
1725629110737772000,8.93277197265625,-0.6579495668411255,0.5113361477851868,0.48488396406173706
1725629110747725000,8.94272509765625,-0.6075597405433655,0.4874747693538666,0.41588616371154785
1725629110757677800,8.952677734375,-0.5398326516151428,0.45955950021743774,0.3521687090396881
1725629110767630800,8.962630859375,-0.5264871120452881,0.41022685170173645,0.3094751238822937
1725629110777583900,8.972583984375,-0.4844432473182678,0.3419135808944702,0.26924142241477966
1725629110787537000,8.982536865234374,-0.4630844295024872,0.2555512487888336,0.22181636095046997
1725629110797490000,8.992489990234375,-0.4084097445011139,0.2559922933578491,0.24485322833061218
1725629110807443000,9.00244287109375,-0.39197036623954773,0.1731133908033371,0.1801268756389618
1725629110817396000,9.01239599609375,-0.3598635792732239,0.1223684623837471,0.1264772266149521
1725629110827349000,9.022348876953124,-0.3041440546512604,0.13197952508926392,0.12258750945329666
1725629110837302000,9.032302001953125,-0.26532182097435,0.10240431874990463,0.08774856477975845
1725629110847255000,9.042255126953124,-0.22552061080932617,0.03793744370341301,0.03688379377126694
1725629110857208000,9.0522080078125,-0.14672379195690155,-0.01226979773491621,0.023210855200886726
1725629110867160800,9.062160888671874,-0.04829449579119682,-0.03281257674098015,0.03154128044843674
1725629110877113900,9.07211376953125,0.04980943351984024,-0.06188364326953888,0.015615309588611126
1725629110887068000,9.08206787109375,0.12105758488178253,-0.08270028978586197,-0.021819204092025757
1725629110897021000,9.09202099609375,0.17703242599964142,-0.1653411090373993,-0.10782173275947571
1725629110906974000,9.101973876953124,0.2612011730670929,-0.1978122740983963,-0.16022399067878723
1725629110916927000,9.111927001953125,0.328068345785141,-0.16992099583148956,-0.19791065156459808
1725629110926880000,9.1218798828125,0.34719935059547424,-0.21457575261592865,-0.26441502571105957
1725629110936833000,9.1318330078125,0.3935937285423279,-0.26597046852111816,-0.30591267347335815
1725629110946786000,9.1417861328125,0.438629150390625,-0.2637125253677368,-0.31261754035949707
1725629110956739000,9.151739013671875,0.4498857855796814,-0.25531983375549316,-0.3391932249069214
1725629110966692000,9.161692138671874,0.48120349645614624,-0.33536335825920105,-0.4035149812698364
1725629110976645000,9.17164501953125,0.5278181433677673,-0.3439081013202667,-0.41852161288261414
1725629110986598000,9.181597900390624,0.548151433467865,-0.336145281791687,-0.45893844962120056
1725629110996551000,9.191551025390625,0.5638068318367004,-0.3614919185638428,-0.5141662955284119
1725629111006504000,9.20150390625,0.5919710397720337,-0.3590673506259918,-0.5448496341705322
1725629111016457000,9.21145703125,0.6047254204750061,-0.3799790143966675,-0.5788843035697937
1725629111026410000,9.221409912109374,0.6187688708305359,-0.3236662745475769,-0.5666791200637817
1725629111036363000,9.231363037109375,0.6240544319152832,-0.32294535636901855,-0.6028911471366882
1725629111046316000,9.24131591796875,0.6308727264404297,-0.30563589930534363,-0.6273110508918762
1725629111056269000,9.25126904296875,0.6426215171813965,-0.33065977692604065,-0.6850987076759338
1725629111066222000,9.26122216796875,0.6611560583114624,-0.306646466255188,-0.6854803562164307
1725629111076176000,9.27117578125,0.6619624495506287,-0.29021209478378296,-0.6854692101478577
1725629111086129000,9.28112890625,0.6673084497451782,-0.38043835759162903,-0.7591508626937866
1725629111096082000,9.29108203125,0.6908342838287354,-0.3560331463813782,-0.7131644487380981
1725629111106035000,9.301034912109374,0.6705778241157532,-0.26775237917900085,-0.6291782855987549
1725629111115988000,9.310988037109375,0.6589515805244446,-0.23321303725242615,-0.5935161709785461
1725629111125941000,9.32094091796875,0.6185994744300842,-0.31141266226768494,-0.6786567568778992
1725629111135894000,9.33089404296875,0.5468469858169556,-0.29187196493148804,-0.7206295132637024
1725629111145847000,9.340846923828124,0.49020814895629883,-0.22923468053340912,-0.6625601053237915
1725629111155800000,9.350800048828125,0.45328742265701294,-0.26497697830200195,-0.6665588021278381
1725629111165753000,9.360753173828124,0.4484376609325409,-0.22291773557662964,-0.6094680428504944
1725629111175706000,9.3707060546875,0.43804413080215454,-0.16186343133449554,-0.5146893262863159
1725629111185659100,9.3806591796875,0.4550488591194153,-0.13002264499664307,-0.43586835265159607
1725629111195612000,9.39061181640625,0.4444316327571869,-0.12949799001216888,-0.3915368616580963
1725629111205565000,9.40056494140625,0.4112020432949066,-0.1336749792098999,-0.37562862038612366
1725629111215518000,9.41051806640625,0.35930636525154114,-0.08541955798864365,-0.35049983859062195
1725629111225471000,9.420470947265626,0.2867951989173889,-0.050175949931144714,-0.34230220317840576
1725629111235424000,9.430424072265625,0.22827038168907166,-0.03498208522796631,-0.3436358869075775
1725629111245377000,9.440376953125,0.22112412750720978,0.023746168240904808,-0.2811519503593445
1725629111255330000,9.450330078125,0.1873219609260559,0.004987659864127636,-0.22164149582386017
1725629111265284000,9.4602841796875,0.1581283062696457,0.006724084727466106,-0.1429467350244522
1725629111275237000,9.470237060546875,0.14479705691337585,0.0022419849410653114,-0.08692848682403564
1725629111285190100,9.480190185546874,0.15638276934623718,-0.037432923913002014,-0.05247574299573898
1725629111295143200,9.49014306640625,0.14988811314105988,-0.061627209186553955,-0.0004042891087010503
1725629111305096200,9.50009619140625,0.1624130755662918,-0.08625104278326035,0.052103735506534576
1725629111315049200,9.51004931640625,0.17825329303741455,-0.06576307862997055,0.12001194059848785
1725629111325002000,9.520001953125,0.16773854196071625,0.05848682299256325,0.17907468974590302
1725629111334955000,9.529955078125,0.18394415080547333,0.017440320923924446,0.19451330602169037
1725629111344908000,9.539907958984376,0.16707469522953033,0.04010164737701416,0.18746638298034668
1725629111354861000,9.549861083984375,0.16455960273742676,-0.004066080786287785,0.19394852221012115
1725629111364814000,9.55981396484375,0.14019057154655457,-0.009754681028425694,0.22949810326099396
1725629111374767000,9.56976708984375,0.09460552036762238,0.08110198378562927,0.24713143706321716
1725629111384720100,9.57972021484375,0.102492555975914,-0.02866324409842491,0.2665540277957916
1725629111394673200,9.589673095703125,0.07303933054208755,-0.031813498586416245,0.29232144355773926
1725629111404626200,9.599626220703126,0.04127353057265282,-0.036641985177993774,0.2837865352630615
1725629111414579200,9.6095791015625,0.007529948838055134,-0.053375691175460815,0.24505244195461273
1725629111424532200,9.6195322265625,-0.02783706784248352,-0.09322139620780945,0.19103284180164337
1725629111434485000,9.629485107421875,-0.05263828486204147,-0.10945522785186768,0.16706040501594543
1725629111444438000,9.63943798828125,-0.07678074389696121,-0.09764784574508667,0.17639058828353882
1725629111454392000,9.64939208984375,-0.10354125499725342,-0.09466803818941116,0.1590890884399414
1725629111464345000,9.659344970703126,-0.12836211919784546,-0.10267594456672668,0.12978947162628174
1725629111474298000,9.669298095703125,-0.16606076061725616,-0.13658703863620758,0.07736300677061081
1725629111484251100,9.679251220703126,-0.17416617274284363,-0.17116840183734894,0.044727761298418045
1725629111494204200,9.6892041015625,-0.1912040114402771,-0.19707509875297546,0.0340317077934742
1725629111504157200,9.6991572265625,-0.19929517805576324,-0.22092239558696747,-0.0035374071449041367
1725629111514110200,9.709110107421875,-0.17685803771018982,-0.2350187748670578,-0.029385782778263092
1725629111524063200,9.719063232421876,-0.16319318115711212,-0.22705979645252228,-0.015422865748405457
1725629111534016300,9.729016357421875,-0.1600722223520279,-0.24551284313201904,-0.0282683577388525
1725629111543969300,9.73896923828125,-0.15173500776290894,-0.2665705680847168,-0.030615678057074547
1725629111553922300,9.74892236328125,-0.15789943933486938,-0.2731464207172394,-0.005121503956615925
1725629111563875000,9.758875,-0.16879327595233917,-0.2697390913963318,0.04282392933964729
1725629111573828000,9.768828125,-0.16263364255428314,-0.2416192889213562,0.1153378039598465
1725629111583781000,9.778781005859376,-0.15563786029815674,-0.25421077013015747,0.1504497528076172
1725629111593734100,9.788734130859375,-0.1628022938966751,-0.28947341442108154,0.1244884505867958
1725629111603687200,9.798687255859376,-0.16494689881801605,-0.24826590716838837,0.13060538470745087
1725629111613640200,9.80864013671875,-0.19087330996990204,-0.18822655081748962,0.18049784004688263
1725629111623593200,9.81859326171875,-0.22255392372608185,-0.15650443732738495,0.20285457372665405
1725629111633546200,9.828546142578125,-0.24635832011699677,-0.13831503689289093,0.20145800709724426
1725629111643499000,9.8384990234375,-0.26549720764160156,-0.0813869908452034,0.23049211502075195
1725629111653452000,9.8484521484375,-0.29376906156539917,-0.06581895053386688,0.2274976670742035
1725629111663405000,9.858405029296875,-0.3208616375923157,-0.0252737607806921,0.20602400600910187
1725629111673358000,9.868358154296875,-0.3425501585006714,0.048293665051460266,0.25672098994255066
1725629111683311000,9.87831103515625,-0.36075785756111145,0.12111110240221024,0.3410269021987915
1725629111693264100,9.88826416015625,-0.3822530210018158,0.15025247633457184,0.3823660612106323
1725629111703217200,9.898217041015625,-0.40202733874320984,0.17263615131378174,0.4437950551509857
1725629111713171000,9.9081708984375,-0.4285697340965271,0.17343217134475708,0.45429936051368713
1725629111723124000,9.9181240234375,-0.4444195628166199,0.1272549331188202,0.39911526441574097
1725629111733077000,9.928076904296875,-0.452884703874588,0.18734543025493622,0.4215758144855499
1725629111743030000,9.938030029296876,-0.47568604350090027,0.2920481264591217,0.4774720370769501
1725629111752983000,9.947983154296875,-0.491020530462265,0.31638675928115845,0.4837166368961334
1725629111762936000,9.95793603515625,-0.48902860283851624,0.3177312910556793,0.5060877203941345
1725629111772889000,9.96788916015625,-0.5162155032157898,0.32952964305877686,0.5222243666648865
1725629111782842000,9.977842041015625,-0.5562394261360168,0.3772171437740326,0.5439895391464233
1725629111792795100,9.987795166015625,-0.5892783403396606,0.42139285802841187,0.5654091238975525
1725629111802748000,9.997747802734375,-0.5987235903739929,0.476791650056839,0.613144040107727
1725629111812701000,10.007700927734374,-0.6084675788879395,0.4416230022907257,0.5874485373497009
1725629111822654000,10.017654052734375,-0.6037725806236267,0.41595157980918884,0.5668802857398987
1725629111832607000,10.02760693359375,-0.5999011397361755,0.4297417104244232,0.5693338513374329
1725629111842560000,10.03756005859375,-0.6143597364425659,0.43228068947792053,0.5355242490768433
1725629111852513000,10.047512939453124,-0.6139935255050659,0.435678094625473,0.5230451822280884
1725629111862466000,10.057466064453125,-0.6100295782089233,0.4144122004508972,0.4933026432991028
1725629111872419000,10.067419189453124,-0.5997713208198547,0.37455400824546814,0.45382368564605713
1725629111882372000,10.0773720703125,-0.5613536834716797,0.3315635025501251,0.4155675768852234
1725629111892325000,10.0873251953125,-0.5701456069946289,0.3439604938030243,0.40078064799308777
1725629111902279200,10.097279052734375,-0.5248461961746216,0.33379465341567993,0.40911799669265747
1725629111912232200,10.107232177734375,-0.4561792314052582,0.28193891048431396,0.368174284696579
1725629111922185200,10.117185302734375,-0.38150495290756226,0.20345871150493622,0.29828980565071106
1725629111932138000,10.127137939453124,-0.322501003742218,0.17647501826286316,0.263586163520813
1725629111942091000,10.137091064453125,-0.26147133111953735,0.19469690322875977,0.2167445570230484
1725629111952044000,10.1470439453125,-0.2227652221918106,0.1886051893234253,0.15136341750621796
1725629111961997000,10.1569970703125,-0.22558529675006866,0.1999841183423996,0.14294227957725525
1725629111971950000,10.1669501953125,-0.1807030439376831,0.165490061044693,0.11132550984621048
1725629111981903000,10.176903076171875,-0.16789060831069946,0.13088123500347137,0.07245296984910965
1725629111991856000,10.186856201171874,-0.12143255770206451,0.10363789647817612,0.04440376162528992
1725629112001810200,10.19681005859375,-0.07158953696489334,0.07667635381221771,0.034890785813331604
1725629112011763200,10.20676318359375,-0.01334274373948574,0.05535775050520897,0.023840531706809998
1725629112021716200,10.21671630859375,0.06592119485139847,0.01707630418241024,-0.0051941098645329475
1725629112031669200,10.226669189453125,0.12592194974422455,-0.03618798032402992,-0.05037463828921318
1725629112041622300,10.236622314453125,0.18346062302589417,-0.07231413573026657,-0.10360196977853775
1725629112051575000,10.246574951171874,0.2707214951515198,-0.11675164103507996,-0.16797350347042084
1725629112061528000,10.256528076171875,0.3326760232448578,-0.16908743977546692,-0.2262389212846756
1725629112071481000,10.266481201171874,0.37136295437812805,-0.18991228938102722,-0.27411699295043945
1725629112081434000,10.27643408203125,0.4128251373767853,-0.266506165266037,-0.33992260694503784
1725629112091387100,10.28638720703125,0.45209717750549316,-0.30043455958366394,-0.3587876260280609
1725629112101340200,10.296340087890625,0.47196683287620544,-0.2886680066585541,-0.37102240324020386
1725629112111293000,10.30629296875,0.4935312569141388,-0.3305741846561432,-0.4131285846233368
1725629112121246000,10.316245849609375,0.5127972364425659,-0.2953665256500244,-0.4004990756511688
1725629112131199000,10.326198974609374,0.522729754447937,-0.3408772945404053,-0.45312604308128357
1725629112141152000,10.336152099609375,0.5580194592475891,-0.3838978409767151,-0.48778656125068665
1725629112151105000,10.34610498046875,0.59583580493927,-0.35889557003974915,-0.4908124506473541
1725629112161058000,10.35605810546875,0.6182079911231995,-0.3975873291492462,-0.5344377756118774
1725629112171011000,10.366010986328124,0.6345835328102112,-0.3642940819263458,-0.5290533900260925
1725629112180964900,10.37596484375,0.6444116830825806,-0.3467583656311035,-0.5434740781784058
1725629112190918000,10.38591796875,0.6320317387580872,-0.3288925290107727,-0.5682204365730286
1725629112200871000,10.395870849609375,0.6385605335235596,-0.3860044777393341,-0.6349877119064331
1725629112210824000,10.405823974609374,0.6362987160682678,-0.3640879988670349,-0.632519006729126
1725629112220777000,10.41577685546875,0.6237571835517883,-0.38525527715682983,-0.6447719931602478
1725629112230730000,10.42572998046875,0.6424733400344849,-0.4149385988712311,-0.651118278503418
1725629112240682800,10.435682861328125,0.6607283353805542,-0.3694821298122406,-0.5796322822570801
1725629112250635800,10.4456357421875,0.6524254083633423,-0.36062684655189514,-0.5582566857337952
1725629112260588800,10.4555888671875,0.6525582075119019,-0.3629045784473419,-0.5289063453674316
1725629112270541800,10.465541748046874,0.6200849413871765,-0.3829413950443268,-0.5408154726028442
1725629112280494800,10.475494873046875,0.5760807394981384,-0.3343594968318939,-0.5555057525634766
1725629112290448000,10.48544775390625,0.5239701271057129,-0.3042798638343811,-0.5603896975517273
1725629112300401000,10.49540087890625,0.47718584537506104,-0.21890877187252045,-0.5191803574562073
1725629112310354000,10.50535400390625,0.4312992990016937,-0.12515512108802795,-0.44443610310554504
1725629112320307000,10.515306884765625,0.3910389542579651,-0.10818298906087875,-0.4373015761375427
1725629112330260000,10.525260009765624,0.3903798460960388,-0.06034222990274429,-0.39504387974739075
1725629112340214000,10.535214111328125,0.35825639963150024,-0.13521915674209595,-0.41008591651916504
1725629112350167000,10.5451669921875,0.35238227248191833,-0.12063141167163849,-0.39284539222717285
1725629112360119800,10.555119873046875,0.2825322151184082,-0.08342520147562027,-0.35265782475471497
1725629112370072800,10.56507275390625,0.21012993156909943,0.02300909534096718,-0.27567675709724426
1725629112380025900,10.57502587890625,0.14850065112113953,0.057072628289461136,-0.20215003192424774
1725629112389979000,10.584978759765624,0.09768379479646683,0.08535566926002502,-0.1972905695438385
1725629112399932000,10.594931884765625,0.07337689399719238,0.07705963402986526,-0.15980900824069977
1725629112409885000,10.604885009765624,0.08432728052139282,-0.01167929358780384,-0.131121426820755
1725629112419838000,10.614837890625,0.08907097578048706,-0.05794883146882057,-0.12100160121917725
1725629112429791000,10.624791015625,0.06933748722076416,-0.05591897293925285,-0.04584134370088577
1725629112439744000,10.634743896484375,0.03515039011836052,-0.07838597148656845,0.033737801015377045
1725629112449697000,10.644697021484374,0.021555220708251,-0.07618220150470734,0.03315936028957367
1725629112459650000,10.654650146484375,-0.014761349186301231,-0.10563863813877106,0.049976471811532974
1725629112469602800,10.664602783203126,-0.06096319854259491,-0.13897183537483215,0.033440373837947845
1725629112479555800,10.674555908203125,-0.07888221740722656,-0.14232133328914642,0.01449538953602314
1725629112489508900,10.6845087890625,-0.06419355422258377,-0.1410589963197708,-0.015365037135779858
1725629112499462000,10.6944619140625,-0.009710866026580334,-0.10474207252264023,0.008786465041339397
1725629112509416000,10.704416015625,0.01344398781657219,-0.05411272495985031,0.06947164982557297
1725629112519369000,10.714368896484375,0.0140021201223135,-0.01542112696915865,0.0868854895234108
1725629112529322000,10.724322021484374,-0.0036631585098803043,-0.0533733032643795,0.08191123604774475
1725629112539275000,10.73427490234375,-0.036819059401750565,-0.06486780941486359,0.0894583910703659
1725629112549228000,10.74422802734375,-0.06729760766029358,-0.05912496894598007,0.05904269590973854
1725629112559181000,10.75418115234375,-0.0651620402932167,-0.03917709365487099,0.04904239997267723
1725629112569134000,10.764134033203124,-0.054805539548397064,-0.036093685775995255,0.04257943853735924
1725629112579087000,10.774087158203125,-0.04142988845705986,-0.026912473142147064,0.023837998509407043
1725629112589040000,10.7840400390625,-0.03525162115693092,-0.010951082222163677,0.00955146923661232
1725629112598993000,10.793992919921875,-0.04578930884599686,-0.003829639870673418,0.02950306236743927
1725629112608946000,10.80394580078125,-0.06295764446258545,-0.03326848894357681,0.013229550793766975
1725629112618899000,10.81389892578125,-0.06799069046974182,-0.031795352697372437,0.008169583044946194
1725629112628852000,10.82385205078125,-0.06388568878173828,-0.0069192987866699696,0.011538748629391193
1725629112638805000,10.833804931640625,-0.0654100701212883,0.0011395078618079424,-0.01749473437666893
1725629112648758000,10.843758056640626,-0.0550764724612236,0.010484007187187672,-0.008248506113886833
1725629112658711000,10.8537109375,-0.04937025159597397,0.016695043072104454,0.0075513082556426525
1725629112668664000,10.8636640625,-0.05385049059987068,0.016996245831251144,-0.015033628791570663
1725629112678617900,10.873617919921875,-0.06389258056879044,0.005584405269473791,-0.016043545678257942
1725629112688571000,10.88357080078125,-0.077091746032238,-0.01426147110760212,-0.029707958921790123
1725629112698524000,10.89352392578125,-0.08219000697135925,-0.016291402280330658,-0.047180771827697754
1725629112708477000,10.903476806640626,-0.0814318060874939,-0.009122174233198166,-0.02861640974879265
1725629112718430000,10.913429931640625,-0.08418454229831696,-0.008538871072232723,0.006454040762037039
1725629112728382700,10.9233828125,-0.09856667369604111,-0.019531333819031715,0.024154474958777428
1725629112738335700,10.933335693359375,-0.12462162971496582,-0.04535064846277237,0.03754163160920143
1725629112748288800,10.943288818359376,-0.15376460552215576,-0.05526266619563103,0.0950978696346283
1725629112758241800,10.95324169921875,-0.23006856441497803,0.025827670469880104,0.13648027181625366
1725629112768194800,10.96319482421875,-0.2581705152988434,-0.05628157779574394,0.13303866982460022
1725629112778147800,10.97314794921875,-0.31243085861206055,0.051905449479818344,0.16887062788009644
1725629112788100900,10.983100830078126,-0.33345305919647217,0.011463217437267303,0.2094966173171997
1725629112798054000,10.993053955078125,-0.3643687963485718,0.11355143040418625,0.2325318157672882
1725629112808007000,11.0030068359375,-0.3513883054256439,0.14615678787231445,0.34701019525527954
1725629112817960000,11.0129599609375,-0.38235026597976685,0.2218111753463745,0.41004157066345215
1725629112827913000,11.022912841796876,-0.39881739020347595,0.1789766252040863,0.38657113909721375
1725629112837867000,11.032866943359375,-0.41699185967445374,0.1836414486169815,0.4155486226081848
1725629112847820000,11.042820068359376,-0.4423728585243225,0.1440860480070114,0.41303911805152893
1725629112857772800,11.052772705078125,-0.4693589508533478,0.17862007021903992,0.39829015731811523
1725629112867725800,11.062725830078126,-0.4721936285495758,0.29143473505973816,0.4885241687297821
1725629112877678800,11.072678955078125,-0.49152523279190063,0.44198745489120483,0.6134819388389587
1725629112887632000,11.0826318359375,-0.5188095569610596,0.4610186815261841,0.6466937065124512
1725629112897585000,11.0925849609375,-0.5190944671630859,0.43460899591445923,0.6609492301940918
1725629112907538000,11.102537841796876,-0.5377371311187744,0.43326011300086975,0.6767356395721436
1725629112917491000,11.112490966796875,-0.5547688603401184,0.42249712347984314,0.6725342869758606
1725629112927444000,11.12244384765625,-0.5743319392204285,0.45630010962486267,0.6902381777763367
1725629112937397000,11.13239697265625,-0.6251105666160583,0.5504961609840393,0.7394834756851196
1725629112947350000,11.14235009765625,-0.6447849273681641,0.5646857023239136,0.7498021721839905
1725629112957303000,11.152302978515625,-0.6501373052597046,0.5167658925056458,0.7321166396141052
1725629112967255800,11.162255859375,-0.6534766554832458,0.4984462857246399,0.7126539945602417
1725629112977208800,11.172208740234375,-0.6590001583099365,0.43152984976768494,0.641129195690155
1725629112987161900,11.182161865234375,-0.6408309936523438,0.4072956144809723,0.6125468611717224
1725629112997115000,11.192114990234375,-0.6616962552070618,0.46396759152412415,0.6133342981338501
1725629113007069000,11.20206884765625,-0.7075830101966858,0.4396635591983795,0.5440928936004639
1725629113017022000,11.21202197265625,-0.6237465739250183,0.4329011142253876,0.5392616987228394
1725629113026975000,11.22197509765625,-0.6221369504928589,0.3600439429283142,0.49299463629722595
1725629113036928000,11.231927978515625,-0.582188606262207,0.3468930125236511,0.44825509190559387
1725629113046881000,11.241881103515626,-0.5546299815177917,0.24792169034481049,0.35573261976242065
1725629113056834000,11.251833984375,-0.5516626238822937,0.2150217592716217,0.32622450590133667
1725629113066787000,11.261787109375,-0.4984385669231415,0.18674404919147491,0.2858906686306
1725629113076740000,11.271739990234375,-0.46288585662841797,0.13393495976924896,0.21528494358062744
1725629113086693000,11.281693115234376,-0.4021031856536865,0.12726454436779022,0.18652786314487457
1725629113096646000,11.29164599609375,-0.34751173853874207,0.11200632154941559,0.17135901749134064
1725629113106599700,11.301599609375,-0.28367283940315247,0.09790728241205215,0.15341223776340485
1725629113116552700,11.311552734375,-0.23147064447402954,0.08063795417547226,0.127232164144516
1725629113126505700,11.321505615234376,-0.17963381111621857,0.05211896821856499,0.09185925126075745
1725629113136458800,11.331458740234375,-0.11117967218160629,-0.003978739958256483,0.05606340616941452
1725629113146411500,11.34141162109375,-0.020277727395296097,-0.018882321193814278,0.047494951635599136
1725629113156364500,11.351364501953125,0.04254675656557083,-0.04667222127318382,0.017738619819283485
1725629113166317600,11.361317626953126,0.11784709990024567,-0.09664031863212585,-0.025484217330813408
1725629113176271400,11.371271240234375,0.17655768990516663,-0.14689737558364868,-0.0850626677274704
1725629113186224400,11.381224365234376,0.2422485500574112,-0.18142978847026825,-0.14316219091415405
1725629113196177400,11.391177490234375,0.30409184098243713,-0.1989133656024933,-0.1796647310256958
1725629113206130400,11.40113037109375,0.35648900270462036,-0.19369331002235413,-0.20095084607601166
1725629113216083500,11.41108349609375,0.41015830636024475,-0.2256414145231247,-0.24030594527721405
1725629113226036500,11.421036376953126,0.4741378128528595,-0.3068534731864929,-0.3154846131801605
1725629113235989500,11.430989501953125,0.5189750790596008,-0.32864025235176086,-0.36584192514419556
1725629113245942500,11.440942626953126,0.5487388372421265,-0.3329892158508301,-0.42735907435417175
1725629113255895600,11.4508955078125,0.5805130004882812,-0.3488464951515198,-0.47742959856987
1725629113265848600,11.4608486328125,0.5990204215049744,-0.3663346767425537,-0.5020872950553894
1725629113275801300,11.47080126953125,0.6143044233322144,-0.41216930747032166,-0.554966151714325
1725629113285754400,11.48075439453125,0.6412931680679321,-0.39553922414779663,-0.5502952337265015
1725629113295707400,11.490707275390625,0.6439833641052246,-0.3729954957962036,-0.5668383240699768
1725629113305660400,11.500660400390625,0.6485748887062073,-0.41678106784820557,-0.607181966304779
1725629113315613400,11.510613525390625,0.6600014567375183,-0.4250432550907135,-0.629004180431366
1725629113325566500,11.52056640625,0.650543212890625,-0.4256320893764496,-0.6438305377960205
1725629113335519500,11.53051953125,0.6468347907066345,-0.41580164432525635,-0.6460676789283752
1725629113345473500,11.5404736328125,0.6475006341934204,-0.45752406120300293,-0.6471851468086243
1725629113355426600,11.550426513671875,0.6441690325737,-0.4366929233074188,-0.6575461030006409
1725629113365379600,11.560379638671876,0.650151789188385,-0.46007734537124634,-0.6755826473236084
1725629113375332600,11.57033251953125,0.660851001739502,-0.4282529652118683,-0.6078408360481262
1725629113385285600,11.58028564453125,0.6559622287750244,-0.3959820866584778,-0.5371443033218384
1725629113395238700,11.59023876953125,0.6360911130905151,-0.3636337220668793,-0.508453905582428
1725629113405191400,11.60019140625,0.584852933883667,-0.37649253010749817,-0.5951839685440063
1725629113415144400,11.61014453125,0.5547187924385071,-0.30441814661026,-0.5801210999488831
1725629113425097500,11.620097412109375,0.4859013855457306,-0.30946964025497437,-0.5986772179603577
1725629113435050500,11.630050537109375,0.45626458525657654,-0.25127407908439636,-0.5944963097572327
1725629113445003500,11.64000341796875,0.4270835220813751,-0.1593599021434784,-0.5050822496414185
1725629113454956500,11.64995654296875,0.39784377813339233,-0.09283185005187988,-0.45558100938796997
1725629113464909600,11.65990966796875,0.39737212657928467,-0.056495942175388336,-0.38948962092399597
1725629113474862600,11.669862548828124,0.36124077439308167,-0.03458337113261223,-0.3580986261367798
1725629113484815600,11.679815673828125,0.33674556016921997,-0.05343402549624443,-0.34881460666656494
1725629113494768600,11.6897685546875,0.3037739098072052,-0.06939204782247543,-0.3328760862350464
1725629113504721400,11.699721435546875,0.2770219147205353,-0.03237064182758331,-0.3179439902305603
1725629113514674400,11.70967431640625,0.25070852041244507,-0.003353534732013941,-0.2601175010204315
1725629113524628700,11.719628662109375,0.21870717406272888,0.040733497589826584,-0.18107198178768158
1725629113534581500,11.72958154296875,0.18367202579975128,0.06600560247898102,-0.11896495521068573
1725629113544534500,11.739534423828125,0.16016218066215515,0.04692485183477402,-0.1121259555220604
1725629113554487600,11.749487548828125,0.18145133554935455,0.018764594569802284,-0.08804356306791306
1725629113564440600,11.759440673828125,0.17982681095600128,-0.04481757804751396,-0.04518930986523628
1725629113574393600,11.7693935546875,0.16218723356723785,-0.03251269459724426,0.004265262745320797
1725629113584346600,11.7793466796875,0.1428351104259491,-0.005735940299928188,0.061389535665512085
1725629113594299600,11.789299560546874,0.12585343420505524,0.0013887323439121246,0.10167741030454636
1725629113604252700,11.799252685546875,0.12492664158344269,-0.008519824594259262,0.11235029250383377
1725629113614205700,11.809205810546874,0.10876407474279404,0.1064707487821579,0.1364864706993103
1725629113624158700,11.81915869140625,0.10746897757053375,0.08699958026409149,0.1374492049217224
1725629113634111500,11.829111572265624,0.0984644666314125,0.10458513349294662,0.14489448070526123
1725629113644064500,11.839064453125,0.07332529127597809,0.13570471107959747,0.13684667646884918
1725629113654017500,11.849017578125,0.07103805243968964,0.06497102975845337,0.13618741929531097
1725629113663970600,11.858970458984375,0.0449337475001812,0.08108848333358765,0.17462801933288574
1725629113673923600,11.868923583984374,0.0203037541359663,0.09528802335262299,0.17064477503299713
1725629113683876600,11.878876708984375,-0.014168202877044678,0.04057098925113678,0.18040579557418823
1725629113693830400,11.888830322265624,-0.03578750789165497,0.014282682910561562,0.1862298995256424
1725629113703783400,11.898783447265625,-0.0505901575088501,-0.01846114918589592,0.1756100058555603
1725629113713736400,11.908736328125,-0.05483860522508621,0.01305641233921051,0.19798162579536438
1725629113723689500,11.918689453125,-0.056178174912929535,0.0032956611830741167,0.18239814043045044
1725629113733642500,11.928642578125,-0.05755332112312317,-0.05908301845192909,0.12760089337825775
1725629113743595500,11.938595458984375,-0.06111476570367813,-0.11595775187015533,0.0643785148859024
1725629113753548500,11.948548583984374,-0.07276587933301926,-0.14352446794509888,0.007379406597465277
1725629113763501300,11.958501220703125,-0.06527414172887802,-0.14249008893966675,-0.009179064072668552
1725629113773454300,11.968454345703124,-0.06737015396356583,-0.13410353660583496,0.004055831115692854
1725629113783407400,11.978407470703125,-0.06679091602563858,-0.15653188526630402,-0.01610935851931572
1725629113793360400,11.9883603515625,-0.04034751281142235,-0.16970756649971008,-0.009474913589656353
1725629113803313400,11.9983134765625,-0.039960023015737534,-0.20510683953762054,-0.03487774357199669
1725629113813266400,12.008266357421874,-0.04042114317417145,-0.2381085455417633,-0.07151483744382858
1725629113823219500,12.018219482421875,-0.05633406341075897,-0.23790748417377472,-0.03837578743696213
1725629113833172500,12.02817236328125,-0.09573905169963837,-0.21324782073497772,-0.006055170204490423
1725629113843125500,12.03812548828125,-0.12387135624885559,-0.19649814069271088,0.028412524610757828
1725629113853078500,12.04807861328125,-0.14244681596755981,-0.16369834542274475,0.08602426201105118
1725629113863031600,12.058031494140625,-0.14635047316551208,-0.14950236678123474,0.1578931212425232
1725629113872985600,12.067985595703124,-0.15748189389705658,-0.1628330498933792,0.20365193486213684
1725629113882938600,12.077938720703125,-0.1498522013425827,-0.15244272351264954,0.19423048198223114
1725629113892891400,12.087891357421874,-0.15464277565479279,-0.17315682768821716,0.1972806304693222
1725629113902844400,12.097844482421875,-0.15955524146556854,-0.17945706844329834,0.1941346377134323
1725629113912797400,12.10779736328125,-0.16969530284404755,-0.2109277844429016,0.18835046887397766
1725629113922750500,12.11775048828125,-0.18330219388008118,-0.1650729477405548,0.25159016251564026
1725629113932703500,12.127703369140624,-0.2037738710641861,-0.11852524429559708,0.3292626440525055
1725629113942656500,12.137656494140625,-0.21615277230739594,-0.11089608818292618,0.30949345231056213
1725629113952609500,12.147609619140624,-0.22859370708465576,-0.024321889504790306,0.3960469365119934
1725629113962562600,12.1575625,-0.24942202866077423,0.06378160417079926,0.4826257824897766
1725629113972515600,12.167515625,-0.2761015295982361,0.0605449378490448,0.44706806540489197
1725629113982468600,12.177468505859375,-0.28487157821655273,0.08674271404743195,0.4299607276916504
1725629113992421600,12.187421630859374,-0.31975457072257996,0.1267072707414627,0.4457090497016907
1725629114002374400,12.19737451171875,-0.35473600029945374,0.1208999827504158,0.40096768736839294
1725629114012327400,12.207327392578126,-0.39152196049690247,0.20342333614826202,0.44272881746292114
1725629114022280400,12.217280517578125,-0.4294371008872986,0.26752030849456787,0.46882593631744385
1725629114032233500,12.2272333984375,-0.4488971531391144,0.29934990406036377,0.4802953004837036
1725629114042186500,12.2371865234375,-0.4766608774662018,0.3487717807292938,0.5225955843925476
1725629114052140500,12.247140625,-0.509182333946228,0.39353829622268677,0.5625358819961548
1725629114062093600,12.257093505859375,-0.5405709147453308,0.4019256830215454,0.5610924363136292
1725629114072046600,12.267046630859374,-0.5490661263465881,0.3527068793773651,0.526679277420044
1725629114081999600,12.27699951171875,-0.5670595169067383,0.3870038390159607,0.5391854643821716
1725629114091952600,12.28695263671875,-0.5971019864082336,0.45099061727523804,0.5743521451950073
1725629114101905700,12.29690576171875,-0.6213210821151733,0.4838212728500366,0.5940041542053223
